,FB,c_dis,context,response,rt,state,stim,trial_count,ts,rep_resp,switch,con_1dim,con_2dim,subj_ts,subj_switch,correct,stim_conform,true_context,abs_context,context_sign,log_rt,opt_choices,opt_switch,conform_opt,no_fb_posterior,no_fb_switch,conform_no_fb,id
0,0,"{'mean': -0.3, 'sd': 0.37}",-0.7,2,0.4926910400390625,0,"(0, 2)",1,0,False,,0,1,1,,False,True,-0.7,0.7,-1.0,-0.7078729950267171,0,,False,0.03432812530647133,,False,024
1,0,"{'mean': -0.3, 'sd': 0.37}",-0.3,2,0.6812942028045654,0,"(1, 3)",2,0,True,0.0,0,0,1,0.0,False,False,-0.3,0.3,-1.0,-0.38376105025887586,0,0.0,False,0.035403652444014035,False,False,024
2,0,"{'mean': -0.3, 'sd': 0.37}",-0.1,0,0.6694791316986084,0,"(1, 3)",3,0,False,0.0,0,0,0,1.0,False,False,-0.1,0.1,-1.0,-0.4012552843163776,0,0.0,True,0.08769952814132914,False,True,024
3,1,"{'mean': -0.3, 'sd': 0.37}",0.1,0,1.0103700160980225,0,"(0, 2)",4,0,True,0.0,1,0,0,0.0,True,True,0.1,0.1,1.0,0.010316616334749338,0,0.0,True,0.25542262063972204,False,True,024
4,1,"{'mean': -0.3, 'sd': 0.37}",-0.3,0,0.7925589084625244,0,"(0, 2)",5,0,True,0.0,1,0,0,0.0,True,True,-0.3,0.3,-1.0,-0.2324884435483949,0,0.0,True,0.09812427075501165,False,True,024
5,1,"{'mean': -0.3, 'sd': 0.37}",-0.1,1,0.9186179637908936,0,"(1, 2)",6,0,False,0.0,1,0,0,0.0,True,True,-0.1,0.1,-1.0,-0.08488495166343622,0,0.0,True,0.12374055670897281,False,True,024
6,0,"{'mean': -0.3, 'sd': 0.37}",-0.1,3,1.3114259243011475,0,"(1, 3)",7,0,False,0.0,0,1,1,1.0,False,True,-0.1,0.1,-1.0,0.2711150370682983,0,0.0,False,0.13885756414327846,False,False,024
7,0,"{'mean': 0.3, 'sd': 0.37}",0.1,1,0.9823768138885498,1,"(1, 2)",8,1,False,1.0,1,0,0,1.0,False,True,0.1,0.1,1.0,-0.017780323365590447,0,0.0,True,0.30867477741933985,False,True,024
8,1,"{'mean': 0.3, 'sd': 0.37}",0.3,3,1.049752950668335,1,"(1, 3)",9,1,False,0.0,0,1,1,1.0,True,True,0.3,0.3,1.0,0.048554851407779376,1,1.0,True,0.6920422373415456,True,True,024
9,0,"{'mean': 0.3, 'sd': 0.37}",0.3,1,0.9343540668487549,1,"(1, 2)",10,1,False,0.0,1,0,0,1.0,False,True,0.3,0.3,1.0,-0.06789982602661512,1,0.0,False,0.8881038523962727,False,False,024
10,1,"{'mean': 0.3, 'sd': 0.37}",0.1,3,0.7223351001739502,1,"(1, 3)",11,1,False,0.0,0,1,1,1.0,True,True,0.1,0.1,1.0,-0.32526612009848943,1,0.0,True,0.8753749987554931,False,True,024
11,1,"{'mean': 0.3, 'sd': 0.37}",0.5,3,0.5700290203094482,1,"(1, 3)",12,1,True,0.0,0,1,1,0.0,True,True,0.5,0.5,1.0,-0.5620680066259616,1,0.0,True,0.9768843871079654,False,True,024
12,0,"{'mean': 0.3, 'sd': 0.37}",0.3,1,0.9500761032104492,1,"(0, 3)",13,1,False,0.0,0,0,0,1.0,False,False,0.3,0.3,1.0,-0.05121318895349836,1,0.0,False,0.9686515152920431,False,False,024
13,1,"{'mean': -0.3, 'sd': 0.37}",-0.9,1,0.9851667881011963,0,"(1, 2)",14,0,True,1.0,1,0,0,0.0,True,True,-0.9,0.9,-1.0,-0.014944324122900414,0,1.0,True,0.08376202784112985,True,True,024
14,1,"{'mean': 0.3, 'sd': 0.37}",1.0,3,0.7124450206756592,1,"(1, 3)",15,1,False,1.0,0,1,1,1.0,True,True,1.0,1.0,1.0,-0.3390525337806104,1,1.0,True,0.9540150537185842,True,True,024
15,0,"{'mean': 0.3, 'sd': 0.37}",-0.1,0,0.7686400413513184,1,"(1, 2)",16,1,False,0.0,0,0,0,1.0,False,False,-0.1,0.1,-1.0,-0.2631325057325437,1,0.0,False,0.8004429438249551,False,False,024
16,0,"{'mean': 0.3, 'sd': 0.37}",0.3,0,0.713778018951416,1,"(0, 3)",17,1,True,0.0,1,0,0,0.0,False,True,0.3,0.3,1.0,-0.3371832628084498,1,0.0,False,0.9228603728742933,False,False,024
17,0,"{'mean': 0.3, 'sd': 0.37}",0.7,1,0.9638090133666992,1,"(1, 2)",18,1,False,0.0,1,0,0,0.0,False,True,0.7,0.7,1.0,-0.03686212291394846,1,0.0,False,0.9927004645078459,False,False,024
18,0,"{'mean': 0.3, 'sd': 0.37}",-0.1,1,0.6410109996795654,1,"(1, 2)",19,1,True,0.0,1,0,0,0.0,False,True,-0.1,0.1,-1.0,-0.4447086620221718,1,0.0,False,0.8424064171645564,False,False,024
19,0,"{'mean': 0.3, 'sd': 0.37}",0.1,3,0.5240349769592285,1,"(1, 2)",20,1,False,0.0,0,0,1,1.0,False,False,0.1,0.1,1.0,-0.64619684696658,1,0.0,True,0.8492486808012122,False,True,024
20,0,"{'mean': 0.3, 'sd': 0.37}",-0.3,2,0.9344069957733154,1,"(0, 3)",21,1,False,0.0,0,0,1,0.0,False,False,-0.3,0.3,-1.0,-0.06784318002126608,0,0.0,True,0.46502328083139544,True,False,024
21,1,"{'mean': 0.3, 'sd': 0.37}",0.3,3,0.8816230297088623,1,"(1, 3)",22,1,False,0.0,0,1,1,0.0,True,True,0.3,0.3,1.0,-0.12599071829665706,1,0.0,True,0.7904722295366859,True,True,024
22,0,"{'mean': 0.3, 'sd': 0.37}",0.1,1,0.9207639694213867,1,"(1, 3)",23,1,False,0.0,1,0,0,1.0,False,True,0.1,0.1,1.0,-0.08255155198667483,1,0.0,False,0.8185323746698683,False,False,024
23,0,"{'mean': -0.3, 'sd': 0.37}",-0.5,3,0.6170790195465088,0,"(1, 3)",24,0,False,1.0,0,1,1,1.0,False,True,-0.5,0.5,-1.0,-0.4827581926992755,0,0.0,True,0.22403692319759408,True,False,024
24,1,"{'mean': -0.3, 'sd': 0.37}",-0.9,0,1.2329208850860596,0,"(0, 2)",25,0,False,0.0,1,0,0,1.0,True,True,-0.9,0.9,-1.0,0.20938605755427844,0,1.0,True,0.005134163299924883,False,True,024
25,1,"{'mean': -0.3, 'sd': 0.37}",-0.9,1,0.9299249649047852,0,"(1, 2)",26,0,False,0.0,1,0,0,0.0,True,True,-0.9,0.9,-1.0,-0.07265137898795601,0,0.0,True,0.001566119689470227,False,True,024
26,0,"{'mean': -0.3, 'sd': 0.37}",-0.9,2,0.8130800724029541,0,"(0, 3)",27,0,False,0.0,0,0,1,1.0,False,False,-0.9,0.9,-1.0,-0.20692568424361812,0,0.0,False,0.0015192818439035978,False,False,024
27,1,"{'mean': -0.3, 'sd': 0.37}",-0.1,1,0.6012320518493652,0,"(1, 2)",29,0,False,0.0,1,0,0,1.0,True,True,-0.1,0.1,-1.0,-0.508774309401715,0,0.0,True,0.06878247677163171,False,True,024
28,1,"{'mean': -0.3, 'sd': 0.37}",-0.5,1,0.6556620597839355,0,"(1, 2)",30,0,True,0.0,1,0,0,0.0,True,True,-0.5,0.5,-1.0,-0.42210977554321477,0,0.0,True,0.017198525682176932,False,True,024
29,1,"{'mean': -0.3, 'sd': 0.37}",-1.0,0,1.1395158767700195,0,"(0, 3)",31,0,False,0.0,1,0,0,0.0,True,True,-1.0,1.0,-1.0,0.1306035027087921,0,0.0,True,0.0010511838459402781,False,True,024
30,1,"{'mean': -0.3, 'sd': 0.37}",-0.3,0,0.5512409210205078,0,"(0, 3)",32,0,True,0.0,1,0,0,0.0,True,True,-0.3,0.3,-1.0,-0.5955833221607775,0,0.0,True,0.027522857865055768,False,True,024
31,0,"{'mean': 0.3, 'sd': 0.37}",1.0,3,1.3568580150604248,1,"(1, 2)",33,1,False,1.0,0,0,1,1.0,False,False,1.0,1.0,1.0,0.3051717438828414,1,1.0,True,0.9352717507627542,True,True,024
32,0,"{'mean': 0.3, 'sd': 0.37}",0.7,0,1.0144281387329102,1,"(0, 3)",34,1,False,0.0,1,0,0,1.0,False,True,0.7,0.7,1.0,0.014325043603272351,1,0.0,False,0.9932193614226973,False,False,024
33,1,"{'mean': 0.3, 'sd': 0.37}",0.5,2,0.7924351692199707,1,"(0, 2)",35,1,False,0.0,0,1,1,1.0,True,True,0.5,0.5,1.0,-0.23264458197761353,1,0.0,True,0.9888420386327017,False,True,024
34,1,"{'mean': 0.3, 'sd': 0.37}",0.3,2,0.5293450355529785,1,"(0, 2)",36,1,True,0.0,0,1,1,0.0,True,True,0.3,0.3,1.0,-0.6361148186196887,1,0.0,True,0.9713667702197778,False,True,024
35,0,"{'mean': 0.3, 'sd': 0.37}",0.7,0,0.7181389331817627,1,"(0, 3)",37,1,False,0.0,1,0,0,1.0,False,True,0.7,0.7,1.0,-0.3310922283995208,1,0.0,False,0.994664678190212,False,False,024
36,0,"{'mean': 0.3, 'sd': 0.37}",-0.3,1,0.804224967956543,1,"(1, 3)",38,1,False,0.0,1,0,0,0.0,False,True,-0.3,0.3,-1.0,-0.21787623805171452,1,0.0,False,0.6764305134067772,False,False,024
37,0,"{'mean': 0.3, 'sd': 0.37}",0.1,1,0.5981848239898682,1,"(1, 2)",39,1,True,0.0,1,0,0,0.0,False,True,0.1,0.1,1.0,-0.5138555025666951,1,0.0,False,0.7469610530647205,False,False,024
38,0,"{'mean': 0.3, 'sd': 0.37}",-0.1,0,1.2878539562225342,1,"(0, 2)",40,1,False,0.0,1,0,0,0.0,False,True,-0.1,0.1,-1.0,0.2529772332272709,1,0.0,False,0.596665889686976,False,False,024
39,0,"{'mean': 0.3, 'sd': 0.37}",0.5,0,0.8032958507537842,1,"(0, 2)",41,1,True,0.0,1,0,0,0.0,False,True,0.5,0.5,1.0,-0.21903220106681912,1,0.0,False,0.935482334965591,False,False,024
40,1,"{'mean': 0.3, 'sd': 0.37}",0.1,2,0.600459098815918,1,"(0, 2)",42,1,False,0.0,0,1,1,1.0,True,True,0.1,0.1,1.0,-0.5100607516620548,1,0.0,True,0.9016149978867805,False,True,024
41,0,"{'mean': 0.3, 'sd': 0.37}",0.5,0,0.8552050590515137,1,"(0, 3)",43,1,False,0.0,1,0,0,1.0,False,True,0.5,0.5,1.0,-0.15641400365325905,1,0.0,False,0.9797572833446138,False,False,024
42,0,"{'mean': 0.3, 'sd': 0.37}",0.3,1,0.5756800174713135,1,"(0, 3)",44,1,False,0.0,0,0,0,0.0,False,False,0.3,0.3,1.0,-0.5522032978709672,1,0.0,False,0.9693078288268423,False,False,024
43,1,"{'mean': 0.3, 'sd': 0.37}",0.5,3,0.4503450393676758,1,"(0, 3)",45,1,False,0.0,0,1,1,1.0,True,True,0.5,0.5,1.0,-0.7977412358731696,1,0.0,True,0.9866014339066089,False,True,024
44,0,"{'mean': 0.3, 'sd': 0.37}",0.1,1,1.0136170387268066,1,"(1, 2)",46,1,False,0.0,1,0,0,1.0,False,True,0.1,0.1,1.0,0.01352515999282383,1,0.0,False,0.9290052173427668,False,False,024
45,1,"{'mean': 0.3, 'sd': 0.37}",0.1,2,0.7091958522796631,1,"(1, 2)",47,1,False,0.0,0,1,1,1.0,True,True,0.1,0.1,1.0,-0.3436235532486181,1,0.0,True,0.8980771488661413,False,True,024
46,1,"{'mean': 0.3, 'sd': 0.37}",0.5,3,1.105315923690796,1,"(0, 3)",48,1,False,0.0,0,1,1,0.0,True,True,0.5,0.5,1.0,0.10013119789959066,1,0.0,True,0.9793775468016733,False,True,024
47,1,"{'mean': 0.3, 'sd': 0.37}",0.7,3,0.672868013381958,1,"(0, 3)",49,1,True,0.0,0,1,1,0.0,True,True,0.7,0.7,1.0,-0.39620608538812563,1,0.0,True,0.9949732097629351,False,True,024
48,0,"{'mean': 0.3, 'sd': 0.37}",0.7,1,1.2490739822387695,1,"(1, 2)",50,1,False,0.0,1,0,0,1.0,False,True,0.7,0.7,1.0,0.2224024625667829,1,0.0,False,0.9955617697478036,False,False,024
49,0,"{'mean': 0.3, 'sd': 0.37}",0.3,0,1.1978111267089844,1,"(1, 3)",51,1,False,0.0,0,0,0,0.0,False,False,0.3,0.3,1.0,0.18049583009292786,1,0.0,False,0.9728738048044802,False,False,024
50,1,"{'mean': 0.3, 'sd': 0.37}",0.1,2,0.9846739768981934,1,"(0, 2)",52,1,False,0.0,0,1,1,1.0,True,True,0.1,0.1,1.0,-0.015444680519255755,1,0.0,True,0.9217410858547107,False,True,024
51,0,"{'mean': 0.3, 'sd': 0.37}",0.5,3,1.236983060836792,1,"(1, 2)",53,1,False,0.0,0,0,1,0.0,False,False,0.5,0.5,1.0,0.21267539957107084,1,0.0,True,0.9818741950194297,False,True,024
52,1,"{'mean': 0.3, 'sd': 0.37}",0.3,2,1.2244770526885986,1,"(0, 2)",54,1,False,0.0,0,1,1,0.0,True,True,0.3,0.3,1.0,0.2025138570863434,1,0.0,True,0.9697898284533341,False,True,024
53,1,"{'mean': 0.3, 'sd': 0.37}",0.7,2,0.5942330360412598,1,"(0, 2)",55,1,True,0.0,0,1,1,0.0,True,True,0.7,0.7,1.0,-0.5204837199877379,1,0.0,True,0.9946034351284838,False,True,024
54,0,"{'mean': 0.3, 'sd': 0.37}",0.7,0,1.0777900218963623,1,"(1, 3)",56,1,False,0.0,0,0,0,1.0,False,False,0.7,0.7,1.0,0.07491266863098553,1,0.0,False,0.9955479963098193,False,False,024
55,1,"{'mean': 0.3, 'sd': 0.37}",0.3,2,0.6659400463104248,1,"(0, 2)",57,1,False,0.0,0,1,1,1.0,True,True,0.3,0.3,1.0,-0.40655563304875897,1,0.0,True,0.9728707295227449,False,True,024
56,1,"{'mean': -0.3, 'sd': 0.37}",-0.7,1,0.9704060554504395,0,"(1, 2)",58,0,False,1.0,1,0,0,1.0,True,True,-0.7,0.7,-1.0,-0.030040681212616088,0,1.0,True,0.2017530534331356,True,True,024
57,0,"{'mean': -0.3, 'sd': 0.37}",0.3,2,0.9937520027160645,0,"(0, 2)",59,0,False,0.0,0,1,1,1.0,False,True,0.3,0.3,1.0,-0.006267597703863163,1,0.0,False,0.6000993138715722,True,True,024
58,1,"{'mean': -0.3, 'sd': 0.37}",0.3,1,1.056931972503662,0,"(1, 2)",60,0,False,0.0,1,0,0,1.0,True,True,0.3,0.3,1.0,0.05537034578542914,1,0.0,True,0.8533408361024576,False,False,024
59,0,"{'mean': -0.3, 'sd': 0.37}",-0.3,2,0.9192888736724854,0,"(0, 2)",61,0,False,0.0,0,1,1,1.0,False,True,-0.3,0.3,-1.0,-0.0841548712287627,0,0.0,False,0.4697499199533476,True,False,024
60,0,"{'mean': -0.3, 'sd': 0.37}",-0.1,3,0.8563499450683594,0,"(1, 3)",62,0,False,0.0,0,1,1,0.0,False,True,-0.1,0.1,-1.0,-0.15507617205001056,0,0.0,False,0.3689660028189782,False,False,024
61,0,"{'mean': -0.3, 'sd': 0.37}",-0.5,0,0.8499178886413574,0,"(1, 3)",63,0,False,0.0,0,0,0,1.0,False,False,-0.5,0.5,-1.0,-0.16261553576241286,0,0.0,True,0.05815393679256388,False,True,024
62,0,"{'mean': -0.3, 'sd': 0.37}",0.5,2,0.7599120140075684,0,"(0, 2)",64,0,False,0.0,0,1,1,1.0,False,True,0.5,0.5,1.0,-0.27455262344641795,1,0.0,False,0.648721522081718,True,True,024
63,0,"{'mean': -0.3, 'sd': 0.37}",0.3,3,1.1176269054412842,0,"(1, 3)",65,0,False,0.0,0,1,1,0.0,False,True,0.3,0.3,1.0,0.11120760297405854,1,0.0,False,0.872407306553711,False,True,024
64,0,"{'mean': -0.3, 'sd': 0.37}",-0.5,3,0.9189038276672363,0,"(1, 3)",66,0,True,0.0,0,1,1,0.0,False,True,-0.5,0.5,-1.0,-0.08457381099563266,0,0.0,False,0.2698434749684682,True,False,024
65,1,"{'mean': -0.3, 'sd': 0.37}",0.1,0,0.7145969867706299,0,"(0, 3)",67,0,False,0.0,1,0,0,1.0,True,True,0.1,0.1,1.0,-0.336036550067503,0,0.0,True,0.43426920401664193,False,True,024
66,0,"{'mean': -0.3, 'sd': 0.37}",-0.9,2,0.7061038017272949,0,"(0, 2)",68,0,False,0.0,0,1,1,1.0,False,True,-0.9,0.9,-1.0,-0.34799302435409946,0,0.0,False,0.010631287588706738,False,False,024
67,1,"{'mean': -0.3, 'sd': 0.37}",-0.3,0,0.6429500579833984,0,"(0, 3)",69,0,False,0.0,1,0,0,1.0,True,True,-0.3,0.3,-1.0,-0.44168822808232205,0,0.0,True,0.02975653089873299,False,True,024
68,1,"{'mean': -0.3, 'sd': 0.37}",-0.7,1,0.7339520454406738,0,"(1, 2)",70,0,False,0.0,1,0,0,0.0,True,True,-0.7,0.7,-1.0,-0.30931158568901995,0,0.0,True,0.005071048300205563,False,True,024
69,0,"{'mean': -0.3, 'sd': 0.37}",-0.5,2,0.4964101314544678,0,"(0, 3)",72,0,False,0.0,0,0,1,1.0,False,False,-0.5,0.5,-1.0,-0.7003528160000363,0,0.0,False,0.011029865697471795,False,False,024
70,1,"{'mean': -0.3, 'sd': 0.37}",-0.3,0,0.8426840305328369,0,"(0, 2)",73,0,False,0.0,1,0,0,1.0,True,True,-0.3,0.3,-1.0,-0.17116320674195512,0,0.0,True,0.02985006847007157,False,True,024
71,1,"{'mean': -0.3, 'sd': 0.37}",-0.3,0,0.6043081283569336,0,"(0, 2)",74,0,True,0.0,1,0,0,0.0,True,True,-0.3,0.3,-1.0,-0.5036710648413868,0,0.0,True,0.034322928638144894,False,True,024
72,1,"{'mean': -0.3, 'sd': 0.37}",-0.1,1,0.7461740970611572,0,"(1, 3)",75,0,False,0.0,1,0,0,0.0,True,True,-0.1,0.1,-1.0,-0.2927963319292517,0,0.0,True,0.08709029430513578,False,True,024
73,1,"{'mean': -0.3, 'sd': 0.37}",0.1,1,0.8464322090148926,0,"(1, 3)",76,0,True,0.0,1,0,0,0.0,True,True,0.1,0.1,1.0,-0.16672516447301572,0,0.0,True,0.25477301188869816,False,True,024
74,1,"{'mean': 0.3, 'sd': 0.37}",0.3,2,0.8721919059753418,1,"(0, 2)",77,1,False,1.0,0,1,1,1.0,True,True,0.3,0.3,1.0,-0.13674580362645739,1,0.0,False,0.648872730034503,True,True,024
75,0,"{'mean': 0.3, 'sd': 0.37}",0.1,0,0.9426448345184326,1,"(0, 3)",78,1,False,0.0,1,0,0,1.0,False,True,0.1,0.1,1.0,-0.05906570088949846,1,1.0,False,0.7287552061073446,False,False,024
76,0,"{'mean': 0.3, 'sd': 0.37}",0.5,2,0.6538510322570801,1,"(0, 3)",79,1,False,0.0,0,0,1,1.0,False,False,0.5,0.5,1.0,-0.4248757328940362,1,0.0,True,0.9580196085120596,False,True,024
77,0,"{'mean': 0.3, 'sd': 0.37}",0.1,1,1.20918607711792,1,"(1, 3)",80,1,False,0.0,1,0,0,1.0,False,True,0.1,0.1,1.0,0.1899474697301163,1,0.0,False,0.9138058738602689,False,False,024
78,0,"{'mean': 0.3, 'sd': 0.37}",-0.1,0,1.0439388751983643,1,"(0, 3)",81,1,False,0.0,1,0,0,0.0,False,True,-0.1,0.1,-1.0,0.04300093908583661,1,0.0,False,0.7582119656449622,False,False,024
79,0,"{'mean': 0.3, 'sd': 0.37}",0.7,1,0.9171769618988037,1,"(1, 3)",82,1,False,0.0,1,0,0,0.0,False,True,0.7,0.7,1.0,-0.08645484617385107,1,0.0,False,0.984513375273455,False,False,024
80,0,"{'mean': 0.3, 'sd': 0.37}",0.9,1,0.7900328636169434,1,"(1, 2)",83,1,True,0.0,1,0,0,0.0,False,True,0.9,0.9,1.0,-0.23568073487118754,1,0.0,False,0.9980373033820839,False,False,024
81,1,"{'mean': 0.3, 'sd': 0.37}",0.1,2,0.6300568580627441,1,"(0, 2)",84,1,False,0.0,0,1,1,1.0,True,True,0.1,0.1,1.0,-0.46194521277568085,1,0.0,True,0.9350065098614148,False,True,024
82,1,"{'mean': 0.3, 'sd': 0.37}",0.3,2,0.6162159442901611,1,"(0, 2)",85,1,True,0.0,0,1,1,0.0,True,True,0.3,0.3,1.0,-0.4841578179674372,1,0.0,True,0.9587898086644894,False,True,024
83,1,"{'mean': 0.3, 'sd': 0.37}",0.1,3,0.8477959632873535,1,"(0, 3)",86,1,False,0.0,0,1,1,0.0,True,True,0.1,0.1,1.0,-0.16511528147225413,1,0.0,True,0.9142192525777708,False,True,024
84,0,"{'mean': 0.3, 'sd': 0.37}",-0.1,1,0.9981999397277832,1,"(1, 3)",87,1,False,0.0,1,0,0,1.0,False,True,-0.1,0.1,-1.0,-0.001801682327532429,1,0.0,False,0.7586391726383497,False,False,024
85,1,"{'mean': -0.3, 'sd': 0.37}",-0.1,0,0.862191915512085,0,"(0, 2)",88,0,False,1.0,1,0,0,0.0,True,True,-0.1,0.1,-1.0,-0.14827739329380438,1,0.0,False,0.6073082979023775,False,False,024
86,0,"{'mean': -0.3, 'sd': 0.37}",-0.9,1,1.1242470741271973,0,"(0, 3)",89,0,False,0.0,0,0,0,0.0,False,False,-0.9,0.9,-1.0,0.11711354415446132,0,1.0,True,0.018383899191046105,True,True,024
87,1,"{'mean': -0.3, 'sd': 0.37}",0.1,1,1.1857948303222656,0,"(1, 3)",90,0,True,0.0,1,0,0,0.0,True,True,0.1,0.1,1.0,0.1704132926276091,0,0.0,True,0.1790459339843924,False,True,024
88,1,"{'mean': -0.3, 'sd': 0.37}",-0.1,0,1.1364660263061523,0,"(0, 2)",91,0,False,0.0,1,0,0,0.0,True,True,-0.1,0.1,-1.0,0.12792347060025402,0,0.0,True,0.17231563834630081,False,True,024
89,0,"{'mean': 0.3, 'sd': 0.37}",0.7,0,0.7946269512176514,1,"(0, 2)",92,1,True,1.0,1,0,0,0.0,False,True,0.7,0.7,1.0,-0.22988251820848918,1,1.0,False,0.8927588221562841,True,False,024
90,0,"{'mean': 0.3, 'sd': 0.37}",0.1,3,0.8833041191101074,1,"(1, 2)",93,1,False,0.0,0,0,1,1.0,False,False,0.1,0.1,1.0,-0.1240857219224316,1,0.0,True,0.877990658568737,False,True,024
91,0,"{'mean': 0.3, 'sd': 0.37}",-0.1,1,0.8663170337677002,1,"(0, 3)",94,1,False,0.0,0,0,0,1.0,False,False,-0.1,0.1,-1.0,-0.14350434761318345,1,0.0,False,0.7217308536633056,False,False,024
92,0,"{'mean': 0.3, 'sd': 0.37}",-0.1,0,0.8447339534759521,1,"(0, 2)",95,1,False,0.0,1,0,0,0.0,False,True,-0.1,0.1,-1.0,-0.16873354915744043,1,0.0,False,0.5739904406624173,False,False,024
93,1,"{'mean': 0.3, 'sd': 0.37}",0.1,2,0.6331601142883301,1,"(0, 2)",96,1,False,0.0,0,1,1,1.0,True,True,0.1,0.1,1.0,-0.4570319436599564,1,0.0,True,0.6773458235122732,False,True,024
94,0,"{'mean': 0.3, 'sd': 0.37}",0.3,1,0.6634690761566162,1,"(1, 3)",97,1,False,0.0,1,0,0,1.0,False,True,0.3,0.3,1.0,-0.4102730334450554,1,0.0,False,0.8829063898012901,False,False,024
95,0,"{'mean': 0.3, 'sd': 0.37}",-0.1,0,0.790848970413208,1,"(0, 3)",98,1,False,0.0,1,0,0,0.0,False,True,-0.1,0.1,-1.0,-0.23464826444715678,1,0.0,False,0.7266764570678672,False,False,024
96,1,"{'mean': 0.3, 'sd': 0.37}",0.1,3,0.6084630489349365,1,"(0, 3)",99,1,False,0.0,0,1,1,1.0,True,True,0.1,0.1,1.0,-0.4968190932382572,1,0.0,True,0.7792220652264674,False,True,024
97,1,"{'mean': 0.3, 'sd': 0.37}",0.7,3,0.5720319747924805,1,"(0, 3)",100,1,True,0.0,0,1,1,0.0,True,True,0.7,0.7,1.0,-0.5585603891778312,1,0.0,True,0.985715050082787,False,True,024
98,1,"{'mean': 0.3, 'sd': 0.37}",0.3,3,0.6197850704193115,1,"(0, 3)",101,1,True,0.0,0,1,1,0.0,True,True,0.3,0.3,1.0,-0.47838252165769424,1,0.0,True,0.9706608873161267,False,True,024
99,1,"{'mean': 0.3, 'sd': 0.37}",0.9,3,0.4933140277862549,1,"(0, 3)",102,1,True,0.0,0,1,1,0.0,True,True,0.9,0.9,1.0,-0.7066093345234962,1,0.0,True,0.9978206932737237,False,True,024
100,0,"{'mean': 0.3, 'sd': 0.37}",-0.3,1,0.7023351192474365,1,"(1, 3)",103,1,False,0.0,1,0,0,1.0,False,True,-0.3,0.3,-1.0,-0.3533446110195282,1,0.0,False,0.6822736565593,False,False,024
101,1,"{'mean': 0.3, 'sd': 0.37}",0.5,2,0.8284740447998047,1,"(0, 2)",104,1,False,0.0,0,1,1,1.0,True,True,0.5,0.5,1.0,-0.1881697705485494,1,0.0,True,0.9508109014487792,False,True,024
102,0,"{'mean': 0.3, 'sd': 0.37}",0.7,1,1.3785829544067383,1,"(1, 3)",105,1,False,0.0,1,0,0,1.0,False,True,0.7,0.7,1.0,0.3210561269701818,1,0.0,False,0.9938529222317122,False,False,024
103,0,"{'mean': 0.3, 'sd': 0.37}",0.3,0,0.8651089668273926,1,"(1, 3)",106,1,False,0.0,0,0,0,0.0,False,False,0.3,0.3,1.0,-0.14489980677335787,1,0.0,False,0.9724918318687551,False,False,024
104,0,"{'mean': -0.3, 'sd': 0.37}",0.3,3,0.6294858455657959,0,"(1, 3)",107,0,False,1.0,0,1,1,1.0,False,True,0.3,0.3,1.0,-0.4628519109518085,1,0.0,True,0.9676431431779056,False,True,024
105,0,"{'mean': -0.3, 'sd': 0.37}",0.1,3,1.0463569164276123,0,"(1, 2)",108,0,True,0.0,0,0,1,0.0,False,False,0.1,0.1,1.0,0.045314527734410553,1,1.0,False,0.918955772818972,False,True,024
106,1,"{'mean': -0.3, 'sd': 0.37}",-0.3,1,0.7596721649169922,0,"(1, 3)",109,0,False,0.0,1,0,0,1.0,True,True,-0.3,0.3,-1.0,-0.2748683007164165,1,0.0,True,0.5540307735334127,False,False,024
107,1,"{'mean': -0.3, 'sd': 0.37}",-0.5,0,1.3694519996643066,0,"(0, 2)",110,0,False,0.0,1,0,0,0.0,True,True,-0.5,0.5,-1.0,0.3144106595735641,0,0.0,True,0.10079759518624982,True,True,024
108,0,"{'mean': 0.3, 'sd': 0.37}",0.7,0,0.6495780944824219,1,"(0, 2)",111,1,True,1.0,1,0,0,0.0,False,True,0.7,0.7,1.0,-0.43143221225124895,1,1.0,False,0.8550404060791749,True,False,024
109,0,"{'mean': 0.3, 'sd': 0.37}",0.3,0,0.9583969116210938,1,"(1, 2)",112,1,True,0.0,0,0,0,0.0,False,False,0.3,0.3,1.0,-0.042493274058225006,1,0.0,False,0.9382874531278821,False,False,024
110,1,"{'mean': 0.3, 'sd': 0.37}",0.5,3,1.0087990760803223,1,"(0, 3)",113,1,False,0.0,0,1,1,1.0,True,True,0.5,0.5,1.0,0.008760589808044573,1,0.0,True,0.9835612318112039,False,True,024
111,0,"{'mean': 0.3, 'sd': 0.37}",0.1,0,0.9925689697265625,1,"(0, 2)",114,1,False,0.0,1,0,0,1.0,False,True,0.1,0.1,1.0,-0.007458777926797581,1,0.0,False,0.9274021468527776,False,False,024
112,1,"{'mean': 0.3, 'sd': 0.37}",0.5,3,1.110835075378418,1,"(0, 3)",115,1,False,0.0,0,1,1,1.0,True,True,0.5,0.5,1.0,0.10511205263402165,1,0.0,True,0.9824566863892078,False,True,024
113,1,"{'mean': 0.3, 'sd': 0.37}",1.0,2,0.6202630996704102,1,"(0, 2)",116,1,False,0.0,0,1,1,0.0,True,True,1.0,1.0,1.0,-0.47761153664871164,1,0.0,True,0.9987247229916063,False,True,024
114,1,"{'mean': 0.3, 'sd': 0.37}",0.1,2,0.7842268943786621,1,"(0, 2)",117,1,True,0.0,0,1,1,0.0,True,True,0.1,0.1,1.0,-0.24305689440636283,1,0.0,True,0.935365813163521,False,True,024
115,1,"{'mean': 0.3, 'sd': 0.37}",0.3,3,0.5833230018615723,1,"(0, 3)",118,1,False,0.0,0,1,1,0.0,True,True,0.3,0.3,1.0,-0.5390142119839778,1,0.0,True,0.9588768375180593,False,True,024
116,1,"{'mean': 0.3, 'sd': 0.37}",0.3,2,0.7986900806427002,1,"(0, 2)",119,1,False,0.0,0,1,1,0.0,True,True,0.3,0.3,1.0,-0.2247822925140291,1,0.0,True,0.9644795165086073,False,True,024
117,0,"{'mean': 0.3, 'sd': 0.37}",-0.1,0,1.1781938076019287,1,"(1, 3)",120,1,False,0.0,0,0,0,1.0,False,False,-0.1,0.1,-1.0,0.1639825942793216,1,0.0,False,0.811662472452183,False,False,024
118,0,"{'mean': -0.3, 'sd': 0.37}",-0.1,1,1.1781258583068848,0,"(0, 3)",121,0,False,1.0,0,0,0,0.0,False,False,-0.1,0.1,-1.0,0.16392492019032096,1,0.0,False,0.6568380358693722,False,False,024
119,0,"{'mean': -0.3, 'sd': 0.37}",0.1,3,0.7555420398712158,0,"(1, 3)",122,0,False,0.0,0,1,1,1.0,False,True,0.1,0.1,1.0,-0.2803198537199016,1,1.0,False,0.7340556614433722,False,True,024
120,0,"{'mean': -0.3, 'sd': 0.37}",-0.3,2,0.5454940795898438,0,"(1, 2)",123,0,False,0.0,0,1,1,0.0,False,True,-0.3,0.3,-1.0,-0.6060633269487624,0,0.0,False,0.3516371464061049,True,False,024
121,1,"{'mean': 0.3, 'sd': 0.37}",0.3,3,1.0705640316009521,1,"(0, 3)",124,1,False,1.0,0,1,1,0.0,True,True,0.3,0.3,1.0,0.06818564192570792,1,0.0,False,0.7226168759493521,True,True,024
122,0,"{'mean': 0.3, 'sd': 0.37}",-0.3,0,0.9896180629730225,1,"(0, 3)",125,1,False,0.0,1,0,0,1.0,False,True,-0.3,0.3,-1.0,-0.010436205268274297,0,1.0,False,0.34211990726284885,True,True,024
123,1,"{'mean': 0.3, 'sd': 0.37}",0.7,2,0.9167881011962891,1,"(1, 2)",126,1,False,0.0,0,1,1,1.0,True,True,0.7,0.7,1.0,-0.08687891173122418,1,0.0,True,0.9406712767387155,True,True,024
124,1,"{'mean': -0.3, 'sd': 0.37}",-1.0,0,1.042349100112915,0,"(0, 2)",127,0,False,1.0,1,0,0,1.0,True,True,-1.0,1.0,-1.0,0.04147691612067614,0,1.0,True,0.04405742714291326,True,True,024
125,0,"{'mean': -0.3, 'sd': 0.37}",0.1,2,0.8485989570617676,0,"(0, 2)",128,0,False,0.0,0,1,1,1.0,False,True,0.1,0.1,1.0,-0.16416857522507602,0,0.0,False,0.207927266107162,False,False,024
126,0,"{'mean': -0.3, 'sd': 0.37}",-0.1,2,0.6248891353607178,0,"(1, 2)",129,0,True,0.0,0,1,1,0.0,False,True,-0.1,0.1,-1.0,-0.47018102840288717,0,0.0,False,0.1902491145404466,False,False,024
127,0,"{'mean': -0.3, 'sd': 0.37}",-0.5,3,1.1870310306549072,0,"(1, 3)",130,0,False,0.0,0,1,1,0.0,False,True,-0.5,0.5,-1.0,0.17145525737084294,0,0.0,False,0.030998008099321652,False,False,024
128,0,"{'mean': -0.3, 'sd': 0.37}",-0.5,1,0.8655169010162354,0,"(0, 3)",131,0,False,0.0,0,0,0,1.0,False,False,-0.5,0.5,-1.0,-0.14442837709698744,0,0.0,True,0.0134628855091234,False,True,024
129,1,"{'mean': -0.3, 'sd': 0.37}",-0.5,0,1.097593069076538,0,"(0, 2)",132,0,False,0.0,1,0,0,0.0,True,True,-0.5,0.5,-1.0,0.09311966335268974,0,0.0,True,0.011806274632961826,False,True,024
130,0,"{'mean': -0.3, 'sd': 0.37}",-0.5,0,0.5163521766662598,0,"(1, 2)",133,0,True,0.0,0,0,0,0.0,False,False,-0.5,0.5,-1.0,-0.660966233387486,0,0.0,True,0.011652177658176473,False,True,024
131,0,"{'mean': -0.3, 'sd': 0.37}",-0.1,0,0.8889119625091553,0,"(1, 2)",134,0,True,0.0,0,0,0,0.0,False,False,-0.1,0.1,-1.0,-0.11775707817048223,0,0.0,True,0.07439981360456123,False,True,024
132,1,"{'mean': -0.3, 'sd': 0.37}",-0.7,0,1.220059871673584,0,"(0, 3)",135,0,True,0.0,1,0,0,0.0,True,True,-0.7,0.7,-1.0,0.19889993268330175,0,0.0,True,0.006773487733577036,False,True,024
133,1,"{'mean': -0.3, 'sd': 0.37}",-1.0,0,0.8111081123352051,0,"(0, 2)",136,0,True,0.0,1,0,0,0.0,True,True,-1.0,1.0,-1.0,-0.20935392630968835,0,0.0,True,0.0009665417817064184,False,True,024
134,1,"{'mean': -0.3, 'sd': 0.37}",-0.7,0,0.7491121292114258,0,"(0, 3)",137,0,True,0.0,1,0,0,0.0,True,True,-0.7,0.7,-1.0,-0.2888666014474288,0,0.0,True,0.004041895880914146,False,True,024
135,0,"{'mean': -0.3, 'sd': 0.37}",0.1,2,0.661370038986206,0,"(0, 2)",138,0,False,0.0,0,1,1,1.0,False,True,0.1,0.1,1.0,-0.4134417788463319,0,0.0,False,0.16259605451965667,False,False,024
136,0,"{'mean': 0.3, 'sd': 0.37}",0.1,0,0.7320089340209961,1,"(0, 2)",139,1,False,1.0,1,0,0,1.0,False,True,0.1,0.1,1.0,-0.31196256014858925,0,0.0,True,0.33254462192437456,False,True,024
137,1,"{'mean': 0.3, 'sd': 0.37}",0.5,3,1.0434739589691162,1,"(0, 3)",140,1,False,0.0,0,1,1,1.0,True,True,0.5,0.5,1.0,0.0425554917557008,1,1.0,True,0.8601836452765971,True,True,024
138,0,"{'mean': -0.3, 'sd': 0.37}",-0.1,2,0.6466989517211914,0,"(0, 2)",141,0,False,1.0,0,1,1,0.0,False,True,-0.1,0.1,-1.0,-0.43587439149705276,1,0.0,True,0.7039760578325598,False,True,024
139,0,"{'mean': -0.3, 'sd': 0.37}",-0.3,0,0.8080298900604248,0,"(1, 2)",142,0,False,0.0,0,0,0,1.0,False,False,-0.3,0.3,-1.0,-0.21315622849621224,0,1.0,True,0.32716779602556195,True,True,024
140,0,"{'mean': -0.3, 'sd': 0.37}",-0.1,2,0.6434071063995361,0,"(1, 2)",143,0,False,0.0,0,1,1,1.0,False,True,-0.1,0.1,-1.0,-0.44097761916587896,0,0.0,False,0.2678616793949465,False,False,024
141,1,"{'mean': -0.3, 'sd': 0.37}",-0.9,0,1.37152099609375,0,"(0, 3)",144,0,False,0.0,1,0,0,1.0,True,True,-0.9,0.9,-1.0,0.3159203401326981,0,0.0,True,0.006062569357351319,False,True,024
142,1,"{'mean': -0.3, 'sd': 0.37}",-0.3,1,1.1709251403808594,0,"(1, 3)",145,0,False,0.0,1,0,0,0.0,True,True,-0.3,0.3,-1.0,0.15779415463090626,0,0.0,True,0.028687822221613344,False,True,024
143,1,"{'mean': -0.3, 'sd': 0.37}",-0.5,0,0.7804141044616699,0,"(0, 3)",146,0,False,0.0,1,0,0,0.0,True,True,-0.5,0.5,-1.0,-0.24793059702173312,0,0.0,True,0.013241931159712015,False,True,024
144,0,"{'mean': -0.3, 'sd': 0.37}",0.3,3,0.9128179550170898,0,"(0, 3)",147,0,False,0.0,0,1,1,1.0,False,True,0.3,0.3,1.0,-0.09121881036360706,0,0.0,False,0.3478087495191348,False,False,024
145,1,"{'mean': 0.3, 'sd': 0.37}",0.3,2,0.9324150085449219,1,"(1, 2)",148,1,False,1.0,0,1,1,0.0,True,True,0.3,0.3,1.0,-0.06997727526955977,1,0.0,False,0.7200155357745948,True,True,024
146,1,"{'mean': 0.3, 'sd': 0.37}",0.5,2,0.5242950916290283,1,"(1, 2)",149,1,True,0.0,0,1,1,0.0,True,True,0.5,0.5,1.0,-0.64570060120786,1,1.0,True,0.9567164995572923,False,True,024
147,1,"{'mean': 0.3, 'sd': 0.37}",0.1,3,0.9532961845397949,1,"(0, 3)",150,1,False,0.0,0,1,1,0.0,True,True,0.1,0.1,1.0,-0.04782963186154148,1,0.0,True,0.9131059905412131,False,True,024
148,0,"{'mean': 0.3, 'sd': 0.37}",-0.1,1,1.2871198654174805,1,"(1, 2)",151,1,False,0.0,1,0,0,1.0,False,True,-0.1,0.1,-1.0,0.25240705979966394,1,0.0,False,0.757488994034754,False,False,024
149,1,"{'mean': 0.3, 'sd': 0.37}",0.3,2,0.6471729278564453,1,"(1, 2)",152,1,False,0.0,0,1,1,1.0,True,True,0.3,0.3,1.0,-0.43514174375358367,1,0.0,True,0.9097948519604137,False,True,024
150,1,"{'mean': 0.3, 'sd': 0.37}",0.1,2,0.8250629901885986,1,"(0, 2)",153,1,True,0.0,0,1,1,0.0,True,True,0.1,0.1,1.0,-0.19229554381834618,1,0.0,True,0.8874929225325613,False,True,024
151,0,"{'mean': 0.3, 'sd': 0.37}",-0.1,0,1.2389209270477295,1,"(1, 3)",154,1,False,0.0,0,0,0,1.0,False,False,-0.1,0.1,-1.0,0.21424078063280452,1,0.0,False,0.7313083293278471,False,False,024
152,1,"{'mean': 0.3, 'sd': 0.37}",0.3,2,0.857410192489624,1,"(0, 2)",156,1,False,0.0,0,1,1,1.0,True,True,0.3,0.3,1.0,-0.15383883721732491,1,0.0,True,0.9013905756408851,False,True,024
153,1,"{'mean': 0.3, 'sd': 0.37}",0.5,3,0.6839959621429443,1,"(1, 3)",157,1,False,0.0,0,1,1,0.0,True,True,0.5,0.5,1.0,-0.3798032646768001,1,0.0,True,0.9797332637277578,False,True,024
154,1,"{'mean': 0.3, 'sd': 0.37}",0.5,3,0.4581317901611328,1,"(1, 3)",158,1,True,0.0,0,1,1,0.0,True,True,0.5,0.5,1.0,-0.780598384816937,1,0.0,True,0.9875889821657626,False,True,024
155,0,"{'mean': 0.3, 'sd': 0.37}",-0.1,1,0.8273451328277588,1,"(0, 3)",159,1,False,0.0,0,0,0,1.0,False,False,-0.1,0.1,-1.0,-0.1895333399071081,1,0.0,False,0.8367845661289018,False,False,024
156,1,"{'mean': 0.3, 'sd': 0.37}",-0.3,2,0.8541910648345947,1,"(1, 2)",160,1,False,0.0,0,1,1,1.0,True,True,-0.3,0.3,-1.0,-0.15760038090272427,0,0.0,True,0.4509650693193907,True,False,024
157,1,"{'mean': 0.3, 'sd': 0.37}",0.5,3,0.7647759914398193,1,"(1, 3)",161,1,False,0.0,0,1,1,0.0,True,True,0.5,0.5,1.0,-0.2681723096835259,1,0.0,True,0.9008822979776929,True,True,024
158,1,"{'mean': 0.3, 'sd': 0.37}",-0.5,2,0.4027099609375,1,"(1, 2)",162,1,False,0.0,0,1,1,0.0,True,True,-0.5,0.5,-1.0,-0.9095386760507076,0,0.0,True,0.29963057834398676,True,False,024
159,0,"{'mean': 0.3, 'sd': 0.37}",0.1,0,0.90093994140625,1,"(0, 3)",163,1,False,0.0,1,0,0,1.0,False,True,0.1,0.1,1.0,-0.10431668130223756,0,0.0,False,0.46086733350246395,False,True,024
160,1,"{'mean': 0.3, 'sd': 0.37}",0.3,3,0.41005587577819824,1,"(1, 3)",164,1,False,0.0,0,1,1,1.0,True,True,0.3,0.3,1.0,-0.8914618461835349,1,0.0,True,0.7882627233264283,True,True,024
161,1,"{'mean': 0.3, 'sd': 0.37}",0.9,2,0.6205179691314697,1,"(0, 2)",165,1,False,0.0,0,1,1,0.0,True,True,0.9,0.9,1.0,-0.4772007156407956,1,0.0,True,0.9943701585260865,False,True,024
162,1,"{'mean': 0.3, 'sd': 0.37}",0.1,2,0.7814059257507324,1,"(1, 2)",166,1,True,0.0,0,1,1,0.0,True,True,0.1,0.1,1.0,-0.24666051288501692,1,0.0,True,0.9330870005407039,False,True,024
163,1,"{'mean': 0.3, 'sd': 0.37}",0.5,3,0.6587870121002197,1,"(0, 3)",167,1,False,0.0,0,1,1,0.0,True,True,0.5,0.5,1.0,-0.4173549953535255,1,0.0,True,0.9830360540465592,False,True,024
164,0,"{'mean': 0.3, 'sd': 0.37}",-0.3,0,1.1094169616699219,1,"(0, 3)",168,1,False,0.0,1,0,0,1.0,False,True,-0.3,0.3,-1.0,0.10383461757018451,1,0.0,False,0.6554713603008601,False,False,024
165,1,"{'mean': 0.3, 'sd': 0.37}",0.3,3,0.8492951393127441,1,"(1, 3)",169,1,False,0.0,0,1,1,1.0,True,True,0.3,0.3,1.0,-0.1633485213813438,1,0.0,True,0.8749292336458178,False,True,024
166,0,"{'mean': 0.3, 'sd': 0.37}",-0.3,2,0.4748110771179199,1,"(0, 3)",170,1,False,0.0,0,0,1,0.0,False,False,-0.3,0.3,-1.0,-0.7448382864473255,0,0.0,True,0.4956469156281448,True,False,024
167,1,"{'mean': 0.3, 'sd': 0.37}",0.9,3,0.6253509521484375,1,"(1, 3)",171,1,False,0.0,0,1,1,0.0,True,True,0.9,0.9,1.0,-0.4694422634035281,1,0.0,True,0.9847438028847681,True,True,024
168,0,"{'mean': 0.3, 'sd': 0.37}",0.1,0,0.5122029781341553,1,"(1, 3)",172,1,False,0.0,0,0,0,1.0,False,False,0.1,0.1,1.0,-0.6690342908365925,1,0.0,False,0.9280260886565191,False,False,024
169,1,"{'mean': 0.3, 'sd': 0.37}",0.5,3,0.41428303718566895,1,"(1, 3)",173,1,False,0.0,0,1,1,1.0,True,True,0.5,0.5,1.0,-0.8812058740493902,1,0.0,True,0.9825205462914077,False,True,024
170,1,"{'mean': 0.3, 'sd': 0.37}",0.7,3,0.5213580131530762,1,"(1, 3)",174,1,True,0.0,0,1,1,0.0,True,True,0.7,0.7,1.0,-0.6513183078577928,1,0.0,True,0.9950930964551794,False,True,024
171,0,"{'mean': -0.3, 'sd': 0.37}",-0.7,2,0.5622050762176514,0,"(1, 2)",175,0,False,1.0,0,1,1,0.0,False,True,-0.7,0.7,-1.0,-0.5758885913479581,0,1.0,False,0.23140323864226514,True,False,024
172,0,"{'mean': -0.3, 'sd': 0.37}",-0.5,3,0.8924069404602051,0,"(1, 3)",176,0,False,0.0,0,1,1,0.0,False,True,-0.5,0.5,-1.0,-0.11383303915659666,0,0.0,False,0.036413741348551514,False,False,024
173,0,"{'mean': -0.3, 'sd': 0.37}",-0.1,2,0.9587481021881104,0,"(0, 2)",177,0,False,0.0,0,1,1,0.0,False,True,-0.1,0.1,-1.0,-0.04212690576744345,0,0.0,False,0.08826929732978764,False,False,024
174,0,"{'mean': -0.3, 'sd': 0.37}",-0.1,3,0.9178638458251953,0,"(1, 3)",178,0,False,0.0,0,1,1,0.0,False,True,-0.1,0.1,-1.0,-0.08570621545612468,0,0.0,False,0.11798715001653476,False,False,024
175,0,"{'mean': -0.3, 'sd': 0.37}",0.3,3,0.9279310703277588,0,"(0, 3)",179,0,True,0.0,0,1,1,0.0,False,True,0.3,0.3,1.0,-0.0747978266187118,1,0.0,False,0.5064632049185027,True,True,024
176,0,"{'mean': -0.3, 'sd': 0.37}",-0.7,2,0.5645771026611328,0,"(1, 2)",180,0,False,0.0,0,1,1,0.0,False,True,-0.7,0.7,-1.0,-0.5716783189600918,0,0.0,False,0.035017441629805135,True,False,024
177,0,"{'mean': -0.3, 'sd': 0.37}",-1.0,3,0.9624388217926025,0,"(0, 3)",181,0,False,0.0,0,1,1,0.0,False,True,-1.0,1.0,-1.0,-0.03828477661425236,0,0.0,False,0.001199562732188305,False,False,024
178,0,"{'mean': -0.3, 'sd': 0.37}",-0.1,1,0.7306439876556396,0,"(0, 3)",182,0,False,0.0,0,0,0,1.0,False,False,-0.1,0.1,-1.0,-0.31382895885651785,0,0.0,True,0.06860578070365646,False,True,024
179,0,"{'mean': -0.3, 'sd': 0.37}",-0.1,2,0.74822998046875,0,"(0, 2)",183,0,False,0.0,0,1,1,1.0,False,True,-0.1,0.1,-1.0,-0.2900448877442401,0,0.0,False,0.10660923256959785,False,False,024
180,1,"{'mean': -0.3, 'sd': 0.37}",-0.7,0,0.9780340194702148,0,"(0, 3)",184,0,False,0.0,1,0,0,1.0,True,True,-0.7,0.7,-1.0,-0.022210824817923556,0,0.0,True,0.008090213637465126,False,True,024
181,1,"{'mean': -0.3, 'sd': 0.37}",-0.3,0,0.5293848514556885,0,"(0, 2)",185,0,True,0.0,1,0,0,0.0,True,True,-0.3,0.3,-1.0,-0.6360396041514521,0,0.0,True,0.029161339933561424,False,True,024
182,1,"{'mean': 0.3, 'sd': 0.37}",0.1,2,0.7066679000854492,1,"(1, 2)",186,1,False,1.0,0,1,1,1.0,True,True,0.1,0.1,1.0,-0.3471944545817742,0,0.0,False,0.19125726863766382,False,False,024
183,1,"{'mean': 0.3, 'sd': 0.37}",0.7,2,0.5438449382781982,1,"(0, 2)",187,1,True,0.0,0,1,1,0.0,True,True,0.7,0.7,1.0,-0.6090911126875791,1,1.0,True,0.9002937677459842,True,True,024
184,1,"{'mean': -0.3, 'sd': 0.37}",-0.7,0,0.934722900390625,0,"(0, 2)",188,0,False,1.0,1,0,0,1.0,True,True,-0.7,0.7,-1.0,-0.06750515683629017,0,1.0,True,0.138465458770766,True,True,024
185,0,"{'mean': -0.3, 'sd': 0.37}",-0.7,0,0.7861559391021729,0,"(1, 3)",189,0,True,0.0,0,0,0,0.0,False,False,-0.7,0.7,-1.0,-0.2406001104264843,0,0.0,True,0.009473075390465432,False,True,024
186,1,"{'mean': -0.3, 'sd': 0.37}",-0.5,1,0.5681569576263428,0,"(1, 3)",190,0,False,0.0,1,0,0,0.0,True,True,-0.5,0.5,-1.0,-0.5653575645849566,0,0.0,True,0.011435838158723155,False,True,024
187,1,"{'mean': -0.3, 'sd': 0.37}",-0.7,0,0.8692278861999512,0,"(0, 2)",191,0,False,0.0,1,0,0,0.0,True,True,-0.7,0.7,-1.0,-0.14014994850986043,0,0.0,True,0.004410242577949838,False,True,024
188,1,"{'mean': -0.3, 'sd': 0.37}",-0.9,0,0.7092101573944092,0,"(0, 3)",192,0,True,0.0,1,0,0,0.0,True,True,-0.9,0.9,-1.0,-0.34360338255750567,0,0.0,True,0.0015565930484408438,False,True,024
189,1,"{'mean': -0.3, 'sd': 0.37}",-0.1,0,0.561927080154419,0,"(0, 3)",193,0,True,0.0,1,0,0,0.0,True,True,-0.1,0.1,-1.0,-0.5763831881216981,0,0.0,True,0.0688030993618424,False,True,024
190,1,"{'mean': 0.3, 'sd': 0.37}",0.5,3,1.188215970993042,1,"(0, 3)",194,1,False,1.0,0,1,1,1.0,True,True,0.5,0.5,1.0,0.17245299818315593,1,0.0,False,0.6635512260021801,True,True,024
191,1,"{'mean': 0.3, 'sd': 0.37}",0.9,2,0.737727165222168,1,"(0, 2)",195,1,False,0.0,0,1,1,0.0,True,True,0.9,0.9,1.0,-0.30418121755655275,1,1.0,True,0.9911171754795034,False,True,024
192,0,"{'mean': 0.3, 'sd': 0.37}",-0.1,0,0.7135438919067383,1,"(0, 3)",196,1,False,0.0,1,0,0,1.0,False,True,-0.1,0.1,-1.0,-0.3375113276198935,1,0.0,False,0.8406624876979493,False,False,024
193,1,"{'mean': 0.3, 'sd': 0.37}",0.7,2,0.7424399852752686,1,"(1, 2)",197,1,False,0.0,0,1,1,1.0,True,True,0.7,0.7,1.0,-0.2978132394841303,1,0.0,True,0.9889443933716338,False,True,024
194,1,"{'mean': 0.3, 'sd': 0.37}",0.5,3,1.2055978775024414,1,"(1, 3)",198,1,False,0.0,0,1,1,0.0,True,True,0.5,0.5,1.0,0.18697560779645012,1,0.0,True,0.9884477654436529,False,True,024
195,1,"{'mean': 0.3, 'sd': 0.37}",0.1,2,0.7501161098480225,1,"(0, 2)",199,1,False,0.0,0,1,1,0.0,True,True,0.1,0.1,1.0,-0.2875272713034004,1,0.0,True,0.9299771998698577,False,True,024
196,0,"{'mean': 0.3, 'sd': 0.37}",-0.3,0,0.6785340309143066,1,"(0, 2)",200,1,False,0.0,1,0,0,1.0,False,True,-0.3,0.3,-1.0,-0.3878206448643154,1,0.0,False,0.5699630062538557,False,False,024
197,1,"{'mean': 0.3, 'sd': 0.37}",0.3,2,0.7766950130462646,1,"(1, 2)",201,1,False,0.0,0,1,1,1.0,True,True,0.3,0.3,1.0,-0.25270752427205656,1,0.0,True,0.8406676695971522,False,True,024
198,1,"{'mean': 0.3, 'sd': 0.37}",0.3,2,0.5230469703674316,1,"(0, 2)",202,1,True,0.0,0,1,1,0.0,True,True,0.3,0.3,1.0,-0.6480840094518884,1,0.0,True,0.9343465430059702,False,True,024
199,0,"{'mean': 0.3, 'sd': 0.37}",0.7,2,0.7048211097717285,1,"(1, 3)",203,1,True,0.0,0,0,1,0.0,False,False,0.7,0.7,1.0,-0.34981125337321944,1,0.0,True,0.9931810800191456,False,True,024
200,1,"{'mean': 0.3, 'sd': 0.37}",0.7,2,0.6368448734283447,1,"(1, 2)",204,1,True,0.0,0,1,1,0.0,True,True,0.7,0.7,1.0,-0.4512291798675267,1,0.0,True,0.9954949349997905,False,True,024
201,0,"{'mean': 0.3, 'sd': 0.37}",-0.5,0,0.4354100227355957,1,"(0, 2)",205,1,False,0.0,1,0,0,1.0,False,True,-0.5,0.5,-1.0,-0.8314671108426046,0,0.0,False,0.4449395593541439,True,True,024
202,0,"{'mean': 0.3, 'sd': 0.37}",0.3,2,0.5291099548339844,1,"(1, 3)",206,1,False,0.0,0,0,1,1.0,False,False,0.3,0.3,1.0,-0.6365590145939993,1,0.0,True,0.779618076766373,True,True,024
203,0,"{'mean': 0.3, 'sd': 0.37}",1.0,2,0.6033298969268799,1,"(0, 3)",207,1,True,0.0,0,0,1,0.0,False,False,1.0,1.0,1.0,-0.5052911391078999,1,0.0,True,0.9962690503043781,False,True,024
204,0,"{'mean': -0.3, 'sd': 0.37}",-0.5,1,0.9783439636230469,0,"(0, 3)",208,0,False,1.0,0,0,0,1.0,False,False,-0.5,0.5,-1.0,-0.021893969733575182,0,0.0,False,0.44656109672276095,True,True,024
205,1,"{'mean': -0.3, 'sd': 0.37}",-0.7,1,1.0957920551300049,0,"(1, 3)",209,0,True,0.0,1,0,0,0.0,True,True,-0.7,0.7,-1.0,0.09147743980387517,0,1.0,True,0.02909810883752458,False,True,024
206,1,"{'mean': -0.3, 'sd': 0.37}",-0.3,1,0.5721991062164307,0,"(1, 3)",210,0,True,0.0,1,0,0,0.0,True,True,-0.3,0.3,-1.0,-0.5582682603798765,0,0.0,True,0.034142080203018926,False,True,024
207,1,"{'mean': -0.3, 'sd': 0.37}",-0.7,0,0.6366219520568848,0,"(0, 2)",211,0,False,0.0,1,0,0,0.0,True,True,-0.7,0.7,-1.0,-0.45157928144736487,0,0.0,True,0.005232381088593847,False,True,024
208,0,"{'mean': -0.3, 'sd': 0.37}",0.3,2,0.6893599033355713,0,"(1, 2)",212,0,False,0.0,0,1,1,1.0,False,True,0.3,0.3,1.0,-0.37199178827407275,0,0.0,False,0.33306137070057296,False,False,024
209,1,"{'mean': -0.3, 'sd': 0.37}",-1.0,0,0.9931938648223877,0,"(0, 3)",213,0,False,0.0,1,0,0,1.0,True,True,-1.0,1.0,-1.0,-0.006829402549657363,0,0.0,True,0.004655430153757505,False,True,024
210,1,"{'mean': -0.3, 'sd': 0.37}",-0.7,0,0.7850639820098877,0,"(0, 2)",214,0,True,0.0,1,0,0,0.0,True,True,-0.7,0.7,-1.0,-0.24199005877606153,0,0.0,True,0.0041709313404203795,False,True,024
211,0,"{'mean': -0.3, 'sd': 0.37}",0.3,2,0.6456160545349121,0,"(1, 2)",215,0,False,0.0,0,1,1,1.0,False,True,0.3,0.3,1.0,-0.43755029471645934,0,0.0,False,0.3310730374297636,False,False,024
212,0,"{'mean': -0.3, 'sd': 0.37}",-0.1,3,0.8877220153808594,0,"(1, 3)",216,0,False,0.0,0,1,1,0.0,False,True,-0.1,0.1,-1.0,-0.11909663074128916,0,0.0,False,0.27050564018811574,False,False,024
213,1,"{'mean': -0.3, 'sd': 0.37}",-0.1,0,0.751000165939331,0,"(0, 2)",217,0,False,0.0,1,0,0,1.0,True,True,-0.1,0.1,-1.0,-0.2863494062601957,0,0.0,True,0.23024277030425572,False,True,024
214,1,"{'mean': -0.3, 'sd': 0.37}",-0.3,0,0.6298491954803467,0,"(0, 3)",218,0,True,0.0,1,0,0,0.0,True,True,-0.3,0.3,-1.0,-0.4622748605040873,0,0.0,True,0.08991357018971784,False,True,024
215,0,"{'mean': -0.3, 'sd': 0.37}",-0.1,2,0.8307840824127197,0,"(1, 2)",219,0,False,0.0,0,1,1,1.0,False,True,-0.1,0.1,-1.0,-0.18538534651288024,0,0.0,False,0.11894470590802753,False,False,024
216,0,"{'mean': -0.3, 'sd': 0.37}",-0.5,0,0.5831339359283447,0,"(1, 2)",220,0,False,0.0,0,0,0,1.0,False,False,-0.5,0.5,-1.0,-0.5393383832907068,0,0.0,True,0.022540699336028015,False,True,024
217,1,"{'mean': -0.3, 'sd': 0.37}",-0.3,0,0.6252760887145996,0,"(0, 2)",221,0,True,0.0,1,0,0,0.0,True,True,-0.3,0.3,-1.0,-0.4695619848416247,0,0.0,True,0.03257259585182271,False,True,024
218,0,"{'mean': -0.3, 'sd': 0.37}",-0.1,0,0.46884989738464355,0,"(1, 2)",222,0,True,0.0,0,0,0,0.0,False,False,-0.1,0.1,-1.0,-0.7574726099825958,0,0.0,True,0.08610441352751817,False,True,024
219,0,"{'mean': -0.3, 'sd': 0.37}",-0.7,0,1.25990891456604,0,"(1, 3)",223,0,True,0.0,0,0,0,0.0,False,False,-0.7,0.7,-1.0,0.23103942832338434,0,0.0,True,0.007242954382514816,False,True,024
220,1,"{'mean': -0.3, 'sd': 0.37}",-0.3,1,0.4546332359313965,0,"(1, 3)",224,0,False,0.0,1,0,0,0.0,True,True,-0.3,0.3,-1.0,-0.788264259960281,0,0.0,True,0.028963326397055178,False,True,024
221,0,"{'mean': -0.3, 'sd': 0.37}",0.1,2,0.7609817981719971,0,"(1, 3)",225,0,False,0.0,0,0,1,1.0,False,False,0.1,0.1,1.0,-0.2731458397087361,0,0.0,False,0.19103405763510523,False,False,024
222,1,"{'mean': -0.3, 'sd': 0.37}",-0.3,0,1.0903360843658447,0,"(0, 3)",226,0,False,0.0,1,0,0,1.0,True,True,-0.3,0.3,-1.0,0.08648598299639838,0,0.0,True,0.07773810066181668,False,True,024
223,1,"{'mean': -0.3, 'sd': 0.37}",-0.9,0,0.501338005065918,0,"(0, 2)",227,0,True,0.0,1,0,0,0.0,True,True,-0.9,0.9,-1.0,-0.6904747445683518,0,0.0,True,0.0025872467375235306,False,True,024
224,1,"{'mean': -0.3, 'sd': 0.37}",-0.7,1,0.7221341133117676,0,"(1, 3)",228,0,False,0.0,1,0,0,0.0,True,True,-0.7,0.7,-1.0,-0.3255444048297987,0,0.0,True,0.004098487227516492,False,True,024
225,0,"{'mean': -0.3, 'sd': 0.37}",0.5,2,0.5037000179290771,0,"(0, 2)",229,0,False,0.0,0,1,1,1.0,False,True,0.5,0.5,1.0,-0.6857743906357797,1,0.0,False,0.5548635622352808,True,True,024
226,1,"{'mean': -0.3, 'sd': 0.37}",-0.1,1,0.7598521709442139,0,"(1, 3)",231,0,False,0.0,1,0,0,1.0,True,True,-0.1,0.1,-1.0,-0.27463137653716446,0,0.0,True,0.4341537559370959,True,True,024
227,1,"{'mean': -0.3, 'sd': 0.37}",-0.5,1,0.5741279125213623,0,"(1, 3)",232,0,True,0.0,1,0,0,0.0,True,True,-0.5,0.5,-1.0,-0.5549030633747604,0,0.0,True,0.07099025176099259,False,True,024
228,0,"{'mean': -0.3, 'sd': 0.37}",-0.3,2,0.749737024307251,0,"(1, 2)",233,0,False,0.0,0,1,1,1.0,False,True,-0.3,0.3,-1.0,-0.288032768195344,0,0.0,False,0.044499219540128046,False,False,024
229,0,"{'mean': 0.3, 'sd': 0.37}",0.3,2,0.5558300018310547,1,"(1, 3)",234,1,True,1.0,0,0,1,0.0,False,False,0.3,0.3,1.0,-0.5872927835856783,0,0.0,False,0.40134117888390497,False,False,024
230,0,"{'mean': 0.3, 'sd': 0.37}",-0.1,1,0.6892919540405273,1,"(1, 3)",235,1,False,0.0,1,0,0,1.0,False,True,-0.1,0.1,-1.0,-0.37209036181130833,0,1.0,False,0.31925686761538946,False,True,024
231,1,"{'mean': 0.3, 'sd': 0.37}",0.5,3,0.6049051284790039,1,"(1, 3)",236,1,False,0.0,0,1,1,1.0,True,True,0.5,0.5,1.0,-0.5026836456790489,1,0.0,True,0.8545750041705049,True,True,024
232,1,"{'mean': 0.3, 'sd': 0.37}",0.7,3,0.743178129196167,1,"(1, 3)",237,1,True,0.0,0,1,1,0.0,True,True,0.7,0.7,1.0,-0.2968195198001147,1,0.0,True,0.9896222208237007,False,True,024
233,1,"{'mean': 0.3, 'sd': 0.37}",0.5,2,0.6682260036468506,1,"(1, 2)",238,1,False,0.0,0,1,1,0.0,True,True,0.5,0.5,1.0,-0.40312883385312764,1,0.0,True,0.988510460581192,False,True,024
234,0,"{'mean': 0.3, 'sd': 0.37}",-0.1,0,0.8040518760681152,1,"(1, 2)",239,1,False,0.0,0,0,0,1.0,False,False,-0.1,0.1,-1.0,-0.21809148941187576,1,0.0,False,0.8377962891973393,False,False,024
235,1,"{'mean': 0.3, 'sd': 0.37}",0.5,2,0.5943708419799805,1,"(0, 2)",240,1,False,0.0,0,1,1,1.0,True,True,0.5,0.5,1.0,-0.5202518413242296,1,0.0,True,0.972530456369069,False,True,024
236,0,"{'mean': -0.3, 'sd': 0.37}",0.1,2,0.8785140514373779,0,"(0, 2)",241,0,True,1.0,0,1,1,0.0,False,True,0.1,0.1,1.0,-0.12952337667655134,1,0.0,True,0.9215585503963556,False,True,024
237,1,"{'mean': -0.3, 'sd': 0.37}",-0.3,0,1.0148980617523193,0,"(0, 3)",242,0,False,0.0,1,0,0,1.0,True,True,-0.3,0.3,-1.0,0.014788175679028681,1,1.0,True,0.5577421363622606,False,False,024
238,0,"{'mean': -0.3, 'sd': 0.37}",-0.3,0,0.712244987487793,0,"(1, 3)",243,0,True,0.0,0,0,0,0.0,False,False,-0.3,0.3,-1.0,-0.33933334320305947,0,0.0,True,0.2295388660061861,True,True,024
239,1,"{'mean': -0.3, 'sd': 0.37}",-0.9,1,0.5474450588226318,0,"(1, 3)",244,0,False,0.0,1,0,0,0.0,True,True,-0.9,0.9,-1.0,-0.6024931715092049,0,0.0,True,0.0052458375165660275,False,True,024
240,1,"{'mean': 0.3, 'sd': 0.37}",-0.1,2,0.6610188484191895,1,"(0, 2)",245,1,False,1.0,0,1,1,1.0,True,True,-0.1,0.1,-1.0,-0.41397292453065776,0,0.0,False,0.07084445271060096,False,False,024
241,0,"{'mean': 0.3, 'sd': 0.37}",-0.1,1,1.0174980163574219,1,"(1, 3)",246,1,False,0.0,1,0,0,1.0,False,True,-0.1,0.1,-1.0,0.017346688806837367,0,1.0,False,0.10789781255167942,False,True,024
242,1,"{'mean': 0.3, 'sd': 0.37}",0.3,2,0.677253007888794,1,"(0, 2)",247,1,False,0.0,0,1,1,1.0,True,True,0.3,0.3,1.0,-0.38971035669967236,0,0.0,True,0.4934931957145254,False,False,024
243,1,"{'mean': -0.3, 'sd': 0.37}",-0.3,1,0.6764121055603027,0,"(1, 2)",248,0,False,1.0,1,0,0,1.0,True,True,-0.3,0.3,-1.0,-0.3909527650742447,0,0.0,False,0.19526353644671676,False,True,024
244,1,"{'mean': -0.3, 'sd': 0.37}",-0.3,0,0.9556448459625244,0,"(0, 3)",249,0,False,0.0,1,0,0,0.0,True,True,-0.3,0.3,-1.0,-0.04536893499317102,0,1.0,True,0.07901734227982939,False,True,024
245,1,"{'mean': -0.3, 'sd': 0.37}",-0.1,0,1.0659141540527344,0,"(0, 3)",250,0,True,0.0,1,0,0,0.0,True,True,-0.1,0.1,-1.0,0.06383279159348654,0,0.0,True,0.11261688796739071,False,True,024
246,1,"{'mean': 0.3, 'sd': 0.37}",0.5,2,0.5673818588256836,1,"(0, 2)",251,1,False,1.0,0,1,1,1.0,True,True,0.5,0.5,1.0,-0.5667227295794192,1,0.0,False,0.7155994072737426,True,True,024
247,1,"{'mean': 0.3, 'sd': 0.37}",0.5,2,0.5349540710449219,1,"(0, 2)",252,1,True,0.0,0,1,1,0.0,True,True,0.5,0.5,1.0,-0.6255743842854898,1,1.0,True,0.9560491453880798,False,True,024
248,0,"{'mean': 0.3, 'sd': 0.37}",0.1,2,0.6763708591461182,1,"(0, 3)",253,1,True,0.0,0,0,1,0.0,False,False,0.1,0.1,1.0,-0.39101374516532134,1,0.0,True,0.9127473273081954,False,True,024
249,1,"{'mean': 0.3, 'sd': 0.37}",-0.1,3,0.5903639793395996,1,"(0, 3)",254,1,False,0.0,0,1,1,0.0,True,True,-0.1,0.1,-1.0,-0.527016018160756,1,0.0,True,0.7571186567688907,False,True,024
250,1,"{'mean': 0.3, 'sd': 0.37}",0.1,2,0.7088558673858643,1,"(0, 2)",255,1,False,0.0,0,1,1,0.0,True,True,0.1,0.1,1.0,-0.34410306312205685,1,0.0,True,0.7982039443541795,False,True,024
251,1,"{'mean': -0.3, 'sd': 0.37}",-0.3,0,0.8867318630218506,0,"(0, 2)",256,0,False,1.0,1,0,0,1.0,True,True,-0.3,0.3,-1.0,-0.12021263885378798,0,0.0,False,0.41044034957216297,True,True,024
252,1,"{'mean': 0.3, 'sd': 0.37}",0.9,2,0.5333569049835205,1,"(0, 2)",257,1,False,1.0,0,1,1,1.0,True,True,0.9,0.9,1.0,-0.6285644635549249,1,0.0,True,0.980041298843727,True,True,024
253,1,"{'mean': 0.3, 'sd': 0.37}",0.3,3,1.0500860214233398,1,"(0, 3)",258,1,False,0.0,0,1,1,0.0,True,True,0.3,0.3,1.0,0.04887208597883451,1,0.0,True,0.9693725754518551,False,True,024
254,0,"{'mean': 0.3, 'sd': 0.37}",1.0,2,0.7151229381561279,1,"(1, 3)",259,1,False,0.0,0,0,1,0.0,False,False,1.0,1.0,1.0,-0.33530080959126896,1,0.0,True,0.9985934132373093,False,True,024
255,1,"{'mean': 0.3, 'sd': 0.37}",0.5,2,0.5669119358062744,1,"(0, 2)",260,1,True,0.0,0,1,1,0.0,True,True,0.5,0.5,1.0,-0.5675513033554866,1,0.0,True,0.9893338726771981,False,True,024
256,1,"{'mean': 0.3, 'sd': 0.37}",0.1,3,0.676954984664917,1,"(0, 3)",261,1,False,0.0,0,1,1,0.0,True,True,0.1,0.1,1.0,-0.3901505006514537,1,0.0,True,0.9304432612336825,False,True,024
257,1,"{'mean': 0.3, 'sd': 0.37}",0.1,2,0.6561758518218994,1,"(0, 2)",262,1,False,0.0,0,1,1,0.0,True,True,0.1,0.1,1.0,-0.4213264591598574,1,0.0,True,0.898863951580384,False,True,024
258,1,"{'mean': 0.3, 'sd': 0.37}",0.1,2,0.4880971908569336,1,"(0, 2)",263,1,True,0.0,0,1,1,0.0,True,True,0.1,0.1,1.0,-0.7172407313669499,1,0.0,True,0.8814086115677319,False,True,024
259,1,"{'mean': 0.3, 'sd': 0.37}",0.5,2,0.5533928871154785,1,"(1, 2)",264,1,True,0.0,0,1,1,0.0,True,True,0.5,0.5,1.0,-0.5916870647739322,1,0.0,True,0.9775566942808842,False,True,024
260,0,"{'mean': -0.3, 'sd': 0.37}",-0.1,3,0.7056999206542969,0,"(0, 3)",265,0,False,1.0,0,1,1,0.0,False,True,-0.1,0.1,-1.0,-0.3485651734108174,1,0.0,True,0.825819624389198,False,True,024
261,1,"{'mean': -0.3, 'sd': 0.37}",-0.1,1,0.8258059024810791,0,"(1, 3)",266,0,False,0.0,1,0,0,1.0,True,True,-0.1,0.1,-1.0,-0.19139551796416882,1,1.0,True,0.6704078519403304,False,False,024
262,0,"{'mean': -0.3, 'sd': 0.37}",-0.5,0,0.790571928024292,0,"(1, 2)",267,0,False,0.0,0,0,0,0.0,False,False,-0.5,0.5,-1.0,-0.23499863592893483,0,0.0,True,0.14136148951693112,True,True,024
263,1,"{'mean': -0.3, 'sd': 0.37}",-0.1,0,0.6269450187683105,0,"(0, 2)",268,0,True,0.0,1,0,0,0.0,True,True,-0.1,0.1,-1.0,-0.46689643155888944,0,0.0,True,0.149394326295489,False,True,024
264,1,"{'mean': -0.3, 'sd': 0.37}",-0.7,1,0.595797061920166,0,"(1, 2)",269,0,False,0.0,1,0,0,0.0,True,True,-0.7,0.7,-1.0,-0.5178551700340701,0,0.0,True,0.009967303556287365,False,True,024
265,1,"{'mean': -0.3, 'sd': 0.37}",-0.3,0,0.4410707950592041,0,"(0, 3)",270,0,False,0.0,1,0,0,0.0,True,True,-0.3,0.3,-1.0,-0.8185498834052682,0,0.0,True,0.029600816498032076,False,True,024
266,1,"{'mean': -0.3, 'sd': 0.37}",-0.1,0,0.4085428714752197,0,"(0, 3)",271,0,True,0.0,1,0,0,0.0,True,True,-0.1,0.1,-1.0,-0.8951584216570417,0,0.0,True,0.08443289569997266,False,True,024
267,1,"{'mean': -0.3, 'sd': 0.37}",-0.3,0,0.6079740524291992,0,"(0, 2)",272,0,True,0.0,1,0,0,0.0,True,True,-0.3,0.3,-1.0,-0.4976230748523151,0,0.0,True,0.04794894558226039,False,True,024
268,1,"{'mean': -0.3, 'sd': 0.37}",-0.3,1,1.0714960098266602,0,"(1, 2)",273,0,False,0.0,1,0,0,0.0,True,True,-0.3,0.3,-1.0,0.06905581201103791,0,0.0,True,0.03873071628896528,False,True,024
269,1,"{'mean': -0.3, 'sd': 0.37}",-0.5,0,0.7680959701538086,0,"(0, 3)",274,0,False,0.0,1,0,0,0.0,True,True,-0.5,0.5,-1.0,-0.26384059250368586,0,0.0,True,0.01420855887424,False,True,024
270,1,"{'mean': -0.3, 'sd': 0.37}",-0.3,1,0.607741117477417,0,"(1, 2)",275,0,False,0.0,1,0,0,0.0,True,True,-0.3,0.3,-1.0,-0.4980062813144844,0,0.0,True,0.03059778604965219,False,True,024
271,1,"{'mean': -0.3, 'sd': 0.37}",-0.1,1,0.7082180976867676,0,"(1, 3)",276,0,True,0.0,1,0,0,0.0,True,True,-0.1,0.1,-1.0,-0.34500318514515127,0,0.0,True,0.08499332593180121,False,True,024
272,1,"{'mean': -0.3, 'sd': 0.37}",-0.1,0,0.47449493408203125,0,"(0, 3)",277,0,False,0.0,1,0,0,0.0,True,True,-0.1,0.1,-1.0,-0.7455043373178482,0,0.0,True,0.11608219459497117,False,True,024
273,1,"{'mean': -0.3, 'sd': 0.37}",-0.3,0,0.7392029762268066,0,"(0, 2)",278,0,True,0.0,1,0,0,0.0,True,True,-0.3,0.3,-1.0,-0.30218273238191495,0,0.0,True,0.0563279810177912,False,True,024
274,0,"{'mean': -0.3, 'sd': 0.37}",0.1,2,0.8300800323486328,0,"(1, 2)",279,0,False,0.0,0,1,1,1.0,False,True,0.1,0.1,1.0,-0.18623315832361323,0,0.0,False,0.22148108638476133,False,False,024
275,0,"{'mean': -0.3, 'sd': 0.37}",0.1,3,0.9465951919555664,0,"(1, 3)",280,0,False,0.0,0,1,1,0.0,False,True,0.1,0.1,1.0,-0.05488374080076097,0,0.0,False,0.38959189496945884,False,False,024
276,1,"{'mean': -0.3, 'sd': 0.37}",-0.3,0,1.296915054321289,0,"(0, 3)",281,0,False,0.0,1,0,0,1.0,True,True,-0.3,0.3,-1.0,0.2599884092197754,0,0.0,True,0.14792907721899407,False,True,024
277,1,"{'mean': -0.3, 'sd': 0.37}",-0.9,0,0.7784512042999268,0,"(0, 3)",282,0,True,0.0,1,0,0,0.0,True,True,-0.9,0.9,-1.0,-0.25044896879912204,0,0.0,True,0.0037158838896676825,False,True,024
278,1,"{'mean': -0.3, 'sd': 0.37}",-0.1,1,0.6661510467529297,0,"(1, 3)",283,0,False,0.0,1,0,0,0.0,True,True,-0.1,0.1,-1.0,-0.40623883722996207,0,0.0,True,0.06999735162870767,False,True,024
279,0,"{'mean': -0.3, 'sd': 0.37}",0.1,0,0.8525588512420654,0,"(1, 2)",284,0,False,0.0,0,0,0,0.0,False,False,0.1,0.1,1.0,-0.15951303849214968,0,0.0,True,0.236394360565871,False,True,024
280,1,"{'mean': -0.3, 'sd': 0.37}",-0.3,1,0.8400537967681885,0,"(1, 3)",285,0,False,0.0,1,0,0,0.0,True,True,-0.3,0.3,-1.0,-0.1742893454238396,0,0.0,True,0.09189023777900895,False,True,024
281,1,"{'mean': -0.3, 'sd': 0.37}",-0.1,1,0.418363094329834,0,"(1, 2)",286,0,True,0.0,1,0,0,0.0,True,True,-0.1,0.1,-1.0,-0.8714055767905177,0,0.0,True,0.12009709549295688,False,True,024
282,1,"{'mean': 0.3, 'sd': 0.37}",0.3,2,0.5752191543579102,1,"(1, 2)",287,1,False,1.0,0,1,1,1.0,True,True,0.3,0.3,1.0,-0.5530041727856724,1,0.0,False,0.5091236995468219,True,True,024
283,1,"{'mean': 0.3, 'sd': 0.37}",0.7,3,0.40432190895080566,1,"(0, 3)",288,1,False,0.0,0,1,1,0.0,True,True,0.7,0.7,1.0,-0.9055439139673538,1,1.0,True,0.9646573297953451,False,True,024
284,1,"{'mean': 0.3, 'sd': 0.37}",0.5,3,0.7579610347747803,1,"(0, 3)",289,1,True,0.0,0,1,1,0.0,True,True,0.5,0.5,1.0,-0.2771232999713799,1,0.0,True,0.986155484162422,False,True,024
285,1,"{'mean': 0.3, 'sd': 0.37}",0.3,2,0.6865830421447754,1,"(1, 2)",290,1,False,0.0,0,1,1,0.0,True,True,0.3,0.3,1.0,-0.37602809656711395,1,0.0,True,0.9707604880199125,False,True,024
286,1,"{'mean': 0.3, 'sd': 0.37}",0.5,3,0.332474946975708,1,"(1, 3)",291,1,False,0.0,0,1,1,0.0,True,True,0.5,0.5,1.0,-1.1011907691664689,1,0.0,True,0.9867400417012657,False,True,024
287,0,"{'mean': 0.3, 'sd': 0.37}",-0.1,0,1.2847809791564941,1,"(0, 2)",292,1,False,0.0,1,0,0,1.0,False,True,-0.1,0.1,-1.0,0.2505882595837222,1,0.0,False,0.835853169446255,False,False,024
288,1,"{'mean': 0.3, 'sd': 0.37}",0.3,3,1.0672698020935059,1,"(0, 3)",293,1,False,0.0,0,1,1,1.0,True,True,0.3,0.3,1.0,0.0651038007995755,1,0.0,True,0.9330077264094847,False,True,024
289,0,"{'mean': 0.3, 'sd': 0.37}",0.7,2,0.69600510597229,1,"(1, 3)",294,1,False,0.0,0,0,1,0.0,False,False,0.7,0.7,1.0,-0.3623982825075436,1,0.0,True,0.9931255721330611,False,True,024
290,0,"{'mean': 0.3, 'sd': 0.37}",-0.3,1,0.6147642135620117,1,"(0, 3)",295,1,False,0.0,0,0,0,1.0,False,False,-0.3,0.3,-1.0,-0.4865164772714403,1,0.0,False,0.6736053832030079,False,False,024
291,1,"{'mean': 0.3, 'sd': 0.37}",0.3,3,0.6855189800262451,1,"(1, 3)",296,1,False,0.0,0,1,1,1.0,True,True,0.3,0.3,1.0,-0.3775790925056734,1,0.0,True,0.881563092570289,False,True,024
292,0,"{'mean': 0.3, 'sd': 0.37}",-0.1,0,0.8655920028686523,1,"(1, 3)",297,1,False,0.0,0,0,0,1.0,False,False,-0.1,0.1,-1.0,-0.14434160976271335,1,0.0,False,0.7253230779753567,False,False,024
293,1,"{'mean': 0.3, 'sd': 0.37}",0.7,2,0.47847509384155273,1,"(1, 2)",298,1,False,0.0,0,1,1,1.0,True,True,0.7,0.7,1.0,-0.7371511199316748,1,0.0,True,0.9825199111899156,False,True,024
294,0,"{'mean': 0.3, 'sd': 0.37}",1.0,2,0.5777928829193115,1,"(1, 3)",299,1,True,0.0,0,0,1,0.0,False,False,1.0,1.0,1.0,-0.5485398085763804,1,0.0,True,0.9987253500727962,False,True,024
295,1,"{'mean': 0.3, 'sd': 0.37}",0.3,3,0.45148491859436035,1,"(1, 3)",300,1,False,0.0,0,1,1,0.0,True,True,0.3,0.3,1.0,-0.7952133095747681,1,0.0,True,0.9735786772378665,False,True,024
296,1,"{'mean': 0.3, 'sd': 0.37}",0.7,3,0.602741003036499,1,"(1, 3)",301,1,True,0.0,0,1,1,0.0,True,True,0.7,0.7,1.0,-0.5062676885581828,1,0.0,True,0.9947502982341532,False,True,024
297,1,"{'mean': 0.3, 'sd': 0.37}",0.7,3,0.8785440921783447,1,"(0, 3)",302,1,True,0.0,0,1,1,0.0,True,True,0.7,0.7,1.0,-0.1294891823147098,1,0.0,True,0.9955534677363308,False,True,024
298,1,"{'mean': -0.3, 'sd': 0.37}",-0.7,1,1.1712329387664795,0,"(1, 2)",303,0,False,1.0,1,0,0,1.0,True,True,-0.7,0.7,-1.0,0.15805698777622848,0,1.0,True,0.23209559865374155,True,True,024
299,1,"{'mean': -0.3, 'sd': 0.37}",-0.5,0,0.6480381488800049,0,"(0, 2)",304,0,False,0.0,1,0,0,0.0,True,True,-0.5,0.5,-1.0,-0.43380571263433193,0,0.0,True,0.03650856839964755,False,True,024
300,1,"{'mean': -0.3, 'sd': 0.37}",-0.1,0,0.4804050922393799,0,"(0, 2)",305,0,True,0.0,1,0,0,0.0,True,True,-0.1,0.1,-1.0,-0.733125588833779,0,0.0,True,0.08832280479124434,False,True,024
301,1,"{'mean': -0.3, 'sd': 0.37}",-0.3,1,0.43758702278137207,0,"(1, 2)",306,0,False,0.0,1,0,0,0.0,True,True,-0.3,0.3,-1.0,-0.8264796837497181,0,0.0,True,0.048959105928334634,False,True,024
302,0,"{'mean': -0.3, 'sd': 0.37}",0.5,3,0.6869890689849854,0,"(1, 3)",307,0,False,0.0,0,1,1,1.0,False,True,0.5,0.5,1.0,-0.3754368981163794,1,0.0,False,0.6350893654420576,True,True,024
303,1,"{'mean': -0.3, 'sd': 0.37}",-0.1,0,0.8575317859649658,0,"(0, 2)",308,0,False,0.0,1,0,0,1.0,True,True,-0.1,0.1,-1.0,-0.15369703244833194,0,0.0,True,0.49927537907086766,True,True,024
304,1,"{'mean': -0.3, 'sd': 0.37}",-0.5,1,0.8668649196624756,0,"(1, 3)",309,0,False,0.0,1,0,0,0.0,True,True,-0.5,0.5,-1.0,-0.1428721163440533,0,0.0,True,0.08601475011929631,False,True,024
305,1,"{'mean': -0.3, 'sd': 0.37}",-0.1,0,0.9999179840087891,0,"(0, 3)",310,0,False,0.0,1,0,0,0.0,True,True,-0.1,0.1,-1.0,-8.201935470625284e-05,0,0.0,True,0.11667574155947909,False,True,024
306,1,"{'mean': -0.3, 'sd': 0.37}",-1.0,0,0.579888105392456,0,"(0, 3)",311,0,True,0.0,1,0,0,0.0,True,True,-1.0,1.0,-1.0,-0.5449201157906088,0,0.0,True,0.0019457729342131154,False,True,024
307,0,"{'mean': -0.3, 'sd': 0.37}",0.3,2,0.705254077911377,0,"(0, 2)",312,0,False,0.0,0,1,1,1.0,False,True,0.3,0.3,1.0,-0.3491971468957247,0,0.0,False,0.3268784574359903,False,False,024
308,0,"{'mean': -0.3, 'sd': 0.37}",-0.1,1,0.8777101039886475,0,"(0, 3)",313,0,False,0.0,0,0,0,1.0,False,False,-0.1,0.1,-1.0,-0.13043891755714263,0,0.0,True,0.2676660564241497,False,True,024
309,0,"{'mean': -0.3, 'sd': 0.37}",0.1,2,0.9481260776519775,0,"(1, 2)",314,0,False,0.0,0,1,1,1.0,False,True,0.1,0.1,1.0,-0.05326779226616688,0,0.0,False,0.4322979621504455,False,False,024
310,1,"{'mean': -0.3, 'sd': 0.37}",-0.7,1,1.260490894317627,0,"(1, 2)",315,0,False,0.0,1,0,0,1.0,True,True,-0.7,0.7,-1.0,0.23150124375431638,0,0.0,True,0.027829619712257808,False,True,024
311,1,"{'mean': -0.3, 'sd': 0.37}",-0.7,0,0.8034441471099854,0,"(0, 2)",316,0,False,0.0,1,0,0,0.0,True,True,-0.7,0.7,-1.0,-0.21884760821816976,0,0.0,True,0.005000552745679282,False,True,024
312,1,"{'mean': -0.3, 'sd': 0.37}",-0.1,0,1.1419930458068848,0,"(0, 3)",317,0,True,0.0,1,0,0,0.0,True,True,-0.1,0.1,-1.0,0.1327750217291871,0,0.0,True,0.07070859259715641,False,True,024
313,1,"{'mean': -0.3, 'sd': 0.37}",-0.3,1,0.8585338592529297,0,"(1, 3)",318,0,False,0.0,1,0,0,0.0,True,True,-0.3,0.3,-1.0,-0.15252915940728298,0,0.0,True,0.044427613280502244,False,True,024
314,1,"{'mean': -0.3, 'sd': 0.37}",-0.9,0,0.5813360214233398,0,"(0, 3)",319,0,False,0.0,1,0,0,0.0,True,True,-0.9,0.9,-1.0,-0.5424263391839738,0,0.0,True,0.0021020228847271486,False,True,024
315,1,"{'mean': -0.3, 'sd': 0.37}",-0.3,1,0.6145598888397217,0,"(1, 2)",320,0,False,0.0,1,0,0,0.0,True,True,-0.3,0.3,-1.0,-0.4868488952623873,0,0.0,True,0.02776651094241314,False,True,024
316,1,"{'mean': -0.3, 'sd': 0.37}",0.1,0,0.8083291053771973,0,"(0, 2)",321,0,False,0.0,1,0,0,0.0,True,True,0.1,0.1,1.0,-0.21278599475354135,0,0.0,True,0.18968403574251366,False,True,024
317,1,"{'mean': -0.3, 'sd': 0.37}",-0.1,1,0.5928280353546143,0,"(1, 3)",322,0,False,0.0,1,0,0,0.0,True,True,-0.1,0.1,-1.0,-0.52285091301022,0,0.0,True,0.17888366025728533,False,True,024
318,1,"{'mean': -0.3, 'sd': 0.37}",0.1,0,0.6608560085296631,0,"(0, 2)",323,0,False,0.0,1,0,0,0.0,True,True,0.1,0.1,1.0,-0.41421930169638427,0,0.0,True,0.34862687400646775,False,True,024
319,1,"{'mean': -0.3, 'sd': 0.37}",-0.3,1,0.6245768070220947,0,"(1, 2)",324,0,False,0.0,1,0,0,0.0,True,True,-0.3,0.3,-1.0,-0.4706809673520556,0,0.0,True,0.1315338916276677,False,True,024
320,1,"{'mean': -0.3, 'sd': 0.37}",-0.7,1,0.6892361640930176,0,"(1, 2)",325,0,True,0.0,1,0,0,0.0,True,True,-0.7,0.7,-1.0,-0.37217130313822994,0,0.0,True,0.009164985064889958,False,True,024
321,1,"{'mean': -0.3, 'sd': 0.37}",-0.1,0,0.7245430946350098,0,"(0, 2)",326,0,False,0.0,1,0,0,0.0,True,True,-0.1,0.1,-1.0,-0.32221403709250385,0,0.0,True,0.07301788651812546,False,True,024
322,0,"{'mean': -0.3, 'sd': 0.37}",0.1,1,1.0665538311004639,0,"(0, 3)",327,0,False,0.0,0,0,0,0.0,False,False,0.1,0.1,1.0,0.06443273219880358,0,0.0,True,0.23966372895601162,False,True,024
323,0,"{'mean': 0.3, 'sd': 0.37}",-0.1,1,0.7257640361785889,1,"(1, 3)",328,1,True,1.0,1,0,0,0.0,False,True,-0.1,0.1,-1.0,-0.3205303360252323,0,0.0,True,0.21033370878184568,False,True,024
324,0,"{'mean': 0.3, 'sd': 0.37}",-0.1,1,0.6090898513793945,1,"(1, 3)",329,1,True,0.0,1,0,0,0.0,False,True,-0.1,0.1,-1.0,-0.4957894829442505,0,1.0,False,0.19175803085650886,False,True,024
325,1,"{'mean': 0.3, 'sd': 0.37}",0.3,3,0.9547479152679443,1,"(1, 3)",330,1,False,0.0,0,1,1,1.0,True,True,0.3,0.3,1.0,-0.046307936416005266,1,0.0,True,0.5900882313024491,True,True,024
326,0,"{'mean': -0.3, 'sd': 0.37}",-0.1,1,0.825639009475708,0,"(0, 3)",331,0,False,1.0,0,0,0,1.0,False,False,-0.1,0.1,-1.0,-0.1915976355216252,0,0.0,False,0.46228834649988026,True,True,024
327,0,"{'mean': -0.3, 'sd': 0.37}",0.1,3,1.0076639652252197,0,"(0, 3)",332,0,False,0.0,0,1,1,1.0,False,True,0.1,0.1,1.0,0.007634746237645238,1,1.0,False,0.5949393271181408,True,True,024
328,1,"{'mean': -0.3, 'sd': 0.37}",-0.5,0,1.0222201347351074,0,"(0, 3)",333,0,False,0.0,1,0,0,1.0,True,True,-0.5,0.5,-1.0,0.02197686460973001,0,0.0,True,0.11343456349701278,True,True,024
329,1,"{'mean': -0.3, 'sd': 0.37}",-0.9,0,1.043787956237793,0,"(0, 2)",334,0,True,0.0,1,0,0,0.0,True,True,-0.9,0.9,-1.0,0.04285636177949395,0,0.0,True,0.0031420265289372807,False,True,024
330,1,"{'mean': -0.3, 'sd': 0.37}",-0.5,1,1.0593760013580322,0,"(1, 3)",335,0,False,0.0,1,0,0,0.0,True,True,-0.5,0.5,-1.0,0.05768005682095198,0,0.0,True,0.01085286089999409,False,True,024
331,0,"{'mean': -0.3, 'sd': 0.37}",0.9,3,0.8552889823913574,0,"(1, 3)",336,0,False,0.0,0,1,1,1.0,False,True,0.9,0.9,1.0,-0.15631587605049896,1,1.0,True,0.8903184608617117,True,True,024
332,1,"{'mean': -0.3, 'sd': 0.37}",-0.7,0,1.2514610290527344,0,"(0, 2)",337,0,False,0.0,1,0,0,1.0,True,True,-0.7,0.7,-1.0,0.22431169201430712,0,1.0,True,0.13229886049485387,True,True,024
333,1,"{'mean': -0.3, 'sd': 0.37}",0.1,1,0.8998308181762695,0,"(1, 3)",338,0,False,0.0,1,0,0,0.0,True,True,0.1,0.1,1.0,-0.10554851313238914,0,0.0,True,0.30198778718072056,False,True,024
334,1,"{'mean': -0.3, 'sd': 0.37}",-0.1,1,0.686845064163208,0,"(1, 2)",339,0,True,0.0,1,0,0,0.0,True,True,-0.1,0.1,-1.0,-0.37564653742993287,0,0.0,True,0.2509742585803612,False,True,024
335,1,"{'mean': -0.3, 'sd': 0.37}",-0.5,1,0.600135087966919,0,"(1, 2)",340,0,True,0.0,1,0,0,0.0,True,True,-0.5,0.5,-1.0,-0.5106005024961537,0,0.0,True,0.03914445935106879,False,True,024
336,1,"{'mean': -0.3, 'sd': 0.37}",0.1,0,0.6230959892272949,0,"(0, 3)",341,0,False,0.0,1,0,0,0.0,True,True,0.1,0.1,1.0,-0.47305469625689,0,0.0,True,0.2024556376072601,False,True,024
337,1,"{'mean': -0.3, 'sd': 0.37}",0.1,0,0.7042109966278076,0,"(0, 2)",342,0,True,0.0,1,0,0,0.0,True,True,0.1,0.1,1.0,-0.35067725660945515,0,0.0,True,0.3714878872130357,False,True,024
338,1,"{'mean': -0.3, 'sd': 0.37}",-0.3,0,0.5765368938446045,0,"(0, 2)",343,0,True,0.0,1,0,0,0.0,True,True,-0.3,0.3,-1.0,-0.5507159450594573,0,0.0,True,0.1405417889170244,False,True,024
339,1,"{'mean': -0.3, 'sd': 0.37}",-0.5,1,0.5072669982910156,0,"(1, 2)",344,0,False,0.0,1,0,0,0.0,True,True,-0.5,0.5,-1.0,-0.6787177901604714,0,0.0,True,0.024988391718319132,False,True,024
340,1,"{'mean': -0.3, 'sd': 0.37}",-0.3,0,0.5787768363952637,0,"(0, 2)",345,0,False,0.0,1,0,0,0.0,True,True,-0.3,0.3,-1.0,-0.54683830507528,0,0.0,True,0.03315685111805509,False,True,024
341,1,"{'mean': -0.3, 'sd': 0.37}",-0.5,1,0.6886999607086182,0,"(1, 3)",346,0,False,0.0,1,0,0,0.0,True,True,-0.5,0.5,-1.0,-0.3729495734830061,0,0.0,True,0.013670118016284538,False,True,024
342,1,"{'mean': -0.3, 'sd': 0.37}",-0.3,0,0.7122271060943604,0,"(0, 2)",347,0,False,0.0,1,0,0,0.0,True,True,-0.3,0.3,-1.0,-0.33935844919638025,0,0.0,True,0.030470910752047727,False,True,024
343,0,"{'mean': 0.3, 'sd': 0.37}",-0.3,0,0.7751920223236084,1,"(0, 3)",348,1,True,1.0,1,0,0,0.0,False,True,-0.3,0.3,-1.0,-0.25464450957875073,0,0.0,True,0.034472378673191924,False,True,024
344,1,"{'mean': 0.3, 'sd': 0.37}",1.0,2,0.7544870376586914,1,"(0, 2)",349,1,False,0.0,0,1,1,1.0,True,True,1.0,1.0,1.0,-0.2817171809633079,1,1.0,True,0.9382420657078768,True,True,024
345,0,"{'mean': 0.3, 'sd': 0.37}",-0.3,1,0.8456418514251709,1,"(1, 3)",350,1,False,0.0,1,0,0,1.0,False,True,-0.3,0.3,-1.0,-0.16765935248012384,1,0.0,False,0.582292692906332,False,False,024
346,0,"{'mean': 0.3, 'sd': 0.37}",-0.5,1,0.582313060760498,1,"(1, 3)",351,1,True,0.0,1,0,0,0.0,False,True,-0.5,0.5,-1.0,-0.5407470707830154,0,0.0,False,0.10936461980812079,True,True,024
347,1,"{'mean': -0.3, 'sd': 0.37}",-0.3,0,0.5821518898010254,0,"(0, 3)",352,0,False,1.0,1,0,0,0.0,True,True,-0.3,0.3,-1.0,-0.5410238862602423,0,0.0,False,0.054518557181329426,False,True,024
348,1,"{'mean': -0.3, 'sd': 0.37}",-0.7,0,0.5836541652679443,0,"(0, 3)",353,0,True,0.0,1,0,0,0.0,True,True,-0.7,0.7,-1.0,-0.5384466543237432,0,1.0,True,0.005998559445277241,False,True,024
349,1,"{'mean': -0.3, 'sd': 0.37}",-0.5,0,0.5634620189666748,0,"(0, 3)",354,0,True,0.0,1,0,0,0.0,True,True,-0.5,0.5,-1.0,-0.5736553497851485,0,0.0,True,0.011115167159166639,False,True,024
350,1,"{'mean': -0.3, 'sd': 0.37}",0.5,1,0.7384281158447266,0,"(1, 3)",355,0,False,0.0,1,0,0,0.0,True,True,0.5,0.5,1.0,-0.303231519805601,1,0.0,True,0.569176162845995,True,False,024
351,1,"{'mean': -0.3, 'sd': 0.37}",-0.1,1,0.824354887008667,0,"(1, 2)",356,0,True,0.0,1,0,0,0.0,True,True,-0.1,0.1,-1.0,-0.19315415367485708,0,0.0,True,0.4455009739877816,True,True,024
352,0,"{'mean': -0.3, 'sd': 0.37}",0.1,2,1.2671959400177002,0,"(0, 2)",357,0,False,0.0,0,1,1,1.0,False,True,0.1,0.1,1.0,0.2368065381727184,1,0.0,False,0.5819143865994276,True,True,024
353,1,"{'mean': -0.3, 'sd': 0.37}",-0.9,0,1.0755209922790527,0,"(0, 2)",358,0,False,0.0,1,0,0,1.0,True,True,-0.9,0.9,-1.0,0.07280518815817694,0,0.0,True,0.016947617011647105,True,True,024
354,1,"{'mean': -0.3, 'sd': 0.37}",-1.0,0,0.4832930564880371,0,"(0, 2)",359,0,True,0.0,1,0,0,0.0,True,True,-1.0,1.0,-1.0,-0.7271320671119421,0,0.0,True,0.0010491281996012547,False,True,024
355,1,"{'mean': -0.3, 'sd': 0.37}",-0.3,0,0.6703081130981445,0,"(0, 3)",360,0,True,0.0,1,0,0,0.0,True,True,-0.3,0.3,-1.0,-0.4000178020093249,0,0.0,True,0.02752238155793729,False,True,024
356,1,"{'mean': -0.3, 'sd': 0.37}",-0.1,0,0.4326961040496826,0,"(0, 2)",361,0,True,0.0,1,0,0,0.0,True,True,-0.1,0.1,-1.0,-0.8377196356058315,0,0.0,True,0.08326560345384908,False,True,024
357,0,"{'mean': 0.3, 'sd': 0.37}",0.3,3,0.7591061592102051,1,"(1, 2)",362,1,False,1.0,0,0,1,1.0,False,False,0.3,0.3,1.0,-0.27561364415989165,0,0.0,False,0.45999878528240634,False,False,024
358,1,"{'mean': 0.3, 'sd': 0.37}",0.1,3,0.6462099552154541,1,"(0, 3)",363,1,True,0.0,0,1,1,0.0,True,True,0.1,0.1,1.0,-0.43663081992976,1,1.0,True,0.5931732116776824,True,True,024
359,1,"{'mean': 0.3, 'sd': 0.37}",0.9,3,0.9307138919830322,1,"(1, 3)",364,1,True,0.0,0,1,1,0.0,True,True,0.9,0.9,1.0,-0.07180336152061652,1,0.0,True,0.9887976680556386,False,True,024
360,1,"{'mean': -0.3, 'sd': 0.37}",-0.7,0,1.083420991897583,0,"(0, 3)",365,0,False,1.0,1,0,0,1.0,True,True,-0.7,0.7,-1.0,0.08012361999781496,0,1.0,True,0.22228093762004913,True,True,024
361,1,"{'mean': -0.3, 'sd': 0.37}",-0.5,1,0.6472940444946289,0,"(1, 2)",366,0,False,0.0,1,0,0,0.0,True,True,-0.5,0.5,-1.0,-0.43495461400655416,0,0.0,True,0.03517616726284582,False,True,024
362,1,"{'mean': -0.3, 'sd': 0.37}",-0.3,0,0.4991600513458252,0,"(0, 3)",367,0,False,0.0,1,0,0,0.0,True,True,-0.3,0.3,-1.0,-0.6948284904780261,0,0.0,True,0.03560904079304818,False,True,024
363,1,"{'mean': -0.3, 'sd': 0.37}",-0.7,1,0.46047401428222656,0,"(1, 2)",368,0,False,0.0,1,0,0,0.0,True,True,-0.7,0.7,-1.0,-0.7754988542335283,0,0.0,True,0.005286624154869105,False,True,024
364,1,"{'mean': -0.3, 'sd': 0.37}",-0.1,0,1.1707539558410645,0,"(0, 3)",369,0,False,0.0,1,0,0,0.0,True,True,-0.1,0.1,-1.0,0.1576479479705863,0,0.0,True,0.07086704581562754,False,True,024
365,1,"{'mean': -0.3, 'sd': 0.37}",0.1,1,0.6066899299621582,0,"(1, 2)",370,0,False,0.0,1,0,0,0.0,True,True,0.1,0.1,1.0,-0.4997374422231287,0,0.0,True,0.23733666000472475,False,True,024
366,1,"{'mean': -0.3, 'sd': 0.37}",-0.5,1,0.6003680229187012,0,"(1, 2)",371,0,True,0.0,1,0,0,0.0,True,True,-0.5,0.5,-1.0,-0.5102124402702533,0,0.0,True,0.037230566235310306,False,True,024
367,1,"{'mean': -0.3, 'sd': 0.37}",-0.3,0,0.4805409908294678,0,"(0, 2)",372,0,False,0.0,1,0,0,0.0,True,True,-0.3,0.3,-1.0,-0.732842745512206,0,0.0,True,0.03610755858139092,False,True,024
368,1,"{'mean': -0.3, 'sd': 0.37}",-0.5,1,0.557654857635498,0,"(1, 2)",373,0,False,0.0,1,0,0,0.0,True,True,-0.5,0.5,-1.0,-0.5840150426757417,0,0.0,True,0.01395454753491542,False,True,024
369,1,"{'mean': -0.3, 'sd': 0.37}",-0.7,1,0.553678035736084,0,"(1, 2)",374,0,True,0.0,1,0,0,0.0,True,True,-0.7,0.7,-1.0,-0.5911719241067438,0,0.0,True,0.004499851867108585,False,True,024
370,1,"{'mean': -0.3, 'sd': 0.37}",-0.3,0,0.5627989768981934,0,"(0, 3)",375,0,False,0.0,1,0,0,0.0,True,True,-0.3,0.3,-1.0,-0.5748327716216767,0,0.0,True,0.028323732053217535,False,True,024
371,1,"{'mean': -0.3, 'sd': 0.37}",-0.3,1,0.6661548614501953,0,"(1, 2)",376,0,False,0.0,1,0,0,0.0,True,True,-0.3,0.3,-1.0,-0.40623311077143304,0,0.0,True,0.033956028295598635,False,True,024
372,1,"{'mean': -0.3, 'sd': 0.37}",-0.5,1,0.4913179874420166,0,"(1, 2)",377,0,True,0.0,1,0,0,0.0,True,True,-0.5,0.5,-1.0,-0.7106637285460911,0,0.0,True,0.013747018273897797,False,True,024
373,1,"{'mean': -0.3, 'sd': 0.37}",-0.3,1,0.480118989944458,0,"(1, 2)",378,0,True,0.0,1,0,0,0.0,True,True,-0.3,0.3,-1.0,-0.733721310083646,0,0.0,True,0.03048902563780869,False,True,024
374,1,"{'mean': -0.3, 'sd': 0.37}",-0.3,1,0.5415301322937012,0,"(1, 3)",379,0,True,0.0,1,0,0,0.0,True,True,-0.3,0.3,-1.0,-0.613356568117524,0,0.0,True,0.034476741158729354,False,True,024
375,1,"{'mean': -0.3, 'sd': 0.37}",-0.1,0,0.5328600406646729,0,"(0, 3)",380,0,False,0.0,1,0,0,0.0,True,True,-0.1,0.1,-1.0,-0.6294964771696819,0,0.0,True,0.08717697877079238,False,True,024
376,0,"{'mean': -0.3, 'sd': 0.37}",0.1,2,0.5994629859924316,0,"(0, 2)",381,0,False,0.0,0,1,1,1.0,False,True,0.1,0.1,1.0,-0.5117210478844846,0,0.0,False,0.2548654637836508,False,False,024
377,0,"{'mean': -0.3, 'sd': 0.37}",0.3,3,0.6328480243682861,0,"(1, 3)",382,0,False,0.0,0,1,1,0.0,False,True,0.3,0.3,1.0,-0.45752497354947513,1,0.0,False,0.6489519308009617,True,True,024
378,0,"{'mean': 0.3, 'sd': 0.37}",-0.5,1,0.7422780990600586,1,"(1, 3)",383,1,False,1.0,1,0,0,1.0,False,True,-0.5,0.5,-1.0,-0.29803130945655065,0,0.0,True,0.1327181265111507,True,True,024
379,1,"{'mean': -0.3, 'sd': 0.37}",-0.7,1,0.6255691051483154,0,"(1, 3)",384,0,True,1.0,1,0,0,0.0,True,True,-0.7,0.7,-1.0,-0.4690934753241988,0,0.0,True,0.009217330714479648,False,True,024
380,0,"{'mean': -0.3, 'sd': 0.37}",0.3,3,0.9510481357574463,0,"(0, 3)",385,0,False,0.0,0,1,1,1.0,False,True,0.3,0.3,1.0,-0.05019060177926081,0,0.0,False,0.34045459191810584,False,False,024
381,1,"{'mean': 0.3, 'sd': 0.37}",0.1,2,0.9015920162200928,1,"(0, 2)",386,1,False,1.0,0,1,1,0.0,True,True,0.1,0.1,1.0,-0.10359317141989806,0,0.0,False,0.4962393106412129,False,False,024
382,0,"{'mean': 0.3, 'sd': 0.37}",-0.1,1,1.0056240558624268,1,"(1, 3)",387,1,False,0.0,1,0,0,1.0,False,True,-0.1,0.1,-1.0,0.005608299907564478,0,1.0,False,0.388844057322079,False,True,024
383,1,"{'mean': 0.3, 'sd': 0.37}",0.3,3,0.9914891719818115,1,"(0, 3)",388,1,False,0.0,0,1,1,1.0,True,True,0.3,0.3,1.0,-0.008547251927293407,1,0.0,True,0.7467541255338206,True,True,024
384,1,"{'mean': 0.3, 'sd': 0.37}",0.5,3,0.60890793800354,1,"(1, 3)",389,1,True,0.0,0,1,1,0.0,True,True,0.5,0.5,1.0,-0.4960881918233517,1,0.0,True,0.9606318800612899,False,True,024
385,1,"{'mean': 0.3, 'sd': 0.37}",0.5,2,0.5140790939331055,1,"(0, 2)",390,1,False,0.0,0,1,1,0.0,True,True,0.5,0.5,1.0,-0.665378146117882,1,0.0,True,0.9857667240635456,False,True,024
386,1,"{'mean': 0.3, 'sd': 0.37}",0.1,3,0.6487071514129639,1,"(0, 3)",391,1,False,0.0,0,1,1,0.0,True,True,0.1,0.1,1.0,-0.4327738946016586,1,0.0,True,0.928565403401451,False,True,024
387,1,"{'mean': 0.3, 'sd': 0.37}",0.5,3,0.5686390399932861,1,"(1, 3)",392,1,True,0.0,0,1,1,0.0,True,True,0.5,0.5,1.0,-0.5645094222676869,1,0.0,True,0.9825756905744714,False,True,024
388,1,"{'mean': 0.3, 'sd': 0.37}",0.3,3,0.53792405128479,1,"(0, 3)",393,1,True,0.0,0,1,1,0.0,True,True,0.3,0.3,1.0,-0.6200378974012114,1,0.0,True,0.9699492519357419,False,True,024
389,1,"{'mean': 0.3, 'sd': 0.37}",0.5,3,0.47367310523986816,1,"(0, 3)",394,1,True,0.0,0,1,1,0.0,True,True,0.5,0.5,1.0,-0.7472378465986592,1,0.0,True,0.9866626767481855,False,True,024
390,1,"{'mean': 0.3, 'sd': 0.37}",0.1,2,0.7820160388946533,1,"(0, 2)",395,1,False,0.0,0,1,1,0.0,True,True,0.1,0.1,1.0,-0.2458800285516905,1,0.0,True,0.9290374770333091,False,True,024
391,0,"{'mean': 0.3, 'sd': 0.37}",0.1,2,0.5416519641876221,1,"(0, 3)",396,1,True,0.0,0,0,1,0.0,False,False,0.1,0.1,1.0,-0.613131616293024,1,0.0,True,0.8980948075978985,False,True,024
392,1,"{'mean': 0.3, 'sd': 0.37}",0.7,3,0.4474039077758789,1,"(1, 3)",397,1,False,0.0,0,1,1,0.0,True,True,0.7,0.7,1.0,-0.8042934955523641,1,0.0,True,0.9916292527938068,False,True,024
393,1,"{'mean': 0.3, 'sd': 0.37}",0.1,3,0.5088479518890381,1,"(1, 3)",398,1,True,0.0,0,1,1,0.0,True,True,0.1,0.1,1.0,-0.6756060263320784,1,0.0,True,0.9316492836607214,False,True,024
394,1,"{'mean': 0.3, 'sd': 0.37}",0.5,3,0.49633097648620605,1,"(1, 3)",399,1,True,0.0,0,1,1,0.0,True,True,0.5,0.5,1.0,-0.7005122834942225,1,0.0,True,0.9828900532861584,False,True,024
395,1,"{'mean': 0.3, 'sd': 0.37}",0.5,2,0.5064070224761963,1,"(0, 2)",400,1,False,0.0,0,1,1,0.0,True,True,0.5,0.5,1.0,-0.680414540799278,1,0.0,True,0.9878847357814927,False,True,024
396,1,"{'mean': 0.3, 'sd': 0.37}",0.1,3,0.7383110523223877,1,"(1, 3)",401,1,False,0.0,0,1,1,0.0,True,True,0.1,0.1,1.0,-0.30339006306782024,1,0.0,True,0.9296809242466877,False,True,024
397,0,"{'mean': 0.3, 'sd': 0.37}",0.5,2,1.0772850513458252,1,"(0, 3)",402,1,False,0.0,0,0,1,0.0,False,False,0.5,0.5,1.0,0.07444403478518719,1,0.0,True,0.9826895923155854,False,True,024
398,1,"{'mean': 0.3, 'sd': 0.37}",0.1,3,0.44793200492858887,1,"(1, 3)",403,1,False,0.0,0,1,1,0.0,True,True,0.1,0.1,1.0,-0.8031138327990704,1,0.0,True,0.9269419445259023,False,True,024
399,1,"{'mean': 0.3, 'sd': 0.37}",0.5,2,0.4127991199493408,1,"(0, 2)",404,1,False,0.0,0,1,1,0.0,True,True,0.5,0.5,1.0,-0.8847941967227232,1,0.0,True,0.9824095419865579,False,True,024
400,0,"{'mean': 0.3, 'sd': 0.37}",-0.3,1,0.8560709953308105,1,"(1, 3)",405,1,False,0.0,1,0,0,1.0,False,True,-0.3,0.3,-1.0,-0.15540196780902668,1,0.0,False,0.654366922385856,False,False,024
401,1,"{'mean': 0.3, 'sd': 0.37}",0.3,3,0.6442339420318604,1,"(0, 3)",406,1,False,0.0,0,1,1,1.0,True,True,0.3,0.3,1.0,-0.43969335481755684,1,0.0,True,0.8745185724209869,False,True,024
402,0,"{'mean': 0.3, 'sd': 0.37}",0.1,3,0.6680529117584229,1,"(1, 2)",407,1,True,0.0,0,0,1,0.0,False,False,0.1,0.1,1.0,-0.40338789936318,1,0.0,True,0.8676935556705393,False,True,024
403,1,"{'mean': -0.3, 'sd': 0.37}",-0.3,1,0.7669761180877686,0,"(1, 3)",408,0,False,1.0,1,0,0,1.0,True,True,-0.3,0.3,-1.0,-0.2652996148822109,0,0.0,False,0.48678213231661804,True,True,024
404,1,"{'mean': -0.3, 'sd': 0.37}",-0.9,0,0.8888990879058838,0,"(0, 3)",409,0,False,0.0,1,0,0,0.0,True,True,-0.9,0.9,-1.0,-0.11777156182808882,0,1.0,True,0.012552891347072435,False,True,024
405,0,"{'mean': -0.3, 'sd': 0.37}",0.3,3,0.7558419704437256,0,"(1, 3)",410,0,False,0.0,0,1,1,1.0,False,True,0.3,0.3,1.0,-0.2799229584578106,0,0.0,False,0.3465575855156284,False,False,024
406,1,"{'mean': -0.3, 'sd': 0.37}",-0.5,0,0.9381561279296875,0,"(0, 2)",411,0,False,0.0,1,0,0,1.0,True,True,-0.5,0.5,-1.0,-0.06383889614055756,0,0.0,True,0.05416531491545521,False,True,024
407,0,"{'mean': -0.3, 'sd': 0.37}",0.3,3,0.7616658210754395,0,"(0, 3)",412,0,False,0.0,0,1,1,1.0,False,True,0.3,0.3,1.0,-0.2722473745079766,0,0.0,False,0.416711171961374,False,False,024
408,1,"{'mean': -0.3, 'sd': 0.37}",-0.9,0,0.7858338356018066,0,"(0, 3)",413,0,False,0.0,1,0,0,1.0,True,True,-0.9,0.9,-1.0,-0.24100991398889574,0,0.0,True,0.01005064421010417,False,True,024
409,0,"{'mean': -0.3, 'sd': 0.37}",-0.1,2,0.9378139972686768,0,"(1, 2)",414,0,False,0.0,0,1,1,1.0,False,True,-0.1,0.1,-1.0,-0.06420364679432156,0,0.0,False,0.07350974136878051,False,False,024
410,1,"{'mean': -0.3, 'sd': 0.37}",-0.1,0,0.5361809730529785,0,"(0, 2)",415,0,False,0.0,1,0,0,1.0,True,True,-0.1,0.1,-1.0,-0.6232835386047711,0,0.0,True,0.10943421639139546,False,True,024
411,0,"{'mean': -0.3, 'sd': 0.37}",0.5,3,0.6442840099334717,0,"(1, 2)",416,0,False,0.0,0,0,1,1.0,False,False,0.5,0.5,1.0,-0.43961564088030025,1,0.0,False,0.7122366439400168,True,True,024
412,1,"{'mean': -0.3, 'sd': 0.37}",-0.3,1,0.8719079494476318,0,"(1, 3)",417,0,False,0.0,1,0,0,1.0,True,True,-0.3,0.3,-1.0,-0.13707142320533183,0,0.0,True,0.3337107642000165,True,True,024
413,0,"{'mean': 0.3, 'sd': 0.37}",0.1,0,0.5030539035797119,1,"(0, 2)",418,1,False,1.0,1,0,0,0.0,False,True,0.1,0.1,1.0,-0.6870579504496902,0,0.0,True,0.4904800237254179,False,True,024
414,0,"{'mean': 0.3, 'sd': 0.37}",-0.1,0,0.9347729682922363,1,"(0, 3)",419,1,True,0.0,1,0,0,0.0,False,True,-0.1,0.1,-1.0,-0.0674515938384125,0,1.0,False,0.3844913803804449,False,True,024
415,1,"{'mean': 0.3, 'sd': 0.37}",0.5,2,0.966141939163208,1,"(1, 2)",420,1,False,0.0,0,1,1,1.0,True,True,0.5,0.5,1.0,-0.03444452061194064,1,0.0,True,0.8798837238217425,True,True,024
416,1,"{'mean': -0.3, 'sd': 0.37}",-0.7,1,0.8721358776092529,0,"(1, 2)",421,0,False,1.0,1,0,0,1.0,True,True,-0.7,0.7,-1.0,-0.13681004426590074,0,1.0,True,0.12629599364495864,True,True,024
417,0,"{'mean': -0.3, 'sd': 0.37}",0.1,2,0.8297388553619385,0,"(0, 2)",422,0,False,0.0,0,1,1,1.0,False,True,0.1,0.1,1.0,-0.18664425979260538,0,0.0,False,0.2958320110638066,False,False,024
418,0,"{'mean': -0.3, 'sd': 0.37}",0.3,2,0.7536590099334717,0,"(1, 2)",423,0,True,0.0,0,1,1,0.0,False,True,0.3,0.3,1.0,-0.28281525473373925,1,0.0,False,0.682275643368275,True,True,024
419,1,"{'mean': -0.3, 'sd': 0.37}",-0.1,0,1.0830869674682617,0,"(0, 3)",424,0,False,0.0,1,0,0,1.0,True,True,-0.1,0.1,-1.0,0.07981526716622353,1,0.0,True,0.5393750939673941,False,False,024
420,1,"{'mean': -0.3, 'sd': 0.37}",-0.3,1,0.5998198986053467,0,"(1, 3)",425,0,False,0.0,1,0,0,0.0,True,True,-0.3,0.3,-1.0,-0.5111258378168084,0,0.0,True,0.21929165067761405,True,True,024
421,1,"{'mean': -0.3, 'sd': 0.37}",-0.3,0,0.7887930870056152,0,"(0, 3)",426,0,False,0.0,1,0,0,0.0,True,True,-0.3,0.3,-1.0,-0.23725123967022949,0,0.0,True,0.08644022012090001,False,True,024
422,0,"{'mean': -0.3, 'sd': 0.37}",0.1,2,1.111508846282959,0,"(1, 2)",427,0,False,0.0,0,1,1,1.0,False,True,0.1,0.1,1.0,0.1057184132595015,0,0.0,False,0.25407944567331775,False,False,024
423,0,"{'mean': 0.3, 'sd': 0.37}",-0.3,1,0.5796020030975342,1,"(1, 2)",428,1,False,1.0,1,0,0,1.0,False,True,-0.3,0.3,-1.0,-0.5454136125416953,0,0.0,True,0.0976781731066394,False,True,024
424,1,"{'mean': 0.3, 'sd': 0.37}",1.0,3,0.7387828826904297,1,"(0, 3)",429,1,False,0.0,0,1,1,1.0,True,True,1.0,1.0,1.0,-0.30275119999634487,1,1.0,True,0.9572842264508221,True,True,024
425,1,"{'mean': 0.3, 'sd': 0.37}",0.9,2,0.5417671203613281,1,"(0, 2)",430,1,False,0.0,0,1,1,0.0,True,True,0.9,0.9,1.0,-0.6129190371059264,1,0.0,True,0.997606366622536,False,True,024
426,1,"{'mean': 0.3, 'sd': 0.37}",0.5,3,0.6510169506072998,1,"(0, 3)",431,1,False,0.0,0,1,1,0.0,True,True,0.5,0.5,1.0,-0.42921959931331377,1,0.0,True,0.9892438536378477,False,True,024
427,0,"{'mean': 0.3, 'sd': 0.37}",0.1,1,0.9077210426330566,1,"(1, 2)",432,1,False,0.0,1,0,0,1.0,False,True,0.1,0.1,1.0,-0.09681816935288104,1,0.0,False,0.9303959268165742,False,False,024
428,0,"{'mean': 0.3, 'sd': 0.37}",-0.1,0,0.9432580471038818,1,"(0, 3)",433,1,False,0.0,1,0,0,0.0,False,True,-0.1,0.1,-1.0,-0.05841538892164926,1,0.0,False,0.77546939781933,False,False,024
429,1,"{'mean': 0.3, 'sd': 0.37}",0.5,2,0.6570529937744141,1,"(0, 2)",434,1,False,0.0,0,1,1,1.0,True,True,0.5,0.5,1.0,-0.4199906035153594,1,0.0,True,0.9646110918912973,False,True,024
430,1,"{'mean': 0.3, 'sd': 0.37}",0.5,3,0.8380379676818848,1,"(0, 3)",435,1,False,0.0,0,1,1,0.0,True,True,0.5,0.5,1.0,-0.1766918720301251,1,0.0,True,0.9861510332439015,False,True,024
431,0,"{'mean': 0.3, 'sd': 0.37}",0.5,3,0.784221887588501,1,"(1, 2)",436,1,True,0.0,0,0,1,0.0,False,False,0.5,0.5,1.0,-0.24306327879100925,1,0.0,True,0.9881886748708625,False,True,024
432,0,"{'mean': -0.3, 'sd': 0.37}",-0.1,0,1.1021130084991455,0,"(1, 2)",437,0,False,1.0,0,0,0,1.0,False,False,-0.1,0.1,-1.0,0.09722925402029889,1,0.0,False,0.8374429015881515,False,False,024
433,1,"{'mean': -0.3, 'sd': 0.37}",-0.3,0,0.872750997543335,0,"(0, 2)",438,0,True,0.0,1,0,0,0.0,True,True,-0.3,0.3,-1.0,-0.13610499000900553,0,1.0,True,0.4516951434499403,True,True,024
434,1,"{'mean': -0.3, 'sd': 0.37}",-0.5,1,0.5517590045928955,0,"(1, 3)",439,0,False,0.0,1,0,0,0.0,True,True,-0.5,0.5,-1.0,-0.5946439139188416,0,0.0,True,0.07479860485986096,False,True,024
435,1,"{'mean': -0.3, 'sd': 0.37}",-0.5,1,0.641787052154541,0,"(1, 2)",440,0,True,0.0,1,0,0,0.0,True,True,-0.5,0.5,-1.0,-0.4434987247782836,0,0.0,True,0.017815333841518535,False,True,024
436,1,"{'mean': -0.3, 'sd': 0.37}",-0.9,0,0.5266680717468262,0,"(0, 2)",441,0,False,0.0,1,0,0,0.0,True,True,-0.9,0.9,-1.0,-0.6411847737590725,0,0.0,True,0.0017349866432062931,False,True,024
437,0,"{'mean': -0.3, 'sd': 0.37}",0.1,3,0.9229369163513184,0,"(0, 3)",442,0,False,0.0,0,1,1,1.0,False,True,0.1,0.1,1.0,-0.08019439312993205,0,0.0,False,0.1599285142656265,False,False,024
438,1,"{'mean': 0.3, 'sd': 0.37}",0.3,2,0.6757888793945312,1,"(0, 2)",443,1,False,1.0,0,1,1,0.0,True,True,0.3,0.3,1.0,-0.3918745603056278,1,0.0,False,0.5562400174901851,True,True,024
439,1,"{'mean': 0.3, 'sd': 0.37}",0.1,2,0.5133669376373291,1,"(0, 2)",444,1,True,0.0,0,1,1,0.0,True,True,0.1,0.1,1.0,-0.6667644114553141,1,1.0,True,0.6647246629752755,False,True,024
440,0,"{'mean': 0.3, 'sd': 0.37}",-0.3,1,0.9411201477050781,1,"(1, 2)",445,1,False,0.0,1,0,0,1.0,False,True,-0.3,0.3,-1.0,-0.06068446667045689,0,0.0,False,0.2977635433271306,True,True,024
441,1,"{'mean': 0.3, 'sd': 0.37}",0.1,3,0.8807969093322754,1,"(1, 3)",446,1,False,0.0,0,1,1,1.0,True,True,0.1,0.1,1.0,-0.1269282025122989,0,0.0,True,0.4592200948798991,False,False,024
442,1,"{'mean': 0.3, 'sd': 0.37}",1.0,3,0.5035569667816162,1,"(0, 3)",447,1,True,0.0,0,1,1,0.0,True,True,1.0,1.0,1.0,-0.6860584316513182,1,0.0,True,0.9890032917423561,True,True,024
443,1,"{'mean': 0.3, 'sd': 0.37}",0.3,3,0.4996170997619629,1,"(1, 3)",448,1,True,0.0,0,1,1,0.0,True,True,0.3,0.3,1.0,-0.6939132744109915,1,0.0,True,0.9714030918779516,False,True,024
444,0,"{'mean': 0.3, 'sd': 0.37}",0.5,3,0.6702508926391602,1,"(1, 2)",449,1,True,0.0,0,0,1,0.0,False,False,0.5,0.5,1.0,-0.40010317006664164,1,0.0,True,0.9868012522766487,False,True,024
445,0,"{'mean': 0.3, 'sd': 0.37}",-0.1,1,0.805718183517456,1,"(1, 3)",450,1,False,0.0,1,0,0,1.0,False,True,-0.1,0.1,-1.0,-0.2160212458580771,1,0.0,False,0.835920303363473,False,False,024
446,0,"{'mean': 0.3, 'sd': 0.37}",-0.1,0,0.6866199970245361,1,"(0, 2)",451,1,False,0.0,1,0,0,0.0,False,True,-0.1,0.1,-1.0,-0.37597427367462743,1,0.0,False,0.680181163348153,False,False,024
447,0,"{'mean': 0.3, 'sd': 0.37}",-0.3,1,0.5031771659851074,1,"(1, 3)",452,1,False,0.0,1,0,0,0.0,False,True,-0.3,0.3,-1.0,-0.6868129522385629,0,0.0,False,0.30902236452665544,True,True,024
448,0,"{'mean': 0.3, 'sd': 0.37}",-0.3,1,0.6392691135406494,1,"(1, 2)",453,1,True,0.0,1,0,0,0.0,False,True,-0.3,0.3,-1.0,-0.4474297653115713,0,0.0,False,0.11671979220183482,False,True,024
449,1,"{'mean': 0.3, 'sd': 0.37}",0.3,3,0.7003839015960693,1,"(1, 3)",454,1,False,0.0,0,1,1,1.0,True,True,0.3,0.3,1.0,-0.3561266634204418,1,0.0,True,0.5048566484797774,True,True,024
450,1,"{'mean': 0.3, 'sd': 0.37}",0.1,2,0.6736960411071777,1,"(0, 2)",455,1,False,0.0,0,1,1,0.0,True,True,0.1,0.1,1.0,-0.3949762473765949,1,0.0,True,0.6271966721584953,False,True,024
451,1,"{'mean': 0.3, 'sd': 0.37}",0.3,2,0.6476171016693115,1,"(0, 2)",456,1,True,0.0,0,1,1,0.0,True,True,0.3,0.3,1.0,-0.43445564976125883,1,0.0,True,0.8641664210354028,False,True,024
452,1,"{'mean': 0.3, 'sd': 0.37}",0.7,2,0.5967879295349121,1,"(1, 2)",457,1,True,0.0,0,1,1,0.0,True,True,0.7,0.7,1.0,-0.5161934556072542,1,0.0,True,0.9900789707991839,False,True,024
453,1,"{'mean': 0.3, 'sd': 0.37}",0.1,2,0.7254970073699951,1,"(1, 2)",458,1,True,0.0,0,1,1,0.0,True,True,0.1,0.1,1.0,-0.3208983315871531,1,0.0,True,0.9308349457494747,False,True,024
454,0,"{'mean': 0.3, 'sd': 0.37}",-0.1,0,0.9322550296783447,1,"(0, 2)",459,1,False,0.0,1,0,0,1.0,False,True,-0.1,0.1,-1.0,-0.07014886473438765,1,0.0,False,0.7759292300234121,False,False,024
455,0,"{'mean': 0.3, 'sd': 0.37}",-0.7,1,0.7840609550476074,1,"(0, 3)",460,1,False,0.0,0,0,0,0.0,False,False,-0.7,0.7,-1.0,-0.2432685128687958,0,1.0,True,0.08368123632236273,True,True,024
456,0,"{'mean': 0.3, 'sd': 0.37}",0.1,3,0.9767458438873291,1,"(1, 2)",461,1,False,0.0,0,0,1,1.0,False,False,0.1,0.1,1.0,-0.023528800098416663,0,1.0,True,0.25113115115865564,False,False,024
457,1,"{'mean': 0.3, 'sd': 0.37}",0.5,2,0.5024600028991699,1,"(1, 2)",462,1,False,0.0,0,1,1,0.0,True,True,0.5,0.5,1.0,-0.6882392384374109,1,0.0,True,0.821221792046637,True,True,024
458,0,"{'mean': 0.3, 'sd': 0.37}",0.1,2,0.634613037109375,1,"(1, 3)",463,1,True,0.0,0,0,1,0.0,False,False,0.1,0.1,1.0,-0.4547398562221676,1,0.0,True,0.836853774193083,False,True,024
459,0,"{'mean': 0.3, 'sd': 0.37}",-0.1,1,1.0019078254699707,1,"(1, 2)",464,1,False,0.0,1,0,0,1.0,False,True,-0.1,0.1,-1.0,0.001906007882351575,1,0.0,False,0.6810882717922236,False,False,024
460,1,"{'mean': -0.3, 'sd': 0.37}",-0.1,0,0.5975470542907715,0,"(0, 3)",465,0,False,1.0,1,0,0,0.0,True,True,-0.1,0.1,-1.0,-0.5149222463261615,1,0.0,False,0.5383489591704589,False,False,024
461,1,"{'mean': -0.3, 'sd': 0.37}",-0.1,0,0.8296718597412109,0,"(0, 2)",466,0,True,0.0,1,0,0,0.0,True,True,-0.1,0.1,-1.0,-0.18672500607217823,0,1.0,True,0.421201921187351,True,True,024
462,1,"{'mean': -0.3, 'sd': 0.37}",-0.5,0,0.6184780597686768,0,"(0, 2)",467,0,True,0.0,1,0,0,0.0,True,True,-0.5,0.5,-1.0,-0.48049356107114427,0,0.0,True,0.06828073985391088,False,True,024
463,1,"{'mean': -0.3, 'sd': 0.37}",-0.5,1,0.49712705612182617,0,"(1, 2)",468,0,False,0.0,1,0,0,0.0,True,True,-0.5,0.5,-1.0,-0.698909639437035,0,0.0,True,0.01714736644220509,False,True,024
464,1,"{'mean': -0.3, 'sd': 0.37}",-0.1,0,0.6964221000671387,0,"(0, 2)",469,0,False,0.0,1,0,0,0.0,True,True,-0.1,0.1,-1.0,-0.36179933685996374,0,0.0,True,0.07746024477773357,False,True,024
465,1,"{'mean': -0.3, 'sd': 0.37}",-0.5,0,0.4735729694366455,0,"(0, 2)",470,0,True,0.0,1,0,0,0.0,True,True,-0.5,0.5,-1.0,-0.7474492717104072,0,0.0,True,0.01809022573917825,False,True,024
466,1,"{'mean': -0.3, 'sd': 0.37}",-0.3,0,0.5873160362243652,0,"(0, 2)",471,0,True,0.0,1,0,0,0.0,True,True,-0.3,0.3,-1.0,-0.5321922118300728,0,0.0,True,0.03151509571147993,False,True,024
467,1,"{'mean': -0.3, 'sd': 0.37}",-0.1,0,0.5537750720977783,0,"(0, 2)",472,0,True,0.0,1,0,0,0.0,True,True,-0.1,0.1,-1.0,-0.5909966817217502,0,0.0,True,0.08550926989406235,False,True,024
468,1,"{'mean': -0.3, 'sd': 0.37}",-0.3,1,0.6423971652984619,0,"(1, 2)",473,0,False,0.0,1,0,0,0.0,True,True,-0.3,0.3,-1.0,-0.44254852903294817,0,0.0,True,0.048227926076945524,False,True,024
469,1,"{'mean': -0.3, 'sd': 0.37}",-0.3,1,0.6875479221343994,0,"(1, 3)",474,0,True,0.0,1,0,0,0.0,True,True,-0.3,0.3,-1.0,-0.37462374694792316,0,0.0,True,0.038799495435537,False,True,024
470,1,"{'mean': -0.3, 'sd': 0.37}",-0.1,1,0.712244987487793,0,"(1, 3)",475,0,True,0.0,1,0,0,0.0,True,True,-0.1,0.1,-1.0,-0.33933334320305947,0,0.0,True,0.08961640990387239,False,True,024
471,1,"{'mean': -0.3, 'sd': 0.37}",-0.3,1,0.7299818992614746,0,"(1, 2)",476,0,True,0.0,1,0,0,0.0,True,True,-0.3,0.3,-1.0,-0.3147355406793411,0,0.0,True,0.049296238593212395,False,True,024
472,0,"{'mean': -0.3, 'sd': 0.37}",0.1,2,1.0173780918121338,0,"(1, 2)",477,0,False,0.0,0,1,1,1.0,False,True,0.1,0.1,1.0,0.01722881966979707,0,0.0,False,0.21373343630886021,False,False,024
473,0,"{'mean': -0.3, 'sd': 0.37}",-0.5,1,0.7490401268005371,0,"(0, 2)",478,0,False,0.0,0,0,0,1.0,False,False,-0.5,0.5,-1.0,-0.2889627230674513,0,0.0,True,0.03403618686556888,False,True,024
474,1,"{'mean': -0.3, 'sd': 0.37}",-0.3,1,0.7045221328735352,0,"(1, 3)",479,0,True,0.0,1,0,0,0.0,True,True,-0.3,0.3,-1.0,-0.3502355317088748,0,0.0,True,0.035333000990557285,False,True,024
475,1,"{'mean': -0.3, 'sd': 0.37}",-0.3,0,0.4918820858001709,0,"(0, 2)",480,0,False,0.0,1,0,0,0.0,True,True,-0.3,0.3,-1.0,-0.7095162542213798,0,0.0,True,0.035647049900516876,False,True,024
476,0,"{'mean': -0.3, 'sd': 0.37}",0.1,2,0.949275016784668,0,"(0, 2)",481,0,False,0.0,0,1,1,1.0,False,True,0.1,0.1,1.0,-0.052056725953950084,0,0.0,False,0.1985447474464533,False,False,024
477,1,"{'mean': -0.3, 'sd': 0.37}",-0.7,0,0.9940741062164307,0,"(0, 2)",482,0,False,0.0,1,0,0,1.0,True,True,-0.7,0.7,-1.0,-0.00594352156688328,0,0.0,True,0.01232690495937669,False,True,024
478,1,"{'mean': -0.3, 'sd': 0.37}",-0.5,0,0.6593039035797119,0,"(0, 3)",483,0,True,0.0,1,0,0,0.0,True,True,-0.5,0.5,-1.0,-0.4165706920860655,0,0.0,True,0.011700562236761632,False,True,024
479,1,"{'mean': -0.3, 'sd': 0.37}",-0.5,1,0.5929200649261475,0,"(1, 3)",484,0,False,0.0,1,0,0,0.0,True,True,-0.5,0.5,-1.0,-0.5226956868341103,0,0.0,True,0.011642358253152357,False,True,024
480,1,"{'mean': -0.3, 'sd': 0.37}",-0.5,0,0.47425103187561035,0,"(0, 2)",485,0,False,0.0,1,0,0,0.0,True,True,-0.5,0.5,-1.0,-0.7460184943641927,0,0.0,True,0.0116369525167527,False,True,024
481,1,"{'mean': -0.3, 'sd': 0.37}",-0.3,0,0.45003414154052734,0,"(0, 2)",486,0,True,0.0,1,0,0,0.0,True,True,-0.3,0.3,-1.0,-0.7984318290057005,0,0.0,True,0.029992632160551307,False,True,024
482,1,"{'mean': -0.3, 'sd': 0.37}",-0.7,0,0.5538702011108398,0,"(0, 2)",487,0,True,0.0,1,0,0,0.0,True,True,-0.7,0.7,-1.0,-0.5908249137097407,0,0.0,True,0.0050797023372855495,False,True,024
483,0,"{'mean': -0.3, 'sd': 0.37}",0.3,2,0.7574610710144043,0,"(1, 2)",488,0,False,0.0,0,1,1,1.0,False,True,0.3,0.3,1.0,-0.27778313431932244,0,0.0,False,0.3327758662903142,False,False,024
484,1,"{'mean': -0.3, 'sd': 0.37}",-0.5,1,0.8344459533691406,0,"(1, 3)",489,0,False,0.0,1,0,0,1.0,True,True,-0.5,0.5,-1.0,-0.18098730326324033,0,0.0,True,0.05180812707858948,False,True,024
485,1,"{'mean': -0.3, 'sd': 0.37}",-0.5,1,0.5576529502868652,0,"(1, 2)",490,0,True,0.0,1,0,0,0.0,True,True,-0.5,0.5,-1.0,-0.5840184629846811,0,0.0,True,0.015491377290351244,False,True,024
486,1,"{'mean': -0.3, 'sd': 0.37}",-0.3,0,0.532829999923706,0,"(0, 3)",491,0,False,0.0,1,0,0,0.0,True,True,-0.3,0.3,-1.0,-0.6295528551779782,0,0.0,True,0.030900423326559817,False,True,024
487,1,"{'mean': 0.3, 'sd': 0.37}",-0.1,2,0.8700828552246094,1,"(1, 2)",492,1,False,1.0,0,1,1,1.0,True,True,-0.1,0.1,-1.0,-0.13916683597780155,0,0.0,False,0.08516351422805174,False,False,024
488,1,"{'mean': 0.3, 'sd': 0.37}",0.3,3,0.8124730587005615,1,"(1, 3)",493,1,False,0.0,0,1,1,0.0,True,True,0.3,0.3,1.0,-0.2076725238503863,0,1.0,True,0.4626768393695956,False,False,024
489,1,"{'mean': 0.3, 'sd': 0.37}",0.5,2,0.6277339458465576,1,"(0, 2)",494,1,False,0.0,0,1,1,0.0,True,True,0.5,0.5,1.0,-0.46563885539084854,1,0.0,True,0.904180603476392,True,True,024
490,1,"{'mean': 0.3, 'sd': 0.37}",0.1,3,0.6586141586303711,1,"(1, 3)",495,1,False,0.0,0,1,1,0.0,True,True,0.1,0.1,1.0,-0.41761741119872275,1,0.0,True,0.884373587352844,False,True,024
491,1,"{'mean': 0.3, 'sd': 0.37}",0.3,3,0.5786209106445312,1,"(1, 3)",496,1,True,0.0,0,1,1,0.0,True,True,0.3,0.3,1.0,-0.5471077470230884,1,0.0,True,0.9460797122726781,False,True,024
492,1,"{'mean': 0.3, 'sd': 0.37}",0.3,3,0.5365250110626221,1,"(0, 3)",497,1,True,0.0,0,1,1,0.0,True,True,0.3,0.3,1.0,-0.6226420990555674,1,0.0,True,0.9614522803106844,False,True,024
493,1,"{'mean': 0.3, 'sd': 0.37}",0.3,2,0.49151182174682617,1,"(1, 2)",498,1,False,0.0,0,1,1,0.0,True,True,0.3,0.3,1.0,-0.7102692872999863,1,0.0,True,0.9650824214240807,False,True,024
494,1,"{'mean': 0.3, 'sd': 0.37}",0.5,2,0.43031811714172363,1,"(1, 2)",499,1,True,0.0,0,1,1,0.0,True,True,0.5,0.5,1.0,-0.8432305365107259,1,0.0,True,0.9861963882460194,False,True,024
495,0,"{'mean': 0.3, 'sd': 0.37}",-0.3,0,0.8579959869384766,1,"(0, 3)",500,1,False,0.0,1,0,0,1.0,False,True,-0.3,0.3,-1.0,-0.15315585673299584,1,0.0,False,0.6610805341467014,False,False,024
496,1,"{'mean': 0.3, 'sd': 0.37}",0.3,2,0.7607791423797607,1,"(1, 2)",501,1,False,0.0,0,1,1,1.0,True,True,0.3,0.3,1.0,-0.27341218350562824,1,0.0,True,0.8770030050314395,False,True,024
497,1,"{'mean': 0.3, 'sd': 0.37}",0.7,2,0.8600029945373535,1,"(1, 2)",502,1,True,0.0,0,1,1,0.0,True,True,0.7,0.7,1.0,-0.15081940772046734,1,0.0,True,0.9906772487210003,False,True,024
498,0,"{'mean': 0.3, 'sd': 0.37}",-0.1,0,0.7980949878692627,1,"(0, 2)",503,1,False,0.0,1,0,0,1.0,False,True,-0.1,0.1,-1.0,-0.22552765619850196,1,0.0,False,0.840178333291974,False,False,024
499,1,"{'mean': 0.3, 'sd': 0.37}",0.3,3,0.7812650203704834,1,"(1, 3)",504,1,False,0.0,0,1,1,1.0,True,True,0.3,0.3,1.0,-0.24684085204212564,1,0.0,True,0.9342109017361502,False,True,024
500,1,"{'mean': 0.3, 'sd': 0.37}",0.1,3,1.087432861328125,1,"(0, 3)",505,1,True,0.0,0,1,1,0.0,True,True,0.1,0.1,1.0,0.08381974536514289,1,0.0,True,0.900921747398028,False,True,024
501,1,"{'mean': 0.3, 'sd': 0.37}",0.1,3,0.6962049007415771,1,"(1, 3)",506,1,True,0.0,0,1,1,0.0,True,True,0.1,0.1,1.0,-0.3621112643569841,1,0.0,True,0.8825574692617304,False,True,024
502,1,"{'mean': 0.3, 'sd': 0.37}",0.5,3,0.6118841171264648,1,"(1, 3)",507,1,True,0.0,0,1,1,0.0,True,True,0.5,0.5,1.0,-0.49121236549954156,1,0.0,True,0.9776839018787876,False,True,024
503,1,"{'mean': -0.3, 'sd': 0.37}",-0.9,1,0.7950820922851562,0,"(1, 3)",508,0,False,1.0,1,0,0,1.0,True,True,-0.9,0.9,-1.0,-0.22930990892278239,0,1.0,True,0.08902409176878824,True,True,024
504,1,"{'mean': -0.3, 'sd': 0.37}",-0.9,1,0.5367600917816162,0,"(1, 3)",509,0,True,0.0,1,0,0,0.0,True,True,-0.9,0.9,-1.0,-0.6222040407574873,0,0.0,True,0.002758592484687037,False,True,024
505,1,"{'mean': -0.3, 'sd': 0.37}",-0.5,1,0.5277609825134277,0,"(1, 3)",510,0,True,0.0,1,0,0,0.0,True,True,-0.5,0.5,-1.0,-0.6391117824021564,0,0.0,True,0.010817742232976487,False,True,024
506,0,"{'mean': -0.3, 'sd': 0.37}",0.1,3,0.8427720069885254,0,"(0, 3)",511,0,False,0.0,0,1,1,1.0,False,True,0.1,0.1,1.0,-0.1710588119030393,0,0.0,False,0.17039643914484778,False,False,024
507,1,"{'mean': -0.3, 'sd': 0.37}",-0.5,0,0.7358260154724121,0,"(0, 3)",512,0,False,0.0,1,0,0,1.0,True,True,-0.5,0.5,-1.0,-0.30676158021943795,0,0.0,True,0.028531958721005838,False,True,024
508,0,"{'mean': -0.3, 'sd': 0.37}",0.1,2,0.9838771820068359,0,"(1, 2)",513,0,False,0.0,0,1,1,1.0,False,True,0.1,0.1,1.0,-0.01625420475363148,0,0.0,False,0.19054764991652598,False,False,024
509,1,"{'mean': -0.3, 'sd': 0.37}",-0.7,1,0.8023841381072998,0,"(1, 2)",514,0,False,0.0,1,0,0,1.0,True,True,-0.7,0.7,-1.0,-0.22016781059149215,0,0.0,True,0.011926915554240526,False,True,024
510,1,"{'mean': -0.3, 'sd': 0.37}",-0.3,1,0.7216141223907471,0,"(1, 2)",515,0,True,0.0,1,0,0,0.0,True,True,-0.3,0.3,-1.0,-0.3262647394846175,0,0.0,True,0.030060764839999247,False,True,024
511,1,"{'mean': -0.3, 'sd': 0.37}",-0.5,0,0.6861391067504883,0,"(0, 2)",516,0,False,0.0,1,0,0,0.0,True,True,-0.5,0.5,-1.0,-0.3766748922935774,0,0.0,True,0.013373144054552087,False,True,024
512,1,"{'mean': -0.3, 'sd': 0.37}",-0.3,0,0.7062160968780518,0,"(0, 2)",517,0,True,0.0,1,0,0,0.0,True,True,-0.3,0.3,-1.0,-0.34783400209419313,0,0.0,True,0.030400971678143627,False,True,024
513,1,"{'mean': -0.3, 'sd': 0.37}",-0.3,1,0.6845920085906982,0,"(1, 2)",518,0,False,0.0,1,0,0,0.0,True,True,-0.3,0.3,-1.0,-0.37893222606154786,0,0.0,True,0.034455536700356754,False,True,024
514,1,"{'mean': -0.3, 'sd': 0.37}",-0.1,0,0.5955009460449219,0,"(0, 2)",519,0,False,0.0,1,0,0,0.0,True,True,-0.1,0.1,-1.0,-0.5183523015315843,0,0.0,True,0.08716502805565571,False,True,024
515,1,"{'mean': -0.3, 'sd': 0.37}",-0.7,0,0.6532080173492432,0,"(0, 2)",520,0,True,0.0,1,0,0,0.0,True,True,-0.7,0.7,-1.0,-0.42585964400333887,0,0.0,True,0.007285994879050501,False,True,024
516,1,"{'mean': -0.3, 'sd': 0.37}",-0.1,1,0.5732769966125488,0,"(1, 2)",521,0,False,0.0,1,0,0,0.0,True,True,-0.1,0.1,-1.0,-0.5563862643930458,0,0.0,True,0.07197523165415996,False,True,024
517,1,"{'mean': -0.3, 'sd': 0.37}",-0.1,1,0.5704560279846191,0,"(1, 3)",522,0,True,0.0,1,0,0,0.0,True,True,-0.1,0.1,-1.0,-0.5613191889264003,0,0.0,True,0.10854934854223419,False,True,024
518,1,"{'mean': -0.3, 'sd': 0.37}",-0.9,1,0.6512200832366943,0,"(1, 2)",523,0,True,0.0,1,0,0,0.0,True,True,-0.9,0.9,-1.0,-0.42890762441817126,0,0.0,True,0.0030638444498217263,False,True,024
519,1,"{'mean': -0.3, 'sd': 0.37}",-0.5,0,0.4886929988861084,0,"(0, 3)",524,0,False,0.0,1,0,0,0.0,True,True,-0.5,0.5,-1.0,-0.7160208008039224,0,0.0,True,0.01084569847379613,False,True,024
520,0,"{'mean': -0.3, 'sd': 0.37}",0.1,2,1.0806469917297363,0,"(1, 2)",525,0,False,0.0,0,1,1,1.0,False,True,0.1,0.1,1.0,0.07755992818389745,0,0.0,False,0.17042851570698778,False,False,024
521,0,"{'mean': -0.3, 'sd': 0.37}",0.7,3,0.6904349327087402,0,"(0, 3)",526,0,False,0.0,0,1,1,0.0,False,True,0.7,0.7,1.0,-0.37043354271087475,1,1.0,True,0.8919631056468998,True,True,024
522,1,"{'mean': -0.3, 'sd': 0.37}",-0.1,1,0.9943630695343018,0,"(1, 3)",527,0,False,0.0,1,0,0,1.0,True,True,-0.1,0.1,-1.0,-0.00565287791625233,1,1.0,True,0.7358390187587092,False,False,024
523,1,"{'mean': 0.3, 'sd': 0.37}",0.9,2,0.7135200500488281,1,"(1, 2)",528,1,False,1.0,0,1,1,1.0,True,True,0.9,0.9,1.0,-0.3375447414806343,1,1.0,True,0.9931146837622047,False,True,024
524,0,"{'mean': 0.3, 'sd': 0.37}",-0.1,0,0.9293370246887207,1,"(0, 3)",529,1,False,0.0,1,0,0,1.0,False,True,-0.1,0.1,-1.0,-0.07328382373103424,1,0.0,False,0.8428630420998356,False,False,024
525,1,"{'mean': 0.3, 'sd': 0.37}",0.3,3,0.7301440238952637,1,"(1, 3)",530,1,False,0.0,0,1,1,1.0,True,True,0.3,0.3,1.0,-0.3145134712921956,1,0.0,True,0.9349538871623071,False,True,024
526,1,"{'mean': 0.3, 'sd': 0.37}",0.7,3,0.6523458957672119,1,"(0, 3)",531,1,True,0.0,0,1,1,0.0,True,True,0.7,0.7,1.0,-0.42718034274841926,1,0.0,True,0.9932062166802211,False,True,024
527,1,"{'mean': 0.3, 'sd': 0.37}",0.5,3,0.48182201385498047,1,"(0, 3)",532,1,True,0.0,0,1,1,0.0,True,True,0.5,0.5,1.0,-0.7301804989879999,1,0.0,True,0.9888408304442698,False,True,024
528,1,"{'mean': 0.3, 'sd': 0.37}",0.7,3,0.6209099292755127,1,"(0, 3)",533,1,True,0.0,0,1,1,0.0,True,True,0.7,0.7,1.0,-0.47656924899247805,1,0.0,True,0.9953322204989443,False,True,024
529,1,"{'mean': 0.3, 'sd': 0.37}",0.9,3,0.520366907119751,1,"(1, 3)",534,1,True,0.0,0,1,1,0.0,True,True,0.9,0.9,1.0,-0.6532211256037834,1,0.0,True,0.9982028234383415,False,True,024
530,1,"{'mean': 0.3, 'sd': 0.37}",0.7,2,0.4521160125732422,1,"(1, 2)",535,1,False,0.0,0,1,1,0.0,True,True,0.7,0.7,1.0,-0.7938164670976791,1,0.0,True,0.9956816985435434,False,True,024
531,1,"{'mean': 0.3, 'sd': 0.37}",0.5,2,0.42223596572875977,1,"(1, 2)",536,1,True,0.0,0,1,1,0.0,True,True,0.5,0.5,1.0,-0.862190960723412,1,0.0,True,0.9890679154842921,False,True,024
532,1,"{'mean': 0.3, 'sd': 0.37}",0.3,2,0.678879976272583,1,"(0, 2)",537,1,True,0.0,0,1,1,0.0,True,True,0.3,0.3,1.0,-0.38731093247894927,1,0.0,True,0.9714176459514419,False,True,024
533,1,"{'mean': 0.3, 'sd': 0.37}",0.3,3,0.7161271572113037,1,"(1, 3)",538,1,False,0.0,0,1,1,0.0,True,True,0.3,0.3,1.0,-0.3338975339188801,1,0.0,True,0.9673956436277423,False,True,024
534,1,"{'mean': 0.3, 'sd': 0.37}",0.5,2,0.6543371677398682,1,"(1, 2)",539,1,False,0.0,0,1,1,0.0,True,True,0.5,0.5,1.0,-0.42413251337078006,1,0.0,True,0.9864184787081556,False,True,024
535,1,"{'mean': 0.3, 'sd': 0.37}",1.0,2,0.5528299808502197,1,"(0, 2)",540,1,True,0.0,0,1,1,0.0,True,True,1.0,1.0,1.0,-0.5927047734656334,1,0.0,True,0.9987638811577054,False,True,024
