{"FBDuration": 0.5, "FBonset": 0, "ITI": 0.2388984192095155, "displayFB": true, "onset": 2, "punishment_amount": 0, "responseWindow": 1.5, "reward_amount": 1, "stim": {"motionDirection": "in", "oriBase": -60, "oriDirection": 1, "oriStrength": 0.775, "speedDirection": -1, "speedStrength": 0.775, "speed_start": 0.12, "speed_end": 0.06, "ori_start": -60, "ori_end": -30, "motion_direction": "in"}, "stimResponseInterval": 0.4217566156168031, "stimulusDuration": 1.5, "trial_count": 1, "ts": "orientation", "trial_type": "threshold_estimation", "exp_stage": "adaptive_procedure", "decision_var": 30, "response": "right", "rt": 0.4486156549974112, "FB": 1, "quest_estimate": 24.07322173682313, "trial_time": 2.934110709989909}
{"FBDuration": 0.5, "FBonset": 0, "ITI": 0.32590024204072676, "displayFB": true, "onset": 6.160655034826319, "punishment_amount": 0, "responseWindow": 1.5, "reward_amount": 1, "stim": {"motionDirection": "in", "oriBase": 30, "oriDirection": 1, "oriStrength": 0.775, "speedDirection": -1, "speedStrength": 0.775, "speed_start": 0.12, "speed_end": 0.06, "ori_start": 30, "ori_end": 55.24827267259363, "motion_direction": "in"}, "stimResponseInterval": 0.9382170249812551, "stimulusDuration": 1.5, "trial_count": 2, "ts": "orientation", "trial_type": "threshold_estimation", "exp_stage": "adaptive_procedure", "decision_var": 25.24827267259363, "response": "right", "rt": 0.32353848600178026, "FB": 1, "quest_estimate": 18.786687319850643, "trial_time": 3.3292429779976374}
{"FBDuration": 0.5, "FBonset": 0, "ITI": 0.794994474263393, "displayFB": true, "onset": 10.9247723018483, "punishment_amount": 0, "responseWindow": 1.5, "reward_amount": 1, "stim": {"motionDirection": "out", "oriBase": 30, "oriDirection": -1, "oriStrength": 0.775, "speedDirection": 1, "speedStrength": 0.775, "speed_start": 0.12, "speed_end": 0.18, "ori_start": 30, "ori_end": 11.082157857295869, "motion_direction": "out"}, "stimResponseInterval": 0.17718250186996787, "stimulusDuration": 1.5, "trial_count": 3, "ts": "orientation", "trial_type": "threshold_estimation", "exp_stage": "adaptive_procedure", "decision_var": 18.91784214270413, "response": "left", "rt": 0.749295813991921, "FB": 1, "quest_estimate": 14.136838753186936, "trial_time": 3.0039429149910575}
{"FBDuration": 0.5, "FBonset": 0, "ITI": 0.26781598393623074, "displayFB": true, "onset": 15.396949277981662, "punishment_amount": 0, "responseWindow": 1.5, "reward_amount": 1, "stim": {"motionDirection": "in", "oriBase": -60, "oriDirection": 1, "oriStrength": 0.775, "speedDirection": -1, "speedStrength": 0.775, "speed_start": 0.12, "speed_end": 0.06, "ori_start": -60, "ori_end": -46.27354509298452, "motion_direction": "in"}, "stimResponseInterval": 0.24881007897062313, "stimulusDuration": 1.5, "trial_count": 4, "ts": "orientation", "trial_type": "threshold_estimation", "exp_stage": "adaptive_procedure", "decision_var": 13.726454907015476, "response": "right", "rt": 0.43098287799512036, "FB": 1, "quest_estimate": 10.111003574728382, "trial_time": 2.756000480003422}
{"FBDuration": 0.5, "FBonset": 0, "ITI": 0.8434772101903176, "displayFB": true, "onset": 19.413575340888514, "punishment_amount": 0, "responseWindow": 1.5, "reward_amount": 1, "stim": {"motionDirection": "in", "oriBase": -60, "oriDirection": 1, "oriStrength": 0.775, "speedDirection": 1, "speedStrength": 0.775, "speed_start": 0.12, "speed_end": 0.18, "ori_start": -60, "ori_end": -50.57877478911013, "motion_direction": "in"}, "stimResponseInterval": 0.23281919142560914, "stimulusDuration": 1.5, "trial_count": 5, "ts": "orientation", "trial_type": "threshold_estimation", "exp_stage": "adaptive_procedure", "decision_var": 9.421225210889876, "response": "right", "rt": 0.4182470099913189, "FB": 1, "quest_estimate": 6.664880439222404, "trial_time": 2.729875463002827}
{"FBDuration": 0.5, "FBonset": 0, "ITI": 0.5775721566958294, "displayFB": true, "onset": 23.98987174250444, "punishment_amount": 0, "responseWindow": 1.5, "reward_amount": 1, "stim": {"motionDirection": "in", "oriBase": -60, "oriDirection": -1, "oriStrength": 0.775, "speedDirection": 1, "speedStrength": 0.775, "speed_start": 0.12, "speed_end": 0.18, "ori_start": -60, "ori_end": -65.84488903648717, "motion_direction": "in"}, "stimResponseInterval": 0.3847133838693939, "stimulusDuration": 1.5, "trial_count": 6, "ts": "orientation", "trial_type": "threshold_estimation", "exp_stage": "adaptive_procedure", "decision_var": 5.844889036487174, "response": "left", "rt": 0.46386857000470627, "FB": 1, "quest_estimate": 3.739291530169268, "trial_time": 2.9254623770102626}
{"FBDuration": 0.5, "FBonset": 0, "ITI": 0.34177148913496813, "displayFB": true, "onset": 28.452157283069663, "punishment_amount": 0, "responseWindow": 1.5, "reward_amount": 1, "stim": {"motionDirection": "in", "oriBase": 30, "oriDirection": -1, "oriStrength": 0.775, "speedDirection": -1, "speedStrength": 0.775, "speed_start": 0.12, "speed_end": 0.06, "ori_start": 30, "ori_end": 27.13093394731133, "motion_direction": "in"}, "stimResponseInterval": 0.28351868780742984, "stimulusDuration": 1.5, "trial_count": 7, "ts": "orientation", "trial_type": "threshold_estimation", "exp_stage": "adaptive_procedure", "decision_var": 2.8690660526886695, "response": "left", "rt": 0.46184912700846326, "FB": 1, "quest_estimate": 1.2775483115610307, "trial_time": 2.819893741994747}
{"FBDuration": 0.5, "FBonset": 0, "ITI": 0.9244053425603682, "displayFB": true, "onset": 32.57744746001206, "punishment_amount": 0, "responseWindow": 1.5, "reward_amount": 1, "stim": {"motionDirection": "out", "oriBase": -60, "oriDirection": -1, "oriStrength": 0.775, "speedDirection": 1, "speedStrength": 0.775, "speed_start": 0.12, "speed_end": 0.18, "ori_start": -60, "ori_end": -60.428786769618426, "motion_direction": "out"}, "stimResponseInterval": 0.21717735130271854, "stimulusDuration": 1.5, "trial_count": 8, "ts": "orientation", "trial_type": "threshold_estimation", "exp_stage": "adaptive_procedure", "decision_var": 0.42878676961843, "response": "right", "rt": 0.5302504099963699, "FB": 0, "quest_estimate": 8.180471693050336, "trial_time": 2.8172848529939074}
{"FBDuration": 0.5, "FBonset": 0, "ITI": 0.5639624672340324, "displayFB": true, "onset": 37.219030153875146, "punishment_amount": 0, "responseWindow": 1.5, "reward_amount": 1, "stim": {"motionDirection": "in", "oriBase": -60, "oriDirection": -1, "oriStrength": 0.775, "speedDirection": -1, "speedStrength": 0.775, "speed_start": 0.12, "speed_end": 0.06, "ori_start": -60, "ori_end": -65.3258751666726, "motion_direction": "in"}, "stimResponseInterval": 0.6939394252182867, "stimulusDuration": 1.5, "trial_count": 9, "ts": "orientation", "trial_type": "threshold_estimation", "exp_stage": "adaptive_procedure", "decision_var": 5.325875166672603, "response": "right", "rt": 0.6644585000030929, "FB": 0, "quest_estimate": 15.711653662528706, "trial_time": 3.430718482006341}
{"FBDuration": 0.5, "FBonset": 0, "ITI": 0.12062219445566169, "displayFB": true, "onset": 41.97693204632746, "punishment_amount": 0, "responseWindow": 1.5, "reward_amount": 1, "stim": {"motionDirection": "out", "oriBase": -60, "oriDirection": -1, "oriStrength": 0.775, "speedDirection": -1, "speedStrength": 0.775, "speed_start": 0.12, "speed_end": 0.06, "ori_start": -60, "ori_end": -72.20010514071362, "motion_direction": "out"}, "stimResponseInterval": 0.7436025318513502, "stimulusDuration": 1.5, "trial_count": 10, "ts": "orientation", "trial_type": "threshold_estimation", "exp_stage": "adaptive_procedure", "decision_var": 12.20010514071361, "response": "left", "rt": 0.6150669210037449, "FB": 1, "quest_estimate": 12.806399548499773, "trial_time": 3.4444027690042276}
{"FBDuration": 0.5, "FBonset": 0, "ITI": 0.7185914352296479, "displayFB": true, "onset": 46.34115677263448, "punishment_amount": 0, "responseWindow": 1.5, "reward_amount": 1, "stim": {"motionDirection": "in", "oriBase": -60, "oriDirection": 1, "oriStrength": 0.775, "speedDirection": 1, "speedStrength": 0.775, "speed_start": 0.12, "speed_end": 0.18, "ori_start": -60, "ori_end": -50.43411349476998, "motion_direction": "in"}, "stimResponseInterval": 0.7354236335962809, "stimulusDuration": 1.5, "trial_count": 11, "ts": "orientation", "trial_type": "threshold_estimation", "exp_stage": "adaptive_procedure", "decision_var": 9.565886505230019, "response": "right", "rt": 0.44643130400800146, "FB": 1, "quest_estimate": 10.596401547167524, "trial_time": 3.254063168002176}
{"FBDuration": 0.5, "FBonset": 0, "ITI": 0.2524516510573662, "displayFB": true, "onset": 51.29517184146041, "punishment_amount": 0, "responseWindow": 1.5, "reward_amount": 1, "stim": {"motionDirection": "out", "oriBase": -60, "oriDirection": 1, "oriStrength": 0.775, "speedDirection": -1, "speedStrength": 0.775, "speed_start": 0.12, "speed_end": 0.06, "ori_start": -60, "ori_end": -51.62023879229658, "motion_direction": "out"}, "stimResponseInterval": 0.4990545381412892, "stimulusDuration": 1.5, "trial_count": 12, "ts": "orientation", "trial_type": "threshold_estimation", "exp_stage": "adaptive_procedure", "decision_var": 8.379761207703417, "response": "right", "rt": 0.3428157759917667, "FB": 1, "quest_estimate": 8.935220338794103, "trial_time": 2.905930663997424}
{"FBDuration": 0.5, "FBonset": 0, "ITI": 0.8455506236552659, "displayFB": true, "onset": 55.546678030659066, "punishment_amount": 0, "responseWindow": 1.5, "reward_amount": 1, "stim": {"motionDirection": "in", "oriBase": -60, "oriDirection": 1, "oriStrength": 0.775, "speedDirection": -1, "speedStrength": 0.775, "speed_start": 0.12, "speed_end": 0.06, "ori_start": -60, "ori_end": -52.49783546620702, "motion_direction": "in"}, "stimResponseInterval": 0.2703400699614552, "stimulusDuration": 1.5, "trial_count": 13, "ts": "orientation", "trial_type": "threshold_estimation", "exp_stage": "adaptive_procedure", "decision_var": 7.502164533792978, "response": "right", "rt": 0.42117446499469224, "FB": 1, "quest_estimate": 7.663080358822782, "trial_time": 2.761408256003051}
{"FBDuration": 0.5, "FBonset": 0, "ITI": 0.9001420605058748, "displayFB": true, "onset": 60.162568724275786, "punishment_amount": 0, "responseWindow": 1.5, "reward_amount": 1, "stim": {"motionDirection": "in", "oriBase": -60, "oriDirection": 1, "oriStrength": 0.775, "speedDirection": 1, "speedStrength": 0.775, "speed_start": 0.12, "speed_end": 0.18, "ori_start": -60, "ori_end": -53.205743715689465, "motion_direction": "in"}, "stimResponseInterval": 0.27072746374388723, "stimulusDuration": 1.5, "trial_count": 14, "ts": "orientation", "trial_type": "threshold_estimation", "exp_stage": "adaptive_procedure", "decision_var": 6.7942562843105385, "response": "right", "rt": 0.45700990900513716, "FB": 1, "quest_estimate": 6.662769067125733, "trial_time": 2.7848012530012056}
{"FBDuration": 0.5, "FBonset": 0, "ITI": 0.9626656071173736, "displayFB": true, "onset": 64.83343824852555, "punishment_amount": 0, "responseWindow": 1.5, "reward_amount": 1, "stim": {"motionDirection": "out", "oriBase": -60, "oriDirection": 1, "oriStrength": 0.775, "speedDirection": 1, "speedStrength": 0.775, "speed_start": 0.12, "speed_end": 0.18, "ori_start": -60, "ori_end": -53.76640589964138, "motion_direction": "out"}, "stimResponseInterval": 0.15080767819780727, "stimulusDuration": 1.5, "trial_count": 15, "ts": "orientation", "trial_type": "threshold_estimation", "exp_stage": "adaptive_procedure", "decision_var": 6.233594100358623, "response": "left", "rt": 0.5062284349987749, "FB": 0, "quest_estimate": 9.332699411406988, "trial_time": 2.7195391050045146}
{"FBDuration": 0.5, "FBonset": 0, "ITI": 0.6859168064233097, "displayFB": true, "onset": 69.44691153384073, "punishment_amount": 0, "responseWindow": 1.5, "reward_amount": 1, "stim": {"motionDirection": "in", "oriBase": 30, "oriDirection": 1, "oriStrength": 0.775, "speedDirection": 1, "speedStrength": 0.775, "speed_start": 0.12, "speed_end": 0.18, "ori_start": 30, "ori_end": 37.363510336944415, "motion_direction": "in"}, "stimResponseInterval": 0.03196691456739076, "stimulusDuration": 1.5, "trial_count": 16, "ts": "orientation", "trial_type": "threshold_estimation", "exp_stage": "adaptive_procedure", "decision_var": 7.363510336944412, "response": "right", "rt": 0.6044973999960348, "FB": 1, "quest_estimate": 8.327332363557591, "trial_time": 2.712007492998964}
{"FBDuration": 0.5, "FBonset": 0, "ITI": 0.8836202201997758, "displayFB": true, "onset": 73.66479525483143, "punishment_amount": 0, "responseWindow": 1.5, "reward_amount": 1, "stim": {"motionDirection": "out", "oriBase": 30, "oriDirection": 1, "oriStrength": 0.775, "speedDirection": -1, "speedStrength": 0.775, "speed_start": 0.12, "speed_end": 0.06, "ori_start": 30, "ori_end": 36.97630919410953, "motion_direction": "out"}, "stimResponseInterval": 0.29965695590397046, "stimulusDuration": 1.5, "trial_count": 17, "ts": "orientation", "trial_type": "threshold_estimation", "exp_stage": "adaptive_procedure", "decision_var": 6.9763091941095325, "response": "right", "rt": 0.36562784999841824, "FB": 1, "quest_estimate": 7.6102025339115436, "trial_time": 2.7342928129946813}
{"FBDuration": 0.5, "FBonset": 0, "ITI": 0.8501812119647736, "displayFB": true, "onset": 78.34807243093518, "punishment_amount": 0, "responseWindow": 1.5, "reward_amount": 1, "stim": {"motionDirection": "in", "oriBase": 30, "oriDirection": -1, "oriStrength": 0.775, "speedDirection": 1, "speedStrength": 0.775, "speed_start": 0.12, "speed_end": 0.18, "ori_start": 30, "ori_end": 23.264373270822265, "motion_direction": "in"}, "stimResponseInterval": 0.1628163056450116, "stimulusDuration": 1.5, "trial_count": 18, "ts": "orientation", "trial_type": "threshold_estimation", "exp_stage": "adaptive_procedure", "decision_var": 6.735626729177735, "response": "left", "rt": 0.7031899040011922, "FB": 1, "quest_estimate": 7.101317081498443, "trial_time": 2.9391533589950996}
{"FBDuration": 0.5, "FBonset": 0, "ITI": 0.5744388745965725, "displayFB": true, "onset": 82.86106994854497, "punishment_amount": 0, "responseWindow": 1.5, "reward_amount": 1, "stim": {"motionDirection": "in", "oriBase": -60, "oriDirection": -1, "oriStrength": 0.775, "speedDirection": -1, "speedStrength": 0.775, "speed_start": 0.12, "speed_end": 0.06, "ori_start": -60, "ori_end": -66.58200550486143, "motion_direction": "in"}, "stimResponseInterval": 0.3530066289841638, "stimulusDuration": 1.5, "trial_count": 19, "ts": "orientation", "trial_type": "threshold_estimation", "exp_stage": "adaptive_procedure", "decision_var": 6.582005504861424, "response": "right", "rt": 0.4692431160074193, "FB": 0, "quest_estimate": 8.431099886066434, "trial_time": 2.882659605005756}
{"FBDuration": 0.5, "FBonset": 0, "ITI": 0.816513571319962, "displayFB": true, "onset": 87.28851545212571, "punishment_amount": 0, "responseWindow": 1.5, "reward_amount": 1, "stim": {"motionDirection": "in", "oriBase": -60, "oriDirection": 1, "oriStrength": 0.775, "speedDirection": -1, "speedStrength": 0.775, "speed_start": 0.12, "speed_end": 0.06, "ori_start": -60, "ori_end": -53.02650657273682, "motion_direction": "in"}, "stimResponseInterval": 0.4701183752983491, "stimulusDuration": 1.5, "trial_count": 20, "ts": "orientation", "trial_type": "threshold_estimation", "exp_stage": "adaptive_procedure", "decision_var": 6.9734934272631754, "response": "right", "rt": 0.4408481170103187, "FB": 1, "quest_estimate": 7.813333985243549, "trial_time": 2.9775691719987663}
{"FBDuration": 0.5, "FBonset": 0, "ITI": 0.9262502645298594, "displayFB": true, "onset": 92.07514739874402, "punishment_amount": 0, "responseWindow": 1.5, "reward_amount": 1, "stim": {"motionDirection": "out", "oriBase": -60, "oriDirection": -1, "oriStrength": 0.775, "speedDirection": 1, "speedStrength": 0.775, "speed_start": 0.12, "speed_end": 0.18, "ori_start": -60, "ori_end": -66.8192618433947, "motion_direction": "out"}, "stimResponseInterval": 0.20750682767488615, "stimulusDuration": 1.5, "trial_count": 21, "ts": "orientation", "trial_type": "threshold_estimation", "exp_stage": "adaptive_procedure", "decision_var": 6.819261843394695, "response": "right", "rt": 0.4035345860029338, "FB": 0, "quest_estimate": 8.972166833087194, "trial_time": 2.6807860150001943}
