{"FBDuration": 0.5, "FBonset": 0, "ITI": 0.8327321206574618, "displayFB": true, "onset": 2, "punishment_amount": 0, "responseWindow": 1.5, "reward_amount": 1, "stim": {"motionDirection": "out", "oriBase": -60, "oriDirection": -1, "oriStrength": 0.775, "speedDirection": 1, "speedStrength": 0.775, "speed_start": 0.12, "speed_end": 0.18, "ori_start": -60, "ori_end": -90, "motion_direction": "out"}, "stimResponseInterval": 0.41676719065908974, "stimulusDuration": 1.5, "trial_count": 1, "ts": "motion", "trial_type": "threshold_estimation", "exp_stage": "adaptive_procedure", "decision_var": 0.06, "response": "up", "rt": 0.4906120719970204, "FB": 1, "quest_estimate": 0.05425105693555686, "trial_time": 2.9671766819956247}
{"FBDuration": 0.5, "FBonset": 0, "ITI": 0.3415602998825388, "displayFB": true, "onset": 6.749499311316551, "punishment_amount": 0, "responseWindow": 1.5, "reward_amount": 1, "stim": {"motionDirection": "in", "oriBase": -60, "oriDirection": 1, "oriStrength": 0.775, "speedDirection": 1, "speedStrength": 0.775, "speed_start": 0.12, "speed_end": 0.18500662407976748, "ori_start": -60, "ori_end": -30, "motion_direction": "in"}, "stimResponseInterval": 0.1157054963700479, "stimulusDuration": 1.5, "trial_count": 2, "ts": "motion", "trial_type": "threshold_estimation", "exp_stage": "adaptive_procedure", "decision_var": 0.06500662407976748, "response": "up", "rt": 0.4321926560078282, "FB": 1, "quest_estimate": 0.04863214910851875, "trial_time": 2.6240582119789906}
{"FBDuration": 0.5, "FBonset": 0, "ITI": 0.6730397716419849, "displayFB": true, "onset": 10.706765107569138, "punishment_amount": 0, "responseWindow": 1.5, "reward_amount": 1, "stim": {"motionDirection": "in", "oriBase": 30, "oriDirection": -1, "oriStrength": 0.775, "speedDirection": -1, "speedStrength": 0.775, "speed_start": 0.12, "speed_end": 0.06273100269602844, "ori_start": 30, "ori_end": 0, "motion_direction": "in"}, "stimResponseInterval": 0.883216239600054, "stimulusDuration": 1.5, "trial_count": 3, "ts": "motion", "trial_type": "threshold_estimation", "exp_stage": "adaptive_procedure", "decision_var": 0.05726899730397156, "response": "down", "rt": 0.3348288639972452, "FB": 1, "quest_estimate": 0.04310439980388459, "trial_time": 3.289602795004612}
{"FBDuration": 0.5, "FBonset": 0, "ITI": 0.9804065900340155, "displayFB": true, "onset": 15.763021118811178, "punishment_amount": 0, "responseWindow": 1.5, "reward_amount": 1, "stim": {"motionDirection": "out", "oriBase": 30, "oriDirection": -1, "oriStrength": 0.775, "speedDirection": 1, "speedStrength": 0.775, "speed_start": 0.12, "speed_end": 0.16968835563060156, "ori_start": 30, "ori_end": 0, "motion_direction": "out"}, "stimResponseInterval": 0.6771438490260908, "stimulusDuration": 1.5, "trial_count": 4, "ts": "motion", "trial_type": "threshold_estimation", "exp_stage": "adaptive_procedure", "decision_var": 0.04968835563060157, "response": "up", "rt": 0.4329413920058869, "FB": 1, "quest_estimate": 0.03772313500216366, "trial_time": 3.1882356080168393}
{"FBDuration": 0.5, "FBonset": 0, "ITI": 0.6895785055165056, "displayFB": true, "onset": 20.920571557871284, "punishment_amount": 0, "responseWindow": 1.5, "reward_amount": 1, "stim": {"motionDirection": "out", "oriBase": -60, "oriDirection": 1, "oriStrength": 0.775, "speedDirection": 1, "speedStrength": 0.775, "speed_start": 0.12, "speed_end": 0.16239236587134132, "ori_start": -60, "ori_end": -30, "motion_direction": "out"}, "stimResponseInterval": 0.1833223662446749, "stimulusDuration": 1.5, "trial_count": 5, "ts": "motion", "trial_type": "threshold_estimation", "exp_stage": "adaptive_procedure", "decision_var": 0.04239236587134132, "response": "up", "rt": 0.542667140980484, "FB": 1, "quest_estimate": 0.0325356750031839, "trial_time": 2.8027119880134705}
{"FBDuration": 0.5, "FBonset": 0, "ITI": 0.08208102175981324, "displayFB": true, "onset": 25.293472429632466, "punishment_amount": 0, "responseWindow": 1.5, "reward_amount": 1, "stim": {"motionDirection": "in", "oriBase": -60, "oriDirection": -1, "oriStrength": 0.775, "speedDirection": -1, "speedStrength": 0.775, "speed_start": 0.12, "speed_end": 0.08451934827735848, "ori_start": -60, "ori_end": -90, "motion_direction": "in"}, "stimResponseInterval": 0.3693119762353835, "stimulusDuration": 1.5, "trial_count": 6, "ts": "motion", "trial_type": "threshold_estimation", "exp_stage": "adaptive_procedure", "decision_var": 0.03548065172264152, "response": "down", "rt": 0.4104940250108484, "FB": 1, "quest_estimate": 0.02757987347379212, "trial_time": 2.85215499100741}
{"FBDuration": 0.5, "FBonset": 0, "ITI": 0.8357653878089604, "displayFB": true, "onset": 29.244865427627662, "punishment_amount": 0, "responseWindow": 1.5, "reward_amount": 1, "stim": {"motionDirection": "out", "oriBase": 30, "oriDirection": 1, "oriStrength": 0.775, "speedDirection": 1, "speedStrength": 0.775, "speed_start": 0.12, "speed_end": 0.1490212287278828, "ori_start": 30, "ori_end": 60, "motion_direction": "out"}, "stimResponseInterval": 0.6770693738598315, "stimulusDuration": 1.5, "trial_count": 7, "ts": "motion", "trial_type": "threshold_estimation", "exp_stage": "adaptive_procedure", "decision_var": 0.029021228727882785, "response": "up", "rt": 0.40728546801256016, "FB": 1, "quest_estimate": 0.02288397823965256, "trial_time": 3.157682691991795}
{"FBDuration": 0.5, "FBonset": 0, "ITI": 0.011017117119818343, "displayFB": true, "onset": 34.25770018929646, "punishment_amount": 0, "responseWindow": 1.5, "reward_amount": 1, "stim": {"motionDirection": "out", "oriBase": 30, "oriDirection": -1, "oriStrength": 0.775, "speedDirection": -1, "speedStrength": 0.775, "speed_start": 0.12, "speed_end": 0.09694738393684008, "ori_start": 30, "ori_end": 0, "motion_direction": "out"}, "stimResponseInterval": 0.9365819138974378, "stimulusDuration": 1.5, "trial_count": 8, "ts": "motion", "trial_type": "threshold_estimation", "exp_stage": "adaptive_procedure", "decision_var": 0.02305261606315992, "response": "down", "rt": 0.3014418999955524, "FB": 1, "quest_estimate": 0.018465820629313144, "trial_time": 3.2992803810047917}
{"FBDuration": 0.5, "FBonset": 0, "ITI": 0.8342955246179131, "displayFB": true, "onset": 38.70529922031371, "punishment_amount": 0, "responseWindow": 1.5, "reward_amount": 1, "stim": {"motionDirection": "in", "oriBase": -60, "oriDirection": -1, "oriStrength": 0.775, "speedDirection": -1, "speedStrength": 0.775, "speed_start": 0.12, "speed_end": 0.10241319423581656, "ori_start": -60, "ori_end": -90, "motion_direction": "in"}, "stimResponseInterval": 0.6043896055096103, "stimulusDuration": 1.5, "trial_count": 9, "ts": "motion", "trial_type": "threshold_estimation", "exp_stage": "adaptive_procedure", "decision_var": 0.017586805764183436, "response": "down", "rt": 0.3357950360223185, "FB": 1, "quest_estimate": 0.014333901889306937, "trial_time": 3.0087214229861274}
{"FBDuration": 0.5, "FBonset": 0, "ITI": 0.09344056025944547, "displayFB": true, "onset": 43.64398435044124, "punishment_amount": 0, "responseWindow": 1.5, "reward_amount": 1, "stim": {"motionDirection": "in", "oriBase": 30, "oriDirection": 1, "oriStrength": 0.775, "speedDirection": 1, "speedStrength": 0.775, "speed_start": 0.12, "speed_end": 0.13261532972680537, "ori_start": 30, "ori_end": 60, "motion_direction": "in"}, "stimResponseInterval": 0.6480144035503832, "stimulusDuration": 1.5, "trial_count": 10, "ts": "motion", "trial_type": "threshold_estimation", "exp_stage": "adaptive_procedure", "decision_var": 0.012615329726805381, "response": "up", "rt": 0.32800275398767553, "FB": 1, "quest_estimate": 0.01048884562895664, "trial_time": 3.059101607010234}
{"FBDuration": 0.5, "FBonset": 0, "ITI": 0.7104890621399358, "displayFB": true, "onset": 47.885439314251066, "punishment_amount": 0, "responseWindow": 1.5, "reward_amount": 1, "stim": {"motionDirection": "in", "oriBase": -60, "oriDirection": -1, "oriStrength": 0.775, "speedDirection": 1, "speedStrength": 0.775, "speed_start": 0.12, "speed_end": 0.12811509307879243, "ori_start": -60, "ori_end": -90, "motion_direction": "in"}, "stimResponseInterval": 0.30027042661331893, "stimulusDuration": 1.5, "trial_count": 11, "ts": "motion", "trial_type": "threshold_estimation", "exp_stage": "adaptive_procedure", "decision_var": 0.008115093078792435, "response": "up", "rt": 0.4561603899928741, "FB": 1, "quest_estimate": 0.006925108653716372, "trial_time": 2.8243627169867977}
{"FBDuration": 0.5, "FBonset": 0, "ITI": 0.9420271350200067, "displayFB": true, "onset": 52.396198803004324, "punishment_amount": 0, "responseWindow": 1.5, "reward_amount": 1, "stim": {"motionDirection": "in", "oriBase": 30, "oriDirection": 1, "oriStrength": 0.775, "speedDirection": -1, "speedStrength": 0.775, "speed_start": 0.12, "speed_end": 0.11594586785112046, "ori_start": 30, "ori_end": 60, "motion_direction": "in"}, "stimResponseInterval": 0.6450636984173357, "stimulusDuration": 1.5, "trial_count": 12, "ts": "motion", "trial_type": "threshold_estimation", "exp_stage": "adaptive_procedure", "decision_var": 0.004054132148879543, "response": "up", "rt": 0.3456969270191621, "FB": 0, "quest_estimate": 0.018165577063598906, "trial_time": 3.068996722024167}
{"FBDuration": 0.5, "FBonset": 0, "ITI": 0.791448080708403, "displayFB": true, "onset": 57.48328963644167, "punishment_amount": 0, "responseWindow": 1.5, "reward_amount": 1, "stim": {"motionDirection": "in", "oriBase": 30, "oriDirection": -1, "oriStrength": 0.775, "speedDirection": -1, "speedStrength": 0.775, "speed_start": 0.12, "speed_end": 0.10223471983505414, "ori_start": 30, "ori_end": 0, "motion_direction": "in"}, "stimResponseInterval": 0.09096301631065418, "stimulusDuration": 1.5, "trial_count": 13, "ts": "motion", "trial_type": "threshold_estimation", "exp_stage": "adaptive_procedure", "decision_var": 0.017765280164945857, "response": "down", "rt": 0.6503253490081988, "FB": 1, "quest_estimate": 0.014247055786159174, "trial_time": 2.803679884003941}
{"FBDuration": 0.5, "FBonset": 0, "ITI": 0.26303937173664904, "displayFB": true, "onset": 61.86570073346073, "punishment_amount": 0, "responseWindow": 1.5, "reward_amount": 1, "stim": {"motionDirection": "out", "oriBase": -60, "oriDirection": -1, "oriStrength": 0.775, "speedDirection": -1, "speedStrength": 0.775, "speed_start": 0.12, "speed_end": 0.10686995497360455, "ori_start": -60, "ori_end": -90, "motion_direction": "out"}, "stimResponseInterval": 0.9535111582655906, "stimulusDuration": 1.5, "trial_count": 14, "ts": "motion", "trial_type": "threshold_estimation", "exp_stage": "adaptive_procedure", "decision_var": 0.013130045026395455, "response": "down", "rt": 0.3029312349972315, "FB": 1, "quest_estimate": 0.010590239610797289, "trial_time": 3.3264467919943854}
{"FBDuration": 0.5, "FBonset": 0, "ITI": 0.055799496430497086, "displayFB": true, "onset": 66.58225126346296, "punishment_amount": 0, "responseWindow": 1.5, "reward_amount": 1, "stim": {"motionDirection": "out", "oriBase": -60, "oriDirection": 1, "oriStrength": 0.775, "speedDirection": -1, "speedStrength": 0.775, "speed_start": 0.12, "speed_end": 0.111102170755004, "ori_start": -60, "ori_end": -30, "motion_direction": "out"}, "stimResponseInterval": 0.030547593440918508, "stimulusDuration": 1.5, "trial_count": 15, "ts": "motion", "trial_type": "threshold_estimation", "exp_stage": "adaptive_procedure", "decision_var": 0.008897829244995999, "response": "up", "rt": 0.8204208409879357, "FB": 0, "quest_estimate": 0.022304951459205018, "trial_time": 2.916195951984264}
{"FBDuration": 0.5, "FBonset": 0, "ITI": 0.640613675317212, "displayFB": true, "onset": 70.16859835333437, "punishment_amount": 0, "responseWindow": 1.5, "reward_amount": 1, "stim": {"motionDirection": "out", "oriBase": -60, "oriDirection": -1, "oriStrength": 0.775, "speedDirection": 1, "speedStrength": 0.775, "speed_start": 0.12, "speed_end": 0.1431953397472211, "ori_start": -60, "ori_end": -90, "motion_direction": "out"}, "stimResponseInterval": 0.6322418659848137, "stimulusDuration": 1.5, "trial_count": 16, "ts": "motion", "trial_type": "threshold_estimation", "exp_stage": "adaptive_procedure", "decision_var": 0.0231953397472211, "response": "up", "rt": 0.32742451000376604, "FB": 1, "quest_estimate": 0.01833423294530668, "trial_time": 3.0383871599915437}
{"FBDuration": 0.5, "FBonset": 0, "ITI": 0.38393569887392964, "displayFB": true, "onset": 74.9414538946364, "punishment_amount": 0, "responseWindow": 1.5, "reward_amount": 1, "stim": {"motionDirection": "out", "oriBase": 30, "oriDirection": -1, "oriStrength": 0.775, "speedDirection": -1, "speedStrength": 0.775, "speed_start": 0.12, "speed_end": 0.10151755545655455, "ori_start": 30, "ori_end": 0, "motion_direction": "out"}, "stimResponseInterval": 0.6715472629120183, "stimulusDuration": 1.5, "trial_count": 17, "ts": "motion", "trial_type": "threshold_estimation", "exp_stage": "adaptive_procedure", "decision_var": 0.01848244454344545, "response": "down", "rt": 0.3246340909972787, "FB": 1, "quest_estimate": 0.01460204554497408, "trial_time": 3.0536932979885023}
{"FBDuration": 0.5, "FBonset": 0, "ITI": 0.8286998247002786, "displayFB": true, "onset": 79.49693685642234, "punishment_amount": 0, "responseWindow": 1.5, "reward_amount": 1, "stim": {"motionDirection": "out", "oriBase": 30, "oriDirection": 1, "oriStrength": 0.775, "speedDirection": -1, "speedStrength": 0.775, "speed_start": 0.12, "speed_end": 0.10587042420681109, "ori_start": 30, "ori_end": 60, "motion_direction": "out"}, "stimResponseInterval": 0.4889272469077749, "stimulusDuration": 1.5, "trial_count": 18, "ts": "motion", "trial_type": "threshold_estimation", "exp_stage": "adaptive_procedure", "decision_var": 0.014129575793188916, "response": "down", "rt": 0.43430303799686953, "FB": 1, "quest_estimate": 0.011107109397955915, "trial_time": 2.987413855997147}
{"FBDuration": 0.5, "FBonset": 0, "ITI": 0.31164080464758426, "displayFB": true, "onset": 84.3145639280304, "punishment_amount": 0, "responseWindow": 1.5, "reward_amount": 1, "stim": {"motionDirection": "in", "oriBase": 30, "oriDirection": 1, "oriStrength": 0.775, "speedDirection": 1, "speedStrength": 0.775, "speed_start": 0.12, "speed_end": 0.13012194241051817, "ori_start": 30, "ori_end": 60, "motion_direction": "in"}, "stimResponseInterval": 0.8796325759675501, "stimulusDuration": 1.5, "trial_count": 19, "ts": "motion", "trial_type": "threshold_estimation", "exp_stage": "adaptive_procedure", "decision_var": 0.010121942410518163, "response": "up", "rt": 0.3399784959910903, "FB": 1, "quest_estimate": 0.007844114506020322, "trial_time": 3.291237976984121}
{"FBDuration": 0.5, "FBonset": 0, "ITI": 0.4379676680951602, "displayFB": true, "onset": 89.00583730864552, "punishment_amount": 0, "responseWindow": 1.5, "reward_amount": 1, "stim": {"motionDirection": "in", "oriBase": -60, "oriDirection": 1, "oriStrength": 0.775, "speedDirection": 1, "speedStrength": 0.775, "speed_start": 0.12, "speed_end": 0.1264399559338411, "ori_start": -60, "ori_end": -30, "motion_direction": "in"}, "stimResponseInterval": 0.005359023311090727, "stimulusDuration": 1.5, "trial_count": 20, "ts": "motion", "trial_type": "threshold_estimation", "exp_stage": "adaptive_procedure", "decision_var": 0.006439955933841113, "response": "up", "rt": 1.1175446439883672, "FB": 1, "quest_estimate": 0.004804775518739222, "trial_time": 3.189290857000742}
{"FBDuration": 0.5, "FBonset": 0, "ITI": 0.3721827903679886, "displayFB": true, "onset": 92.94916400005178, "punishment_amount": 0, "responseWindow": 1.5, "reward_amount": 1, "stim": {"motionDirection": "in", "oriBase": -60, "oriDirection": -1, "oriStrength": 0.775, "speedDirection": -1, "speedStrength": 0.775, "speed_start": 0.12, "speed_end": 0.11693790046372819, "ori_start": -60, "ori_end": -90, "motion_direction": "in"}, "stimResponseInterval": 0.7992242166201184, "stimulusDuration": 1.5, "trial_count": 21, "ts": "motion", "trial_type": "threshold_estimation", "exp_stage": "adaptive_procedure", "decision_var": 0.0030620995362718034, "response": "up", "rt": 0.34079114900669083, "FB": 0, "quest_estimate": 0.01450754380450401, "trial_time": 3.2030655650014523}
{"FBDuration": 0.5, "FBonset": 0, "ITI": 0.9698977509896296, "displayFB": true, "onset": 97.62057100703989, "punishment_amount": 0, "responseWindow": 1.5, "reward_amount": 1, "stim": {"motionDirection": "in", "oriBase": -60, "oriDirection": -1, "oriStrength": 0.775, "speedDirection": 1, "speedStrength": 0.775, "speed_start": 0.12, "speed_end": 0.13448548859267112, "ori_start": -60, "ori_end": -90, "motion_direction": "in"}, "stimResponseInterval": 0.3501379519526959, "stimulusDuration": 1.5, "trial_count": 22, "ts": "motion", "trial_type": "threshold_estimation", "exp_stage": "adaptive_procedure", "decision_var": 0.014485488592671118, "response": "up", "rt": 0.377947797998786, "FB": 1, "quest_estimate": 0.01117955754369885, "trial_time": 2.805113306007115}
{"FBDuration": 0.5, "FBonset": 0, "ITI": 0.1626480665192428, "displayFB": true, "onset": 102.4406067099822, "punishment_amount": 0, "responseWindow": 1.5, "reward_amount": 1, "stim": {"motionDirection": "in", "oriBase": -60, "oriDirection": 1, "oriStrength": 0.775, "speedDirection": 1, "speedStrength": 0.775, "speed_start": 0.12, "speed_end": 0.13070870386496114, "ori_start": -60, "ori_end": -30, "motion_direction": "in"}, "stimResponseInterval": 0.07823506492319732, "stimulusDuration": 1.5, "trial_count": 23, "ts": "motion", "trial_type": "threshold_estimation", "exp_stage": "adaptive_procedure", "decision_var": 0.010708703864961151, "response": "up", "rt": 0.7743283809977584, "FB": 1, "quest_estimate": 0.00806277091474402, "trial_time": 2.9235922069929074}
{"FBDuration": 0.5, "FBonset": 0, "ITI": 0.26673459473905947, "displayFB": true, "onset": 106.18148984142465, "punishment_amount": 0, "responseWindow": 1.5, "reward_amount": 1, "stim": {"motionDirection": "in", "oriBase": -60, "oriDirection": 1, "oriStrength": 0.775, "speedDirection": -1, "speedStrength": 0.775, "speed_start": 0.12, "speed_end": 0.11278517699247113, "ori_start": -60, "ori_end": -30, "motion_direction": "in"}, "stimResponseInterval": 0.43548490982372035, "stimulusDuration": 1.5, "trial_count": 24, "ts": "motion", "trial_type": "threshold_estimation", "exp_stage": "adaptive_procedure", "decision_var": 0.007214823007528862, "response": "up", "rt": 0.421901115012588, "FB": 0, "quest_estimate": 0.018125850596975072, "trial_time": 2.9235576040227897}
{"FBDuration": 0.5, "FBonset": 0, "ITI": 0.7415774398247792, "displayFB": true, "onset": 110.38370934598743, "punishment_amount": 0, "responseWindow": 1.5, "reward_amount": 1, "stim": {"motionDirection": "in", "oriBase": -60, "oriDirection": -1, "oriStrength": 0.775, "speedDirection": 1, "speedStrength": 0.775, "speed_start": 0.12, "speed_end": 0.13903151824320584, "ori_start": -60, "ori_end": -90, "motion_direction": "in"}, "stimResponseInterval": 0.7928420960209766, "stimulusDuration": 1.5, "trial_count": 25, "ts": "motion", "trial_type": "threshold_estimation", "exp_stage": "adaptive_procedure", "decision_var": 0.019031518243205835, "response": "up", "rt": 0.26952989998972043, "FB": 1, "quest_estimate": 0.014748255750506638, "trial_time": 3.1436423440172803}
{"FBDuration": 0.5, "FBonset": 0, "ITI": 0.3307518148966674, "displayFB": true, "onset": 115.41812888183318, "punishment_amount": 0, "responseWindow": 1.5, "reward_amount": 1, "stim": {"motionDirection": "out", "oriBase": 30, "oriDirection": 1, "oriStrength": 0.775, "speedDirection": 1, "speedStrength": 0.775, "speed_start": 0.12, "speed_end": 0.13519563834093812, "ori_start": 30, "ori_end": 60, "motion_direction": "out"}, "stimResponseInterval": 0.9719689738958361, "stimulusDuration": 1.5, "trial_count": 26, "ts": "motion", "trial_type": "threshold_estimation", "exp_stage": "adaptive_procedure", "decision_var": 0.015195638340938136, "response": "down", "rt": 0.3242672019987367, "FB": 0, "quest_estimate": 0.025860553291855562, "trial_time": 3.3479291620024014}
{"FBDuration": 0.5, "FBonset": 0, "ITI": 0.12078953076556465, "displayFB": true, "onset": 120.22084967062568, "punishment_amount": 0, "responseWindow": 1.5, "reward_amount": 1, "stim": {"motionDirection": "in", "oriBase": 30, "oriDirection": -1, "oriStrength": 0.775, "speedDirection": -1, "speedStrength": 0.775, "speed_start": 0.12, "speed_end": 0.09179826538050763, "ori_start": 30, "ori_end": 0, "motion_direction": "in"}, "stimResponseInterval": 0.15868713669363899, "stimulusDuration": 1.5, "trial_count": 27, "ts": "motion", "trial_type": "threshold_estimation", "exp_stage": "adaptive_procedure", "decision_var": 0.028201734619492366, "response": "down", "rt": 0.4816727389988955, "FB": 1, "quest_estimate": 0.022265875204378345, "trial_time": 2.7007913120032754}
{"FBDuration": 0.5, "FBonset": 0, "ITI": 0.5254023064122753, "displayFB": true, "onset": 124.00032633808489, "punishment_amount": 0, "responseWindow": 1.5, "reward_amount": 1, "stim": {"motionDirection": "in", "oriBase": 30, "oriDirection": 1, "oriStrength": 0.775, "speedDirection": -1, "speedStrength": 0.775, "speed_start": 0.12, "speed_end": 0.09590328592875047, "ori_start": 30, "ori_end": 60, "motion_direction": "in"}, "stimResponseInterval": 0.950037267767593, "stimulusDuration": 1.5, "trial_count": 28, "ts": "motion", "trial_type": "threshold_estimation", "exp_stage": "adaptive_procedure", "decision_var": 0.024096714071249525, "response": "down", "rt": 0.3024212299787905, "FB": 1, "quest_estimate": 0.018850586350876913, "trial_time": 3.3285548370040487}
{"FBDuration": 0.5, "FBonset": 0, "ITI": 0.8487854351954263, "displayFB": true, "onset": 128.97576591226476, "punishment_amount": 0, "responseWindow": 1.5, "reward_amount": 1, "stim": {"motionDirection": "in", "oriBase": 30, "oriDirection": 1, "oriStrength": 0.775, "speedDirection": 1, "speedStrength": 0.775, "speed_start": 0.12, "speed_end": 0.14023067279230003, "ori_start": 30, "ori_end": 60, "motion_direction": "in"}, "stimResponseInterval": 0.6126202507009355, "stimulusDuration": 1.5, "trial_count": 29, "ts": "motion", "trial_type": "threshold_estimation", "exp_stage": "adaptive_procedure", "decision_var": 0.020230672792300043, "response": "up", "rt": 0.37484515900723636, "FB": 1, "quest_estimate": 0.015614734607955184, "trial_time": 3.0582324499846436}
{"FBDuration": 0.5, "FBonset": 0, "ITI": 0.8382332457722317, "displayFB": true, "onset": 133.93717159816111, "punishment_amount": 0, "responseWindow": 1.5, "reward_amount": 1, "stim": {"motionDirection": "in", "oriBase": -60, "oriDirection": 1, "oriStrength": 0.775, "speedDirection": -1, "speedStrength": 0.775, "speed_start": 0.12, "speed_end": 0.10340356569235794, "ori_start": -60, "ori_end": -30, "motion_direction": "in"}, "stimResponseInterval": 0.18458657383102495, "stimulusDuration": 1.5, "trial_count": 30, "ts": "motion", "trial_type": "threshold_estimation", "exp_stage": "adaptive_procedure", "decision_var": 0.016596434307642058, "response": "up", "rt": 0.6137358690029941, "FB": 0, "quest_estimate": 0.026334032746613688, "trial_time": 2.869229092000751}
{"FBDuration": 0.5, "FBonset": 0, "ITI": 0.9311105440002558, "displayFB": true, "onset": 138.45999141776437, "punishment_amount": 0, "responseWindow": 1.5, "reward_amount": 1, "stim": {"motionDirection": "in", "oriBase": 30, "oriDirection": -1, "oriStrength": 0.775, "speedDirection": 1, "speedStrength": 0.775, "speed_start": 0.12, "speed_end": 0.1489372843558796, "ori_start": 30, "ori_end": 0, "motion_direction": "in"}, "stimResponseInterval": 0.49777116450196246, "stimulusDuration": 1.5, "trial_count": 31, "ts": "motion", "trial_type": "threshold_estimation", "exp_stage": "adaptive_procedure", "decision_var": 0.028937284355879608, "response": "up", "rt": 0.4218010990007315, "FB": 1, "quest_estimate": 0.022908846103665337, "trial_time": 2.9856759199756198}
{"FBDuration": 0.5, "FBonset": 0, "ITI": 0.9088431740322069, "displayFB": true, "onset": 143.3888731262666, "punishment_amount": 0, "responseWindow": 1.5, "reward_amount": 1, "stim": {"motionDirection": "out", "oriBase": -60, "oriDirection": -1, "oriStrength": 0.775, "speedDirection": 1, "speedStrength": 0.775, "speed_start": 0.12, "speed_end": 0.14508497642642382, "ori_start": -60, "ori_end": -90, "motion_direction": "out"}, "stimResponseInterval": 0.8517429844806959, "stimulusDuration": 1.5, "trial_count": 32, "ts": "motion", "trial_type": "threshold_estimation", "exp_stage": "adaptive_procedure", "decision_var": 0.025084976426423808, "response": "up", "rt": 0.40385120699647814, "FB": 1, "quest_estimate": 0.019645369773329945, "trial_time": 3.3277525439916644}
{"FBDuration": 0.5, "FBonset": 0, "ITI": 0.10309840376823676, "displayFB": true, "onset": 148.64945928477948, "punishment_amount": 0, "responseWindow": 1.5, "reward_amount": 1, "stim": {"motionDirection": "in", "oriBase": 30, "oriDirection": 1, "oriStrength": 0.775, "speedDirection": -1, "speedStrength": 0.775, "speed_start": 0.12, "speed_end": 0.09856131196966178, "ori_start": 30, "ori_end": 60, "motion_direction": "in"}, "stimResponseInterval": 0.7588705380174519, "stimulusDuration": 1.5, "trial_count": 33, "ts": "motion", "trial_type": "threshold_estimation", "exp_stage": "adaptive_procedure", "decision_var": 0.021438688030338222, "response": "up", "rt": 0.43983763601863757, "FB": 0, "quest_estimate": 0.030583639044538032, "trial_time": 3.2711876170069445}
{"FBDuration": 0.5, "FBonset": 0, "ITI": 0.7080044030338197, "displayFB": true, "onset": 153.01142822656516, "punishment_amount": 0, "responseWindow": 1.5, "reward_amount": 1, "stim": {"motionDirection": "out", "oriBase": 30, "oriDirection": 1, "oriStrength": 0.775, "speedDirection": -1, "speedStrength": 0.775, "speed_start": 0.12, "speed_end": 0.08614955031913174, "ori_start": 30, "ori_end": 60, "motion_direction": "out"}, "stimResponseInterval": 0.46488910667406613, "stimulusDuration": 1.5, "trial_count": 34, "ts": "motion", "trial_type": "threshold_estimation", "exp_stage": "adaptive_procedure", "decision_var": 0.033850449680868255, "response": "down", "rt": 0.5612791370076593, "FB": 1, "quest_estimate": 0.027170394787496076, "trial_time": 3.0998857859813143}
{"FBDuration": 0.5, "FBonset": 0, "ITI": 0.48627952560578325, "displayFB": true, "onset": 157.68432173627303, "punishment_amount": 0, "responseWindow": 1.5, "reward_amount": 1, "stim": {"motionDirection": "in", "oriBase": 30, "oriDirection": -1, "oriStrength": 0.775, "speedDirection": 1, "speedStrength": 0.775, "speed_start": 0.12, "speed_end": 0.15004237458769598, "ori_start": 30, "ori_end": 0, "motion_direction": "in"}, "stimResponseInterval": 0.5640762113636621, "stimulusDuration": 1.5, "trial_count": 35, "ts": "motion", "trial_type": "threshold_estimation", "exp_stage": "adaptive_procedure", "decision_var": 0.030042374587696, "response": "up", "rt": 0.3585160099901259, "FB": 1, "quest_estimate": 0.023900538990739233, "trial_time": 2.9821180180006195}
{"FBDuration": 0.5, "FBonset": 0, "ITI": 0.6972804650191471, "displayFB": true, "onset": 162.23467747324247, "punishment_amount": 0, "responseWindow": 1.5, "reward_amount": 1, "stim": {"motionDirection": "out", "oriBase": 30, "oriDirection": -1, "oriStrength": 0.775, "speedDirection": 1, "speedStrength": 0.775, "speed_start": 0.12, "speed_end": 0.14641605866487928, "ori_start": 30, "ori_end": 0, "motion_direction": "out"}, "stimResponseInterval": 0.5724429920946905, "stimulusDuration": 1.5, "trial_count": 36, "ts": "motion", "trial_type": "threshold_estimation", "exp_stage": "adaptive_procedure", "decision_var": 0.02641605866487927, "response": "down", "rt": 0.43509395598084666, "FB": 0, "quest_estimate": 0.034990067895279225, "trial_time": 3.07128614600515}
{"FBDuration": 0.5, "FBonset": 0, "ITI": 0.22589891057091782, "displayFB": true, "onset": 167.0044009303563, "punishment_amount": 0, "responseWindow": 1.5, "reward_amount": 1, "stim": {"motionDirection": "out", "oriBase": -60, "oriDirection": 1, "oriStrength": 0.775, "speedDirection": -1, "speedStrength": 0.775, "speed_start": 0.12, "speed_end": 0.08119606166109535, "ori_start": -60, "ori_end": -30, "motion_direction": "out"}, "stimResponseInterval": 0.07520440509743798, "stimulusDuration": 1.5, "trial_count": 37, "ts": "motion", "trial_type": "threshold_estimation", "exp_stage": "adaptive_procedure", "decision_var": 0.03880393833890465, "response": "down", "rt": 0.4528717139910441, "FB": 1, "quest_estimate": 0.03161058468051242, "trial_time": 2.591694609989645}
{"FBDuration": 0.5, "FBonset": 0, "ITI": 0.17898884350961386, "displayFB": true, "onset": 170.80550424602464, "punishment_amount": 0, "responseWindow": 1.5, "reward_amount": 1, "stim": {"motionDirection": "out", "oriBase": 30, "oriDirection": 1, "oriStrength": 0.775, "speedDirection": -1, "speedStrength": 0.775, "speed_start": 0.12, "speed_end": 0.08493463468261153, "ori_start": 30, "ori_end": 60, "motion_direction": "out"}, "stimResponseInterval": 0.5282992498865626, "stimulusDuration": 1.5, "trial_count": 38, "ts": "motion", "trial_type": "threshold_estimation", "exp_stage": "adaptive_procedure", "decision_var": 0.035065365317388464, "response": "down", "rt": 0.3202548669942189, "FB": 1, "quest_estimate": 0.02835685476478491, "trial_time": 2.9140371039975435}
{"FBDuration": 0.5, "FBonset": 0, "ITI": 0.1343416909517261, "displayFB": true, "onset": 175.01279233942083, "punishment_amount": 0, "responseWindow": 1.5, "reward_amount": 1, "stim": {"motionDirection": "out", "oriBase": -60, "oriDirection": -1, "oriStrength": 0.775, "speedDirection": -1, "speedStrength": 0.775, "speed_start": 0.12, "speed_end": 0.08851298174869308, "ori_start": -60, "ori_end": -90, "motion_direction": "out"}, "stimResponseInterval": 0.7899538016011027, "stimulusDuration": 1.5, "trial_count": 39, "ts": "motion", "trial_type": "threshold_estimation", "exp_stage": "adaptive_procedure", "decision_var": 0.03148701825130691, "response": "down", "rt": 0.3275655109900981, "FB": 1, "quest_estimate": 0.025230551501795366, "trial_time": 3.1962835250014905}
{"FBDuration": 0.5, "FBonset": 0, "ITI": 0.3213614668993481, "displayFB": true, "onset": 179.43708783197366, "punishment_amount": 0, "responseWindow": 1.5, "reward_amount": 1, "stim": {"motionDirection": "out", "oriBase": -60, "oriDirection": 1, "oriStrength": 0.775, "speedDirection": -1, "speedStrength": 0.775, "speed_start": 0.12, "speed_end": 0.09193506331094137, "ori_start": -60, "ori_end": -30, "motion_direction": "out"}, "stimResponseInterval": 0.6471226485767898, "stimulusDuration": 1.5, "trial_count": 40, "ts": "motion", "trial_type": "threshold_estimation", "exp_stage": "adaptive_procedure", "decision_var": 0.028064936689058635, "response": "down", "rt": 0.31917556602275, "FB": 1, "quest_estimate": 0.02223327811265427, "trial_time": 3.0450116449792404}
{"FBDuration": 0.5, "FBonset": 0, "ITI": 0.12174346919018009, "displayFB": true, "onset": 183.9055719474498, "punishment_amount": 0, "responseWindow": 1.5, "reward_amount": 1, "stim": {"motionDirection": "out", "oriBase": -60, "oriDirection": 1, "oriStrength": 0.775, "speedDirection": 1, "speedStrength": 0.775, "speed_start": 0.12, "speed_end": 0.14479622081223784, "ori_start": -60, "ori_end": -30, "motion_direction": "out"}, "stimResponseInterval": 0.47616834716994105, "stimulusDuration": 1.5, "trial_count": 41, "ts": "motion", "trial_type": "threshold_estimation", "exp_stage": "adaptive_procedure", "decision_var": 0.024796220812237847, "response": "up", "rt": 0.3907349749933928, "FB": 1, "quest_estimate": 0.019364373008367845, "trial_time": 2.9329815990058705}
{"FBDuration": 0.5, "FBonset": 0, "ITI": 0.8878055675228362, "displayFB": true, "onset": 188.00348376380992, "punishment_amount": 0, "responseWindow": 1.5, "reward_amount": 1, "stim": {"motionDirection": "in", "oriBase": 30, "oriDirection": 1, "oriStrength": 0.775, "speedDirection": -1, "speedStrength": 0.775, "speed_start": 0.12, "speed_end": 0.0983241296953589, "ori_start": 30, "ori_end": 60, "motion_direction": "in"}, "stimResponseInterval": 0.5024838361326496, "stimulusDuration": 1.5, "trial_count": 42, "ts": "motion", "trial_type": "threshold_estimation", "exp_stage": "adaptive_procedure", "decision_var": 0.02167587030464109, "response": "down", "rt": 0.3434489789942745, "FB": 1, "quest_estimate": 0.016622102432115628, "trial_time": 2.925523391983006}
{"FBDuration": 0.5, "FBonset": 0, "ITI": 0.5411970418296406, "displayFB": true, "onset": 192.8937731674654, "punishment_amount": 0, "responseWindow": 1.5, "reward_amount": 1, "stim": {"motionDirection": "in", "oriBase": -60, "oriDirection": -1, "oriStrength": 0.775, "speedDirection": 1, "speedStrength": 0.775, "speed_start": 0.12, "speed_end": 0.13869868061270407, "ori_start": -60, "ori_end": -90, "motion_direction": "in"}, "stimResponseInterval": 0.08473538167113748, "stimulusDuration": 1.5, "trial_count": 43, "ts": "motion", "trial_type": "threshold_estimation", "exp_stage": "adaptive_procedure", "decision_var": 0.018698680612704077, "response": "up", "rt": 0.5190098130260594, "FB": 1, "quest_estimate": 0.014004173025708715, "trial_time": 2.6742566360044293}
{"FBDuration": 0.5, "FBonset": 0, "ITI": 0.22361884373135843, "displayFB": true, "onset": 197.0197055909662, "punishment_amount": 0, "responseWindow": 1.5, "reward_amount": 1, "stim": {"motionDirection": "out", "oriBase": 30, "oriDirection": -1, "oriStrength": 0.775, "speedDirection": 1, "speedStrength": 0.775, "speed_start": 0.12, "speed_end": 0.13585965688119636, "ori_start": 30, "ori_end": 0, "motion_direction": "out"}, "stimResponseInterval": 0.3850987572116856, "stimulusDuration": 1.5, "trial_count": 44, "ts": "motion", "trial_type": "threshold_estimation", "exp_stage": "adaptive_procedure", "decision_var": 0.01585965688119636, "response": "up", "rt": 0.48080228600883856, "FB": 1, "quest_estimate": 0.011507564681993813, "trial_time": 2.937860815989552}
{"FBDuration": 0.5, "FBonset": 0, "ITI": 0.17702804201587607, "displayFB": true, "onset": 201.12842319190923, "punishment_amount": 0, "responseWindow": 1.5, "reward_amount": 1, "stim": {"motionDirection": "out", "oriBase": 30, "oriDirection": 1, "oriStrength": 0.775, "speedDirection": 1, "speedStrength": 0.775, "speed_start": 0.12, "speed_end": 0.13315349710075822, "ori_start": 30, "ori_end": 60, "motion_direction": "out"}, "stimResponseInterval": 0.2587199239834922, "stimulusDuration": 1.5, "trial_count": 45, "ts": "motion", "trial_type": "threshold_estimation", "exp_stage": "adaptive_procedure", "decision_var": 0.013153497100758214, "response": "up", "rt": 0.4995794849819504, "FB": 1, "quest_estimate": 0.009128239821214593, "trial_time": 2.8199378169956617}
{"FBDuration": 0.5, "FBonset": 0, "ITI": 0.32866123592871865, "displayFB": true, "onset": 205.0641711579086, "punishment_amount": 0, "responseWindow": 1.5, "reward_amount": 1, "stim": {"motionDirection": "in", "oriBase": -60, "oriDirection": 1, "oriStrength": 0.775, "speedDirection": -1, "speedStrength": 0.775, "speed_start": 0.12, "speed_end": 0.1094258174253328, "ori_start": -60, "ori_end": -30, "motion_direction": "in"}, "stimResponseInterval": 0.1202263117184027, "stimulusDuration": 1.5, "trial_count": 46, "ts": "motion", "trial_type": "threshold_estimation", "exp_stage": "adaptive_procedure", "decision_var": 0.01057418257466719, "response": "down", "rt": 0.467083906987682, "FB": 1, "quest_estimate": 0.006862444004707556, "trial_time": 2.658776577998651}
{"FBDuration": 0.5, "FBonset": 0, "ITI": 0.07707827332342809, "displayFB": true, "onset": 209.01305870555572, "punishment_amount": 0, "responseWindow": 1.5, "reward_amount": 1, "stim": {"motionDirection": "in", "oriBase": 30, "oriDirection": -1, "oriStrength": 0.775, "speedDirection": 1, "speedStrength": 0.775, "speed_start": 0.12, "speed_end": 0.12811718878272443, "ori_start": 30, "ori_end": 0, "motion_direction": "in"}, "stimResponseInterval": 0.21091443747849214, "stimulusDuration": 1.5, "trial_count": 47, "ts": "motion", "trial_type": "threshold_estimation", "exp_stage": "adaptive_procedure", "decision_var": 0.008117188782724438, "response": "up", "rt": 0.4932381379767321, "FB": 1, "quest_estimate": 0.004705770179665988, "trial_time": 2.7831717419903725}
{"FBDuration": 0.5, "FBonset": 0, "ITI": 0.9660996974539349, "displayFB": true, "onset": 212.80105141635764, "punishment_amount": 0, "responseWindow": 1.5, "reward_amount": 1, "stim": {"motionDirection": "in", "oriBase": -60, "oriDirection": 1, "oriStrength": 0.775, "speedDirection": 1, "speedStrength": 0.775, "speed_start": 0.12, "speed_end": 0.1257770313669281, "ori_start": -60, "ori_end": -30, "motion_direction": "in"}, "stimResponseInterval": 0.6868116659558687, "stimulusDuration": 1.5, "trial_count": 48, "ts": "motion", "trial_type": "threshold_estimation", "exp_stage": "adaptive_procedure", "decision_var": 0.005777031366928122, "response": "up", "rt": 0.29690831300104037, "FB": 1, "quest_estimate": 0.0026536658667789606, "trial_time": 3.052565563993994}
{"FBDuration": 0.5, "FBonset": 0, "ITI": 0.9941566809085942, "displayFB": true, "onset": 217.95396277976744, "punishment_amount": 0, "responseWindow": 1.5, "reward_amount": 1, "stim": {"motionDirection": "out", "oriBase": -60, "oriDirection": 1, "oriStrength": 0.775, "speedDirection": 1, "speedStrength": 0.775, "speed_start": 0.12, "speed_end": 0.12354849926268999, "ori_start": -60, "ori_end": -30, "motion_direction": "out"}, "stimResponseInterval": 0.5602088693107423, "stimulusDuration": 1.5, "trial_count": 49, "ts": "motion", "trial_type": "threshold_estimation", "exp_stage": "adaptive_procedure", "decision_var": 0.0035484992626899914, "response": "up", "rt": 0.3680543460068293, "FB": 1, "quest_estimate": 0.0007016557964137846, "trial_time": 3.0044825279910583}
{"FBDuration": 0.5, "FBonset": 0, "ITI": 0.31472619562446136, "displayFB": true, "onset": 223.00832832998677, "punishment_amount": 0, "responseWindow": 1.5, "reward_amount": 1, "stim": {"motionDirection": "out", "oriBase": 30, "oriDirection": -1, "oriStrength": 0.775, "speedDirection": -1, "speedStrength": 0.775, "speed_start": 0.12, "speed_end": 0.1185730627706279, "ori_start": 30, "ori_end": 0, "motion_direction": "out"}, "stimResponseInterval": 0.6349264609464371, "stimulusDuration": 1.5, "trial_count": 50, "ts": "motion", "trial_type": "threshold_estimation", "exp_stage": "adaptive_procedure", "decision_var": 0.0014269372293721008, "response": "down", "rt": 0.34532375499838963, "FB": 1, "quest_estimate": -0.0011548660975360878, "trial_time": 3.0547564059961587}
{"FBDuration": 0.5, "FBonset": 0, "ITI": 0.7228805544296777, "displayFB": true, "onset": 227.45798098655766, "punishment_amount": 0, "responseWindow": 1.5, "reward_amount": 1, "stim": {"motionDirection": "out", "oriBase": -60, "oriDirection": -1, "oriStrength": 0.775, "speedDirection": -1, "speedStrength": 0.775, "speed_start": 0.12, "speed_end": 0.11999, "ori_start": -60, "ori_end": -90, "motion_direction": "out"}, "stimResponseInterval": 0.7387174772367773, "stimulusDuration": 1.5, "trial_count": 51, "ts": "motion", "trial_type": "threshold_estimation", "exp_stage": "adaptive_procedure", "decision_var": 1e-05, "response": "down", "rt": 0.2937927960010711, "FB": 1, "quest_estimate": -0.0029201137542804734, "trial_time": 3.093827615986811}
{"FBDuration": 0.5, "FBonset": 0, "ITI": 0.6324354829583116, "displayFB": true, "onset": 232.4195790182241, "punishment_amount": 0, "responseWindow": 1.5, "reward_amount": 1, "stim": {"motionDirection": "in", "oriBase": 30, "oriDirection": -1, "oriStrength": 0.775, "speedDirection": -1, "speedStrength": 0.775, "speed_start": 0.12, "speed_end": 0.11999, "ori_start": 30, "ori_end": 0, "motion_direction": "in"}, "stimResponseInterval": 0.2965798616748183, "stimulusDuration": 1.5, "trial_count": 52, "ts": "motion", "trial_type": "threshold_estimation", "exp_stage": "adaptive_procedure", "decision_var": 1e-05, "response": "up", "rt": 0.4946220599813387, "FB": 0, "quest_estimate": 0.003029236920667547, "trial_time": 2.871529783005826}
{"FBDuration": 0.5, "FBonset": 0, "ITI": 0.2784424240825274, "displayFB": true, "onset": 236.84859436285726, "punishment_amount": 0, "responseWindow": 1.5, "reward_amount": 1, "stim": {"motionDirection": "out", "oriBase": -60, "oriDirection": -1, "oriStrength": 0.775, "speedDirection": 1, "speedStrength": 0.775, "speed_start": 0.12, "speed_end": 0.12417422636150417, "ori_start": -60, "ori_end": -90, "motion_direction": "out"}, "stimResponseInterval": 0.9071589560000608, "stimulusDuration": 1.5, "trial_count": 53, "ts": "motion", "trial_type": "threshold_estimation", "exp_stage": "adaptive_procedure", "decision_var": 0.004174226361504177, "response": "down", "rt": 0.39050683099776506, "FB": 0, "quest_estimate": 0.00965966176843542, "trial_time": 3.3477256629848853}
{"FBDuration": 0.5, "FBonset": 0, "ITI": 0.23357673446283334, "displayFB": true, "onset": 241.53419574293986, "punishment_amount": 0, "responseWindow": 1.5, "reward_amount": 1, "stim": {"motionDirection": "out", "oriBase": -60, "oriDirection": -1, "oriStrength": 0.775, "speedDirection": -1, "speedStrength": 0.775, "speed_start": 0.12, "speed_end": 0.1084714577545596, "ori_start": -60, "ori_end": -90, "motion_direction": "out"}, "stimResponseInterval": 0.3636970063257101, "stimulusDuration": 1.5, "trial_count": 54, "ts": "motion", "trial_type": "threshold_estimation", "exp_stage": "adaptive_procedure", "decision_var": 0.011528542245440393, "response": "down", "rt": 0.5037753320066258, "FB": 1, "quest_estimate": 0.0075471336269628125, "trial_time": 2.93527417597943}
{"FBDuration": 0.5, "FBonset": 0, "ITI": 0.18870540388834678, "displayFB": true, "onset": 245.6314694837284, "punishment_amount": 0, "responseWindow": 1.5, "reward_amount": 1, "stim": {"motionDirection": "in", "oriBase": -60, "oriDirection": 1, "oriStrength": 0.775, "speedDirection": -1, "speedStrength": 0.775, "speed_start": 0.12, "speed_end": 0.11074278340049515, "ori_start": -60, "ori_end": -30, "motion_direction": "in"}, "stimResponseInterval": 0.5897282626744933, "stimulusDuration": 1.5, "trial_count": 55, "ts": "motion", "trial_type": "threshold_estimation", "exp_stage": "adaptive_procedure", "decision_var": 0.00925721659950484, "response": "up", "rt": 0.3925517470052, "FB": 0, "quest_estimate": 0.014645106673872275, "trial_time": 3.0447808190074284}
{"FBDuration": 0.5, "FBonset": 0, "ITI": 0.794057890162513, "displayFB": true, "onset": 249.90990315029126, "punishment_amount": 0, "responseWindow": 1.5, "reward_amount": 1, "stim": {"motionDirection": "out", "oriBase": -60, "oriDirection": 1, "oriStrength": 0.775, "speedDirection": 1, "speedStrength": 0.775, "speed_start": 0.12, "speed_end": 0.13702308370899252, "ori_start": -60, "ori_end": -30, "motion_direction": "out"}, "stimResponseInterval": 0.3636302722533128, "stimulusDuration": 1.5, "trial_count": 56, "ts": "motion", "trial_type": "threshold_estimation", "exp_stage": "adaptive_procedure", "decision_var": 0.01702308370899254, "response": "up", "rt": 0.5087464789976366, "FB": 1, "quest_estimate": 0.012421043211621949, "trial_time": 2.9399419100082014}
{"FBDuration": 0.5, "FBonset": 0, "ITI": 0.26281883131381256, "displayFB": true, "onset": 254.5675913127071, "punishment_amount": 0, "responseWindow": 1.5, "reward_amount": 1, "stim": {"motionDirection": "in", "oriBase": 30, "oriDirection": -1, "oriStrength": 0.775, "speedDirection": 1, "speedStrength": 0.775, "speed_start": 0.12, "speed_end": 0.13465276112842725, "ori_start": 30, "ori_end": 0, "motion_direction": "in"}, "stimResponseInterval": 0.9529159216150793, "stimulusDuration": 1.5, "trial_count": 57, "ts": "motion", "trial_type": "threshold_estimation", "exp_stage": "adaptive_procedure", "decision_var": 0.014652761128427255, "response": "up", "rt": 0.6936132900009397, "FB": 1, "quest_estimate": 0.010286718562278425, "trial_time": 3.7188999179925304}
{"FBDuration": 0.5, "FBonset": 0, "ITI": 0.8708439743146825, "displayFB": true, "onset": 259.283326065636, "punishment_amount": 0, "responseWindow": 1.5, "reward_amount": 1, "stim": {"motionDirection": "out", "oriBase": 30, "oriDirection": 1, "oriStrength": 0.775, "speedDirection": 1, "speedStrength": 0.775, "speed_start": 0.12, "speed_end": 0.1323740400459152, "ori_start": 30, "ori_end": 60, "motion_direction": "out"}, "stimResponseInterval": 0.668627352465637, "stimulusDuration": 1.5, "trial_count": 58, "ts": "motion", "trial_type": "threshold_estimation", "exp_stage": "adaptive_procedure", "decision_var": 0.012374040045915198, "response": "up", "rt": 0.3642169009835925, "FB": 1, "quest_estimate": 0.008239372360835273, "trial_time": 3.1105459349928424}
{"FBDuration": 0.5, "FBonset": 0, "ITI": 0.22055275854739087, "displayFB": true, "onset": 264.3227973924163, "punishment_amount": 0, "responseWindow": 1.5, "reward_amount": 1, "stim": {"motionDirection": "out", "oriBase": 30, "oriDirection": 1, "oriStrength": 0.775, "speedDirection": -1, "speedStrength": 0.775, "speed_start": 0.12, "speed_end": 0.10981644312327679, "ori_start": 30, "ori_end": 60, "motion_direction": "out"}, "stimResponseInterval": 0.14744394333265787, "stimulusDuration": 1.5, "trial_count": 59, "ts": "motion", "trial_type": "threshold_estimation", "exp_stage": "adaptive_procedure", "decision_var": 0.010183556876723197, "response": "down", "rt": 0.46823148999828845, "FB": 1, "quest_estimate": 0.006275705801798308, "trial_time": 2.6934344169858377}
{"FBDuration": 0.5, "FBonset": 0, "ITI": 0.6822040779075786, "displayFB": true, "onset": 268.19079409429634, "punishment_amount": 0, "responseWindow": 1.5, "reward_amount": 1, "stim": {"motionDirection": "out", "oriBase": 30, "oriDirection": -1, "oriStrength": 0.775, "speedDirection": -1, "speedStrength": 0.775, "speed_start": 0.12, "speed_end": 0.11192241248480606, "ori_start": 30, "ori_end": 0, "motion_direction": "out"}, "stimResponseInterval": 0.6108637661873224, "stimulusDuration": 1.5, "trial_count": 60, "ts": "motion", "trial_type": "threshold_estimation", "exp_stage": "adaptive_procedure", "decision_var": 0.00807758751519394, "response": "down", "rt": 0.20756419299868867, "FB": 1, "quest_estimate": 0.00439304751377366, "trial_time": 2.8820608379901387}
{"FBDuration": 0.5, "FBonset": 0, "ITI": 0.6390580647147508, "displayFB": true, "onset": 272.9838619383912, "punishment_amount": 0, "responseWindow": 1.5, "reward_amount": 1, "stim": {"motionDirection": "in", "oriBase": 30, "oriDirection": 1, "oriStrength": 0.775, "speedDirection": 1, "speedStrength": 0.775, "speed_start": 0.12, "speed_end": 0.12605360676084412, "ori_start": 30, "ori_end": 60, "motion_direction": "in"}, "stimResponseInterval": 0.0950389404837243, "stimulusDuration": 1.5, "trial_count": 61, "ts": "motion", "trial_type": "threshold_estimation", "exp_stage": "adaptive_procedure", "decision_var": 0.006053606760844127, "response": "up", "rt": 0.8667098539881408, "FB": 1, "quest_estimate": 0.0025881302122023955, "trial_time": 3.044678667007247}
{"FBDuration": 0.5, "FBonset": 0, "ITI": 0.4053679318056119, "displayFB": true, "onset": 277.2179589435897, "punishment_amount": 0, "responseWindow": 1.5, "reward_amount": 1, "stim": {"motionDirection": "out", "oriBase": 30, "oriDirection": -1, "oriStrength": 0.775, "speedDirection": 1, "speedStrength": 0.775, "speed_start": 0.12, "speed_end": 0.12410819096144493, "ori_start": 30, "ori_end": 0, "motion_direction": "out"}, "stimResponseInterval": 0.07997122556625558, "stimulusDuration": 1.5, "trial_count": 62, "ts": "motion", "trial_type": "threshold_estimation", "exp_stage": "adaptive_procedure", "decision_var": 0.004108190961444942, "response": "down", "rt": 0.5789717709994875, "FB": 0, "quest_estimate": 0.008651617403140473, "trial_time": 2.7345390809932724}
