trial_count,FBDuration,c_dis,context,response,rt,state,stim,trial_count,ts,rep_resp,switch,con_shape,con_orient,subj_switch,correct
1,0,"{'mean': 0.29999999999999999, 'sd': 0.37}",-0.30000000000000004,2,0.6563949584960938,1,"(1, 2)",1,0,False,False,False,True,True,False
2,0,"{'mean': 0.29999999999999999, 'sd': 0.37}",0.30000000000000004,0,0.9243319034576416,1,"(0, 2)",2,0,False,False,True,False,True,True
3,0,"{'mean': -0.29999999999999999, 'sd': 0.37}",-0.30000000000000004,3,0.7458009719848633,0,"(0, 3)",3,1,False,True,False,True,True,True
4,0,"{'mean': -0.29999999999999999, 'sd': 0.37}",-0.10000000000000009,2,0.5215499401092529,0,"(1, 2)",4,1,False,False,False,True,False,True
5,0,"{'mean': -0.29999999999999999, 'sd': 0.37}",-0.30000000000000004,2,0.43492889404296875,0,"(1, 2)",5,1,True,False,False,True,False,True
6,0,"{'mean': -0.29999999999999999, 'sd': 0.37}",-0.30000000000000004,2,0.5418591499328613,0,"(0, 2)",6,1,True,False,False,True,False,True
8,0,"{'mean': 0.29999999999999999, 'sd': 0.37}",0.30000000000000004,2,0.8269541263580322,1,"(0, 2)",8,0,True,True,False,True,False,False
9,0,"{'mean': 0.29999999999999999, 'sd': 0.37}",0.5,1,1.1419899463653564,1,"(1, 2)",9,0,False,False,True,False,True,True
10,0,"{'mean': 0.29999999999999999, 'sd': 0.37}",0.10000000000000009,1,0.851578950881958,1,"(1, 3)",10,0,True,False,True,False,False,True
11,0,"{'mean': 0.29999999999999999, 'sd': 0.37}",-0.10000000000000009,1,1.1188960075378418,1,"(1, 2)",11,0,True,False,True,False,False,True
12,0,"{'mean': 0.29999999999999999, 'sd': 0.37}",-0.10000000000000009,0,1.0228240489959717,1,"(0, 2)",12,0,False,False,True,False,False,True
13,0,"{'mean': 0.29999999999999999, 'sd': 0.37}",0.10000000000000009,1,1.0821950435638428,1,"(0, 3)",13,0,False,False,False,False,True,False
14,0,"{'mean': -0.29999999999999999, 'sd': 0.37}",-0.5,3,0.9302809238433838,0,"(0, 3)",14,1,False,True,False,True,False,True
15,0,"{'mean': -0.29999999999999999, 'sd': 0.37}",-0.10000000000000009,3,0.8295788764953613,0,"(0, 3)",15,1,True,False,False,True,False,True
16,0,"{'mean': -0.29999999999999999, 'sd': 0.37}",-0.7000000000000001,3,0.6843550205230713,0,"(1, 3)",16,1,True,False,False,True,False,True
17,0,"{'mean': 0.29999999999999999, 'sd': 0.37}",0.5,0,0.7552220821380615,1,"(0, 2)",17,0,False,True,True,False,True,True
18,0,"{'mean': 0.29999999999999999, 'sd': 0.37}",0.7,1,0.5585408210754395,1,"(1, 3)",18,0,False,False,True,False,False,True
19,0,"{'mean': 0.29999999999999999, 'sd': 0.37}",0.30000000000000004,1,0.7155101299285889,1,"(1, 2)",19,0,True,False,True,False,False,True
20,0,"{'mean': 0.29999999999999999, 'sd': 0.37}",0.5,0,0.7456948757171631,1,"(0, 3)",20,0,False,False,True,False,False,True
21,0,"{'mean': 0.29999999999999999, 'sd': 0.37}",0.30000000000000004,1,0.6770360469818115,1,"(1, 2)",21,0,False,False,True,False,False,True
22,0,"{'mean': 0.29999999999999999, 'sd': 0.37}",0.10000000000000009,1,0.6121530532836914,1,"(1, 2)",22,0,True,False,True,False,False,True
23,0,"{'mean': 0.29999999999999999, 'sd': 0.37}",0.5,1,0.6598701477050781,1,"(1, 3)",23,0,True,False,True,False,False,True
24,0,"{'mean': 0.29999999999999999, 'sd': 0.37}",-0.10000000000000009,1,1.0176777839660645,1,"(1, 2)",24,0,True,False,True,False,False,True
25,0,"{'mean': 0.29999999999999999, 'sd': 0.37}",0.30000000000000004,0,0.6048839092254639,1,"(0, 3)",25,0,False,False,True,False,False,True
26,0,"{'mean': -0.29999999999999999, 'sd': 0.37}",-0.10000000000000009,0,0.8288910388946533,0,"(0, 2)",26,1,True,True,True,False,False,False
27,0,"{'mean': -0.29999999999999999, 'sd': 0.37}",-0.10000000000000009,1,0.8541359901428223,0,"(1, 2)",27,1,False,False,True,False,False,False
28,0,"{'mean': -0.29999999999999999, 'sd': 0.37}",-0.30000000000000004,2,1.0877978801727295,0,"(1, 2)",28,1,False,False,False,True,True,True
29,0,"{'mean': 0.29999999999999999, 'sd': 0.37}",0.30000000000000004,1,1.2959489822387695,1,"(1, 2)",29,0,False,True,True,False,True,True
30,0,"{'mean': 0.29999999999999999, 'sd': 0.37}",0.30000000000000004,1,0.7445018291473389,1,"(1, 3)",30,0,True,False,True,False,False,True
31,0,"{'mean': 0.29999999999999999, 'sd': 0.37}",0.10000000000000009,1,0.8076341152191162,1,"(1, 3)",31,0,True,False,True,False,False,True
32,0,"{'mean': 0.29999999999999999, 'sd': 0.37}",-0.10000000000000009,1,0.7437160015106201,1,"(1, 2)",32,0,True,False,True,False,False,True
33,0,"{'mean': 0.29999999999999999, 'sd': 0.37}",0.7,0,0.45725011825561523,1,"(0, 3)",33,0,False,False,True,False,False,True
34,0,"{'mean': 0.29999999999999999, 'sd': 0.37}",0.7,0,0.3930699825286865,1,"(0, 2)",34,0,True,False,True,False,False,True
35,0,"{'mean': 0.29999999999999999, 'sd': 0.37}",0.10000000000000009,1,0.49653196334838867,1,"(1, 3)",35,0,False,False,True,False,False,True
36,0,"{'mean': 0.29999999999999999, 'sd': 0.37}",0.30000000000000004,0,0.6870710849761963,1,"(0, 3)",36,0,False,False,True,False,False,True
37,0,"{'mean': 0.29999999999999999, 'sd': 0.37}",0.5,1,0.46529293060302734,1,"(1, 2)",37,0,False,False,True,False,False,True
38,0,"{'mean': 0.29999999999999999, 'sd': 0.37}",0.5,1,0.40989089012145996,1,"(1, 3)",38,0,True,False,True,False,False,True
39,0,"{'mean': 0.29999999999999999, 'sd': 0.37}",0.7,1,0.7070779800415039,1,"(1, 3)",39,0,True,False,True,False,False,True
40,0,"{'mean': 0.29999999999999999, 'sd': 0.37}",0.30000000000000004,0,0.536005973815918,1,"(0, 3)",40,0,False,False,True,False,False,True
41,0,"{'mean': 0.29999999999999999, 'sd': 0.37}",0.5,1,0.533581018447876,1,"(1, 3)",41,0,False,False,True,False,False,True
42,0,"{'mean': 0.29999999999999999, 'sd': 0.37}",0.8999999999999999,0,0.48291707038879395,1,"(0, 2)",42,0,False,False,True,False,False,True
43,0,"{'mean': 0.29999999999999999, 'sd': 0.37}",0.30000000000000004,0,0.5907998085021973,1,"(0, 2)",43,0,True,False,True,False,False,True
44,0,"{'mean': 0.29999999999999999, 'sd': 0.37}",0.10000000000000009,0,0.6512389183044434,1,"(0, 2)",44,0,True,False,True,False,False,True
45,0,"{'mean': 0.29999999999999999, 'sd': 0.37}",0.10000000000000009,0,0.4775810241699219,1,"(0, 2)",45,0,True,False,True,False,False,True
46,0,"{'mean': 0.29999999999999999, 'sd': 0.37}",0.8999999999999999,1,0.7634718418121338,1,"(1, 3)",46,0,False,False,True,False,False,True
47,0,"{'mean': 0.29999999999999999, 'sd': 0.37}",0.7,1,0.5260319709777832,1,"(1, 3)",47,0,True,False,True,False,False,True
48,0,"{'mean': 0.29999999999999999, 'sd': 0.37}",0.10000000000000009,0,0.5716371536254883,1,"(0, 3)",48,0,False,False,True,False,False,True
49,0,"{'mean': 0.29999999999999999, 'sd': 0.37}",0.30000000000000004,0,0.5418169498443604,1,"(0, 3)",49,0,True,False,True,False,False,True
50,0,"{'mean': 0.29999999999999999, 'sd': 0.37}",-0.10000000000000009,0,0.5804641246795654,1,"(0, 3)",50,0,True,False,True,False,False,True
51,0,"{'mean': 0.29999999999999999, 'sd': 0.37}",-0.5,2,0.9213800430297852,1,"(1, 2)",51,0,False,False,False,True,True,False
52,0,"{'mean': 0.29999999999999999, 'sd': 0.37}",0.30000000000000004,2,0.9592909812927246,1,"(0, 2)",52,0,True,False,False,True,False,False
53,0,"{'mean': 0.29999999999999999, 'sd': 0.37}",0.5,2,0.9507009983062744,1,"(0, 3)",53,0,True,False,False,False,False,False
54,0,"{'mean': 0.29999999999999999, 'sd': 0.37}",-0.10000000000000009,2,0.5862109661102295,1,"(0, 3)",54,0,True,False,False,False,False,False
55,0,"{'mean': 0.29999999999999999, 'sd': 0.37}",-0.10000000000000009,2,0.42326903343200684,1,"(0, 2)",55,0,True,False,False,True,False,False
56,0,"{'mean': -0.29999999999999999, 'sd': 0.37}",0.30000000000000004,2,0.8337390422821045,0,"(0, 3)",56,1,True,True,False,False,False,False
57,0,"{'mean': -0.29999999999999999, 'sd': 0.37}",-0.7000000000000001,2,0.6043398380279541,0,"(0, 2)",57,1,True,False,False,True,False,True
58,0,"{'mean': -0.29999999999999999, 'sd': 0.37}",0.30000000000000004,2,0.8858299255371094,0,"(1, 2)",58,1,True,False,False,True,False,True
59,0,"{'mean': -0.29999999999999999, 'sd': 0.37}",-0.7000000000000001,2,0.5888838768005371,0,"(0, 2)",59,1,True,False,False,True,False,True
60,0,"{'mean': -0.29999999999999999, 'sd': 0.37}",-0.7000000000000001,3,0.5988459587097168,0,"(0, 3)",60,1,False,False,False,True,False,True
61,0,"{'mean': -0.29999999999999999, 'sd': 0.37}",-0.5,3,0.4580519199371338,0,"(0, 3)",61,1,True,False,False,True,False,True
62,0,"{'mean': -0.29999999999999999, 'sd': 0.37}",-0.5,3,0.522068977355957,0,"(1, 3)",62,1,True,False,False,True,False,True
63,0,"{'mean': 0.29999999999999999, 'sd': 0.37}",0.30000000000000004,2,1.119927167892456,1,"(0, 2)",63,0,False,True,False,True,False,False
64,0,"{'mean': 0.29999999999999999, 'sd': 0.37}",0.10000000000000009,3,0.6003601551055908,1,"(1, 3)",64,0,False,False,False,True,False,False
65,0,"{'mean': 0.29999999999999999, 'sd': 0.37}",0.7,0,0.9432480335235596,1,"(0, 3)",65,0,False,False,True,False,True,True
66,0,"{'mean': 0.29999999999999999, 'sd': 0.37}",-0.10000000000000009,1,0.7208430767059326,1,"(1, 2)",66,0,False,False,True,False,False,True
67,0,"{'mean': -0.29999999999999999, 'sd': 0.37}",-0.10000000000000009,0,0.9600019454956055,0,"(0, 3)",67,1,False,True,True,False,False,False
68,0,"{'mean': -0.29999999999999999, 'sd': 0.37}",-0.5,3,0.9196939468383789,0,"(0, 3)",68,1,False,False,False,True,True,True
69,0,"{'mean': -0.29999999999999999, 'sd': 0.37}",-0.7000000000000001,2,0.4669010639190674,0,"(1, 2)",69,1,False,False,False,True,False,True
70,0,"{'mean': -0.29999999999999999, 'sd': 0.37}",-0.10000000000000009,3,0.6138091087341309,0,"(1, 3)",70,1,False,False,False,True,False,True
71,0,"{'mean': 0.29999999999999999, 'sd': 0.37}",0.30000000000000004,2,0.6069471836090088,1,"(1, 2)",71,0,False,True,False,True,False,False
72,0,"{'mean': 0.29999999999999999, 'sd': 0.37}",0.30000000000000004,2,0.6164989471435547,1,"(1, 2)",72,0,True,False,False,True,False,False
73,0,"{'mean': 0.29999999999999999, 'sd': 0.37}",0.30000000000000004,2,0.5872910022735596,1,"(0, 2)",73,0,True,False,False,True,False,False
74,0,"{'mean': 0.29999999999999999, 'sd': 0.37}",0.7,1,0.8919949531555176,1,"(1, 2)",74,0,False,False,True,False,True,True
75,0,"{'mean': 0.29999999999999999, 'sd': 0.37}",-0.10000000000000009,1,0.7297542095184326,1,"(1, 3)",75,0,True,False,True,False,False,True
76,0,"{'mean': 0.29999999999999999, 'sd': 0.37}",-0.30000000000000004,1,0.99204421043396,1,"(1, 3)",76,0,True,False,True,False,False,True
77,0,"{'mean': 0.29999999999999999, 'sd': 0.37}",0.30000000000000004,0,0.643625020980835,1,"(0, 3)",77,0,False,False,True,False,False,True
78,0,"{'mean': 0.29999999999999999, 'sd': 0.37}",0.5,1,0.7575170993804932,1,"(1, 2)",78,0,False,False,True,False,False,True
79,0,"{'mean': 0.29999999999999999, 'sd': 0.37}",0.30000000000000004,0,0.6345729827880859,1,"(0, 3)",79,0,False,False,True,False,False,True
80,0,"{'mean': 0.29999999999999999, 'sd': 0.37}",0.10000000000000009,1,0.7088229656219482,1,"(1, 3)",80,0,False,False,True,False,False,True
81,0,"{'mean': 0.29999999999999999, 'sd': 0.37}",-0.10000000000000009,1,0.6246418952941895,1,"(1, 2)",81,0,True,False,True,False,False,True
82,0,"{'mean': 0.29999999999999999, 'sd': 0.37}",0.30000000000000004,0,0.4462878704071045,1,"(0, 2)",82,0,False,False,True,False,False,True
83,0,"{'mean': 0.29999999999999999, 'sd': 0.37}",0.7,1,0.6241550445556641,1,"(1, 2)",83,0,False,False,True,False,False,True
84,0,"{'mean': 0.29999999999999999, 'sd': 0.37}",-0.5,2,0.890023946762085,1,"(0, 2)",84,0,False,False,False,True,True,False
85,0,"{'mean': 0.29999999999999999, 'sd': 0.37}",0.7,0,1.193777084350586,1,"(0, 3)",85,0,False,False,True,False,True,True
86,0,"{'mean': 0.29999999999999999, 'sd': 0.37}",0.7,1,0.6535098552703857,1,"(1, 3)",86,0,False,False,True,False,False,True
87,0,"{'mean': 0.29999999999999999, 'sd': 0.37}",0.5,0,0.6760179996490479,1,"(0, 2)",87,0,False,False,True,False,False,True
88,0,"{'mean': 0.29999999999999999, 'sd': 0.37}",0.30000000000000004,1,0.6694118976593018,1,"(1, 2)",88,0,False,False,True,False,False,True
89,0,"{'mean': 0.29999999999999999, 'sd': 0.37}",0.10000000000000009,0,0.5636608600616455,1,"(0, 3)",89,0,False,False,True,False,False,True
90,0,"{'mean': 0.29999999999999999, 'sd': 0.37}",0.30000000000000004,1,0.5346310138702393,1,"(1, 3)",90,0,False,False,True,False,False,True
91,0,"{'mean': 0.29999999999999999, 'sd': 0.37}",1.0,1,0.541907787322998,1,"(1, 3)",91,0,True,False,True,False,False,True
92,0,"{'mean': 0.29999999999999999, 'sd': 0.37}",-0.10000000000000009,1,1.00046706199646,1,"(1, 2)",92,0,True,False,True,False,False,True
93,0,"{'mean': 0.29999999999999999, 'sd': 0.37}",0.7,1,0.6324880123138428,1,"(1, 2)",93,0,True,False,True,False,False,True
94,0,"{'mean': 0.29999999999999999, 'sd': 0.37}",0.5,1,0.9040470123291016,1,"(1, 3)",94,0,True,False,True,False,False,True
95,0,"{'mean': 0.29999999999999999, 'sd': 0.37}",0.5,0,0.6745028495788574,1,"(0, 3)",95,0,False,False,True,False,False,True
96,0,"{'mean': 0.29999999999999999, 'sd': 0.37}",0.30000000000000004,0,0.6476471424102783,1,"(0, 3)",96,0,True,False,True,False,False,True
97,0,"{'mean': 0.29999999999999999, 'sd': 0.37}",-0.10000000000000009,1,1.156667947769165,1,"(1, 2)",97,0,False,False,True,False,False,True
98,0,"{'mean': -0.29999999999999999, 'sd': 0.37}",-0.7000000000000001,2,0.700916051864624,0,"(0, 2)",98,1,False,True,False,True,True,True
99,0,"{'mean': -0.29999999999999999, 'sd': 0.37}",-0.30000000000000004,2,0.5324769020080566,0,"(0, 2)",99,1,True,False,False,True,False,True
100,0,"{'mean': -0.29999999999999999, 'sd': 0.37}",-0.5,2,0.44319796562194824,0,"(0, 2)",100,1,True,False,False,True,False,True
101,0,"{'mean': -0.29999999999999999, 'sd': 0.37}",-0.5,2,0.8080880641937256,0,"(0, 3)",101,1,True,False,False,False,False,False
102,0,"{'mean': -0.29999999999999999, 'sd': 0.37}",-0.30000000000000004,3,0.7216839790344238,0,"(1, 3)",102,1,False,False,False,True,False,True
103,0,"{'mean': -0.29999999999999999, 'sd': 0.37}",0.10000000000000009,3,0.8056399822235107,0,"(0, 3)",103,1,True,False,False,True,False,True
104,0,"{'mean': 0.29999999999999999, 'sd': 0.37}",-0.30000000000000004,2,0.4757399559020996,1,"(0, 2)",104,0,False,True,False,True,False,False
105,0,"{'mean': 0.29999999999999999, 'sd': 0.37}",0.10000000000000009,2,0.6400160789489746,1,"(1, 2)",105,0,True,False,False,True,False,False
106,0,"{'mean': 0.29999999999999999, 'sd': 0.37}",0.5,2,0.881242036819458,1,"(1, 2)",106,0,True,False,False,True,False,False
107,0,"{'mean': 0.29999999999999999, 'sd': 0.37}",0.7,0,0.7206218242645264,1,"(0, 2)",107,0,False,False,True,False,True,True
108,0,"{'mean': 0.29999999999999999, 'sd': 0.37}",0.5,1,0.5180108547210693,1,"(1, 3)",108,0,False,False,True,False,False,True
109,0,"{'mean': 0.29999999999999999, 'sd': 0.37}",0.5,0,0.5912148952484131,1,"(0, 2)",109,0,False,False,True,False,False,True
110,0,"{'mean': 0.29999999999999999, 'sd': 0.37}",0.10000000000000009,1,0.6130759716033936,1,"(1, 3)",110,0,False,False,True,False,False,True
111,0,"{'mean': -0.29999999999999999, 'sd': 0.37}",0.10000000000000009,1,0.6780130863189697,0,"(1, 3)",111,1,True,True,True,False,False,False
112,0,"{'mean': -0.29999999999999999, 'sd': 0.37}",-1.0,2,0.7801110744476318,0,"(0, 2)",112,1,False,False,False,True,True,True
113,0,"{'mean': -0.29999999999999999, 'sd': 0.37}",-0.30000000000000004,2,0.739872932434082,0,"(1, 2)",113,1,True,False,False,True,False,True
114,0,"{'mean': -0.29999999999999999, 'sd': 0.37}",0.10000000000000009,2,0.528317928314209,0,"(0, 2)",114,1,True,False,False,True,False,True
115,0,"{'mean': -0.29999999999999999, 'sd': 0.37}",0.10000000000000009,2,0.4333000183105469,0,"(1, 2)",115,1,True,False,False,True,False,True
116,0,"{'mean': -0.29999999999999999, 'sd': 0.37}",-0.7000000000000001,3,0.467487096786499,0,"(1, 3)",116,1,False,False,False,True,False,True
117,0,"{'mean': -0.29999999999999999, 'sd': 0.37}",-0.5,2,0.5973660945892334,0,"(0, 2)",117,1,False,False,False,True,False,True
118,0,"{'mean': -0.29999999999999999, 'sd': 0.37}",-0.5,3,0.6857268810272217,0,"(1, 3)",118,1,False,False,False,True,False,True
119,0,"{'mean': -0.29999999999999999, 'sd': 0.37}",0.10000000000000009,2,0.5889301300048828,0,"(1, 2)",119,1,False,False,False,True,False,True
120,0,"{'mean': -0.29999999999999999, 'sd': 0.37}",0.7,1,0.8910291194915771,0,"(1, 2)",120,1,False,False,True,False,True,False
121,0,"{'mean': -0.29999999999999999, 'sd': 0.37}",-0.30000000000000004,2,1.024519920349121,0,"(0, 2)",121,1,False,False,False,True,True,True
122,0,"{'mean': -0.29999999999999999, 'sd': 0.37}",-0.30000000000000004,3,0.6007339954376221,0,"(1, 3)",122,1,False,False,False,True,False,True
123,0,"{'mean': -0.29999999999999999, 'sd': 0.37}",0.10000000000000009,3,0.6796190738677979,0,"(1, 3)",123,1,True,False,False,True,False,True
124,0,"{'mean': -0.29999999999999999, 'sd': 0.37}",-0.30000000000000004,3,0.830977201461792,0,"(0, 3)",124,1,True,False,False,True,False,True
125,0,"{'mean': -0.29999999999999999, 'sd': 0.37}",-0.5,3,0.7210531234741211,0,"(0, 3)",125,1,True,False,False,True,False,True
126,0,"{'mean': -0.29999999999999999, 'sd': 0.37}",-0.5,2,0.6857571601867676,0,"(1, 2)",126,1,False,False,False,True,False,True
127,0,"{'mean': -0.29999999999999999, 'sd': 0.37}",0.10000000000000009,2,0.7848300933837891,0,"(1, 2)",127,1,True,False,False,True,False,True
128,0,"{'mean': -0.29999999999999999, 'sd': 0.37}",-0.5,3,0.7468481063842773,0,"(1, 3)",128,1,False,False,False,True,False,True
129,0,"{'mean': -0.29999999999999999, 'sd': 0.37}",-0.30000000000000004,2,0.5980110168457031,0,"(1, 2)",129,1,False,False,False,True,False,True
130,0,"{'mean': 0.29999999999999999, 'sd': 0.37}",-0.10000000000000009,2,0.695775032043457,1,"(0, 2)",130,0,True,True,False,True,False,False
131,0,"{'mean': 0.29999999999999999, 'sd': 0.37}",0.7,1,0.7911050319671631,1,"(1, 3)",131,0,False,False,True,False,True,True
132,0,"{'mean': 0.29999999999999999, 'sd': 0.37}",0.5,0,1.2067980766296387,1,"(1, 2)",132,0,False,False,False,False,True,False
133,0,"{'mean': 0.29999999999999999, 'sd': 0.37}",0.10000000000000009,1,0.8601219654083252,1,"(1, 2)",133,0,False,False,True,False,True,True
134,0,"{'mean': 0.29999999999999999, 'sd': 0.37}",0.30000000000000004,1,0.7504608631134033,1,"(1, 3)",134,0,True,False,True,False,False,True
135,0,"{'mean': 0.29999999999999999, 'sd': 0.37}",0.5,0,0.4178459644317627,1,"(0, 2)",135,0,False,False,True,False,False,True
136,0,"{'mean': 0.29999999999999999, 'sd': 0.37}",-0.10000000000000009,0,0.9224739074707031,1,"(0, 3)",136,0,True,False,True,False,False,True
137,0,"{'mean': 0.29999999999999999, 'sd': 0.37}",0.5,1,0.5298259258270264,1,"(1, 2)",137,0,False,False,True,False,False,True
138,0,"{'mean': 0.29999999999999999, 'sd': 0.37}",0.10000000000000009,1,0.8723981380462646,1,"(1, 2)",138,0,True,False,True,False,False,True
139,0,"{'mean': 0.29999999999999999, 'sd': 0.37}",-0.30000000000000004,1,1.2027490139007568,1,"(1, 3)",139,0,True,False,True,False,False,True
140,0,"{'mean': -0.29999999999999999, 'sd': 0.37}",0.30000000000000004,1,0.6384828090667725,0,"(1, 2)",140,1,True,True,True,False,False,False
141,0,"{'mean': -0.29999999999999999, 'sd': 0.37}",-0.10000000000000009,1,0.6894528865814209,0,"(1, 3)",141,1,True,False,True,False,False,False
142,0,"{'mean': -0.29999999999999999, 'sd': 0.37}",-0.5,0,0.765861988067627,0,"(0, 2)",142,1,False,False,True,False,False,False
143,0,"{'mean': -0.29999999999999999, 'sd': 0.37}",-0.5,3,0.6691970825195312,0,"(0, 3)",143,1,False,False,False,True,True,True
144,0,"{'mean': -0.29999999999999999, 'sd': 0.37}",-0.10000000000000009,2,0.5338928699493408,0,"(0, 2)",144,1,False,False,False,True,False,True
145,0,"{'mean': -0.29999999999999999, 'sd': 0.37}",-1.0,2,0.5633978843688965,0,"(0, 2)",145,1,True,False,False,True,False,True
146,0,"{'mean': -0.29999999999999999, 'sd': 0.37}",-0.5,3,0.7655148506164551,0,"(1, 3)",146,1,False,False,False,True,False,True
147,0,"{'mean': -0.29999999999999999, 'sd': 0.37}",-0.30000000000000004,3,0.6160788536071777,0,"(0, 3)",147,1,True,False,False,True,False,True
148,0,"{'mean': -0.29999999999999999, 'sd': 0.37}",-0.10000000000000009,2,0.48067498207092285,0,"(0, 2)",148,1,False,False,False,True,False,True
149,0,"{'mean': -0.29999999999999999, 'sd': 0.37}",-0.30000000000000004,3,0.4730660915374756,0,"(0, 3)",149,1,False,False,False,True,False,True
150,0,"{'mean': -0.29999999999999999, 'sd': 0.37}",0.30000000000000004,2,0.8807721138000488,0,"(0, 2)",150,1,False,False,False,True,False,True
151,0,"{'mean': -0.29999999999999999, 'sd': 0.37}",-0.10000000000000009,2,0.775827169418335,0,"(1, 2)",151,1,True,False,False,True,False,True
152,0,"{'mean': -0.29999999999999999, 'sd': 0.37}",-0.30000000000000004,2,0.48926806449890137,0,"(0, 2)",152,1,True,False,False,True,False,True
153,0,"{'mean': -0.29999999999999999, 'sd': 0.37}",0.10000000000000009,2,0.48017001152038574,0,"(0, 2)",153,1,True,False,False,True,False,True
154,0,"{'mean': 0.29999999999999999, 'sd': 0.37}",0.10000000000000009,3,0.6771950721740723,1,"(1, 3)",154,0,False,True,False,True,False,False
155,0,"{'mean': 0.29999999999999999, 'sd': 0.37}",0.5,0,0.7094588279724121,1,"(0, 2)",155,0,False,False,True,False,True,True
156,0,"{'mean': 0.29999999999999999, 'sd': 0.37}",0.10000000000000009,1,0.5748658180236816,1,"(1, 2)",156,0,False,False,True,False,False,True
157,0,"{'mean': 0.29999999999999999, 'sd': 0.37}",-0.10000000000000009,1,0.5298991203308105,1,"(1, 2)",157,0,True,False,True,False,False,True
158,0,"{'mean': 0.29999999999999999, 'sd': 0.37}",0.7,1,0.6421909332275391,1,"(1, 2)",158,0,True,False,True,False,False,True
159,0,"{'mean': 0.29999999999999999, 'sd': 0.37}",0.10000000000000009,1,0.5638298988342285,1,"(1, 2)",159,0,True,False,True,False,False,True
160,0,"{'mean': 0.29999999999999999, 'sd': 0.37}",0.7,1,0.6685459613800049,1,"(1, 3)",160,0,True,False,True,False,False,True
161,0,"{'mean': 0.29999999999999999, 'sd': 0.37}",0.8999999999999999,0,0.6284239292144775,1,"(0, 3)",161,0,False,False,True,False,False,True
162,0,"{'mean': 0.29999999999999999, 'sd': 0.37}",0.30000000000000004,0,0.47773098945617676,1,"(0, 2)",162,0,True,False,True,False,False,True
163,0,"{'mean': 0.29999999999999999, 'sd': 0.37}",0.8999999999999999,1,0.5310869216918945,1,"(1, 3)",163,0,False,False,True,False,False,True
164,0,"{'mean': 0.29999999999999999, 'sd': 0.37}",-0.30000000000000004,3,1.2217750549316406,1,"(0, 3)",164,0,False,False,False,True,True,False
165,0,"{'mean': -0.29999999999999999, 'sd': 0.37}",-0.5,2,0.5871891975402832,0,"(1, 2)",165,1,False,True,False,True,False,True
166,0,"{'mean': -0.29999999999999999, 'sd': 0.37}",-0.10000000000000009,2,0.5926198959350586,0,"(0, 2)",166,1,True,False,False,True,False,True
167,0,"{'mean': -0.29999999999999999, 'sd': 0.37}",-1.0,3,0.5102691650390625,0,"(0, 3)",167,1,False,False,False,True,False,True
168,0,"{'mean': -0.29999999999999999, 'sd': 0.37}",-0.30000000000000004,3,0.6280460357666016,0,"(1, 3)",168,1,True,False,False,True,False,True
169,0,"{'mean': -0.29999999999999999, 'sd': 0.37}",-0.9000000000000001,2,0.5412039756774902,0,"(1, 2)",169,1,False,False,False,True,False,True
170,0,"{'mean': 0.29999999999999999, 'sd': 0.37}",0.10000000000000009,2,0.44182586669921875,1,"(1, 2)",170,0,True,True,False,True,False,False
171,0,"{'mean': 0.29999999999999999, 'sd': 0.37}",0.30000000000000004,2,0.5310430526733398,1,"(1, 2)",171,0,True,False,False,True,False,False
172,0,"{'mean': 0.29999999999999999, 'sd': 0.37}",-0.5,3,0.48680996894836426,1,"(1, 3)",172,0,False,False,False,True,False,False
173,0,"{'mean': 0.29999999999999999, 'sd': 0.37}",-0.10000000000000009,3,0.6765139102935791,1,"(1, 3)",173,0,True,False,False,True,False,False
174,0,"{'mean': -0.29999999999999999, 'sd': 0.37}",0.5,1,0.8351309299468994,0,"(1, 3)",174,1,False,True,True,False,True,False
175,0,"{'mean': -0.29999999999999999, 'sd': 0.37}",-0.5,2,0.6416468620300293,0,"(1, 2)",175,1,False,False,False,True,True,True
176,0,"{'mean': -0.29999999999999999, 'sd': 0.37}",-0.30000000000000004,3,0.500601053237915,0,"(1, 3)",176,1,False,False,False,True,False,True
177,0,"{'mean': -0.29999999999999999, 'sd': 0.37}",-0.5,3,0.5225200653076172,0,"(1, 3)",177,1,True,False,False,True,False,True
178,0,"{'mean': -0.29999999999999999, 'sd': 0.37}",-0.10000000000000009,3,0.611767053604126,0,"(0, 3)",178,1,True,False,False,True,False,True
179,0,"{'mean': -0.29999999999999999, 'sd': 0.37}",-0.5,3,0.5229549407958984,0,"(1, 3)",179,1,True,False,False,True,False,True
180,0,"{'mean': -0.29999999999999999, 'sd': 0.37}",-0.10000000000000009,3,0.7206559181213379,0,"(0, 3)",180,1,True,False,False,True,False,True
181,0,"{'mean': 0.29999999999999999, 'sd': 0.37}",0.10000000000000009,3,0.6568059921264648,1,"(1, 3)",181,0,True,True,False,True,False,False
182,0,"{'mean': 0.29999999999999999, 'sd': 0.37}",0.8999999999999999,0,0.9616248607635498,1,"(0, 3)",182,0,False,False,True,False,True,True
183,0,"{'mean': 0.29999999999999999, 'sd': 0.37}",0.5,0,0.6756100654602051,1,"(0, 2)",183,0,True,False,True,False,False,True
184,0,"{'mean': 0.29999999999999999, 'sd': 0.37}",0.7,1,0.6664168834686279,1,"(1, 3)",184,0,False,False,True,False,False,True
185,0,"{'mean': -0.29999999999999999, 'sd': 0.37}",-0.10000000000000009,0,0.9263157844543457,0,"(1, 2)",185,1,False,True,False,False,True,False
186,0,"{'mean': -0.29999999999999999, 'sd': 0.37}",-0.30000000000000004,1,0.9802579879760742,0,"(1, 3)",186,1,False,False,True,False,True,False
187,0,"{'mean': -0.29999999999999999, 'sd': 0.37}",-0.7000000000000001,3,0.7732059955596924,0,"(0, 3)",187,1,False,False,False,True,True,True
188,0,"{'mean': -0.29999999999999999, 'sd': 0.37}",0.30000000000000004,3,0.8606729507446289,0,"(0, 3)",188,1,True,False,False,True,False,True
189,0,"{'mean': -0.29999999999999999, 'sd': 0.37}",-0.7000000000000001,2,0.5166208744049072,0,"(1, 2)",189,1,False,False,False,True,False,True
190,0,"{'mean': -0.29999999999999999, 'sd': 0.37}",-0.5,3,0.5732331275939941,0,"(1, 3)",190,1,False,False,False,True,False,True
191,0,"{'mean': -0.29999999999999999, 'sd': 0.37}",-0.10000000000000009,3,0.41612982749938965,0,"(1, 3)",191,1,True,False,False,True,False,True
192,0,"{'mean': -0.29999999999999999, 'sd': 0.37}",-0.30000000000000004,3,0.4546060562133789,0,"(0, 3)",192,1,True,False,False,True,False,True
193,0,"{'mean': -0.29999999999999999, 'sd': 0.37}",-0.9000000000000001,3,0.4829890727996826,0,"(1, 3)",193,1,True,False,False,True,False,True
194,0,"{'mean': -0.29999999999999999, 'sd': 0.37}",-0.7000000000000001,3,0.486555814743042,0,"(0, 3)",194,1,True,False,False,True,False,True
195,0,"{'mean': -0.29999999999999999, 'sd': 0.37}",-0.10000000000000009,2,0.428358793258667,0,"(0, 2)",195,1,False,False,False,True,False,True
196,0,"{'mean': -0.29999999999999999, 'sd': 0.37}",-0.30000000000000004,2,0.4079139232635498,0,"(1, 2)",196,1,True,False,False,True,False,True
197,0,"{'mean': 0.29999999999999999, 'sd': 0.37}",0.10000000000000009,2,0.7488009929656982,1,"(1, 2)",197,0,True,True,False,True,False,False
198,0,"{'mean': -0.29999999999999999, 'sd': 0.37}",-0.9000000000000001,3,0.41954994201660156,0,"(0, 3)",198,1,False,True,False,True,False,True
199,0,"{'mean': -0.29999999999999999, 'sd': 0.37}",-0.9000000000000001,2,0.5011048316955566,0,"(0, 2)",199,1,False,False,False,True,False,True
200,0,"{'mean': -0.29999999999999999, 'sd': 0.37}",-0.7000000000000001,3,0.4601919651031494,0,"(0, 3)",200,1,False,False,False,True,False,True
201,0,"{'mean': -0.29999999999999999, 'sd': 0.37}",-0.7000000000000001,3,0.8185100555419922,0,"(1, 3)",201,1,True,False,False,True,False,True
202,0,"{'mean': -0.29999999999999999, 'sd': 0.37}",-0.30000000000000004,3,0.6250400543212891,0,"(0, 3)",202,1,True,False,False,True,False,True
203,0,"{'mean': -0.29999999999999999, 'sd': 0.37}",0.10000000000000009,2,0.7431960105895996,0,"(1, 2)",203,1,False,False,False,True,False,True
204,0,"{'mean': -0.29999999999999999, 'sd': 0.37}",-0.30000000000000004,3,0.5134561061859131,0,"(1, 3)",204,1,False,False,False,True,False,True
205,0,"{'mean': -0.29999999999999999, 'sd': 0.37}",-0.7000000000000001,3,0.4290180206298828,0,"(1, 3)",205,1,True,False,False,True,False,True
206,0,"{'mean': -0.29999999999999999, 'sd': 0.37}",-0.30000000000000004,3,0.46906304359436035,0,"(1, 3)",206,1,True,False,False,True,False,True
207,0,"{'mean': -0.29999999999999999, 'sd': 0.37}",-0.5,2,0.49407315254211426,0,"(1, 2)",207,1,False,False,False,True,False,True
208,0,"{'mean': -0.29999999999999999, 'sd': 0.37}",-0.30000000000000004,2,0.5152339935302734,0,"(1, 2)",208,1,True,False,False,True,False,True
209,0,"{'mean': -0.29999999999999999, 'sd': 0.37}",-0.5,2,0.5371720790863037,0,"(1, 2)",209,1,True,False,False,True,False,True
210,0,"{'mean': -0.29999999999999999, 'sd': 0.37}",0.10000000000000009,3,0.4641540050506592,0,"(1, 3)",210,1,False,False,False,True,False,True
211,0,"{'mean': -0.29999999999999999, 'sd': 0.37}",-0.10000000000000009,2,0.5889420509338379,0,"(0, 2)",211,1,False,False,False,True,False,True
212,0,"{'mean': -0.29999999999999999, 'sd': 0.37}",-0.30000000000000004,3,0.7746970653533936,0,"(1, 3)",212,1,False,False,False,True,False,True
213,0,"{'mean': -0.29999999999999999, 'sd': 0.37}",0.10000000000000009,3,0.8802790641784668,0,"(1, 3)",213,1,True,False,False,True,False,True
214,0,"{'mean': -0.29999999999999999, 'sd': 0.37}",-0.10000000000000009,3,0.984623908996582,0,"(0, 3)",214,1,True,False,False,True,False,True
215,0,"{'mean': -0.29999999999999999, 'sd': 0.37}",-0.5,2,0.8383450508117676,0,"(0, 2)",215,1,False,False,False,True,False,True
216,0,"{'mean': -0.29999999999999999, 'sd': 0.37}",-0.5,3,0.8216040134429932,0,"(0, 3)",216,1,False,False,False,True,False,True
217,0,"{'mean': -0.29999999999999999, 'sd': 0.37}",-0.10000000000000009,3,0.9601690769195557,0,"(0, 3)",217,1,True,False,False,True,False,True
218,0,"{'mean': -0.29999999999999999, 'sd': 0.37}",0.10000000000000009,3,0.8873629570007324,0,"(1, 3)",218,1,True,False,False,True,False,True
219,0,"{'mean': -0.29999999999999999, 'sd': 0.37}",-0.9000000000000001,2,0.881005048751831,0,"(1, 2)",219,1,False,False,False,True,False,True
220,0,"{'mean': -0.29999999999999999, 'sd': 0.37}",-0.7000000000000001,2,0.6283118724822998,0,"(1, 2)",220,1,True,False,False,True,False,True
221,0,"{'mean': -0.29999999999999999, 'sd': 0.37}",-0.30000000000000004,2,0.45232510566711426,0,"(0, 2)",221,1,True,False,False,True,False,True
222,0,"{'mean': -0.29999999999999999, 'sd': 0.37}",0.10000000000000009,3,0.7574272155761719,0,"(0, 3)",222,1,False,False,False,True,False,True
223,0,"{'mean': -0.29999999999999999, 'sd': 0.37}",-0.9000000000000001,3,0.5625710487365723,0,"(0, 3)",223,1,True,False,False,True,False,True
224,0,"{'mean': -0.29999999999999999, 'sd': 0.37}",0.10000000000000009,2,0.6763389110565186,0,"(1, 2)",224,1,False,False,False,True,False,True
225,0,"{'mean': 0.29999999999999999, 'sd': 0.37}",0.10000000000000009,2,0.6611568927764893,1,"(1, 2)",225,0,True,True,False,True,False,False
226,0,"{'mean': 0.29999999999999999, 'sd': 0.37}",-0.10000000000000009,2,0.47609996795654297,1,"(0, 2)",226,0,True,False,False,True,False,False
227,0,"{'mean': 0.29999999999999999, 'sd': 0.37}",0.7,0,1.0098700523376465,1,"(0, 3)",227,0,False,False,True,False,True,True
228,0,"{'mean': 0.29999999999999999, 'sd': 0.37}",-0.10000000000000009,1,0.8647840023040771,1,"(1, 2)",228,0,False,False,True,False,False,True
229,0,"{'mean': 0.29999999999999999, 'sd': 0.37}",0.30000000000000004,1,0.5613479614257812,1,"(1, 3)",229,0,True,False,True,False,False,True
230,0,"{'mean': 0.29999999999999999, 'sd': 0.37}",0.7,0,0.5232279300689697,1,"(0, 3)",230,0,False,False,True,False,False,True
231,0,"{'mean': 0.29999999999999999, 'sd': 0.37}",0.10000000000000009,0,0.7045779228210449,1,"(0, 3)",231,0,True,False,True,False,False,True
232,0,"{'mean': 0.29999999999999999, 'sd': 0.37}",0.30000000000000004,0,0.47643303871154785,1,"(0, 3)",232,0,True,False,True,False,False,True
233,0,"{'mean': 0.29999999999999999, 'sd': 0.37}",0.30000000000000004,0,0.42856693267822266,1,"(0, 2)",233,0,True,False,True,False,False,True
234,0,"{'mean': 0.29999999999999999, 'sd': 0.37}",0.7,0,0.5782020092010498,1,"(0, 3)",234,0,True,False,True,False,False,True
235,0,"{'mean': 0.29999999999999999, 'sd': 0.37}",0.10000000000000009,0,0.5126008987426758,1,"(0, 3)",235,0,True,False,True,False,False,True
236,0,"{'mean': 0.29999999999999999, 'sd': 0.37}",0.8999999999999999,0,0.580024003982544,1,"(0, 2)",236,0,True,False,True,False,False,True
237,0,"{'mean': 0.29999999999999999, 'sd': 0.37}",0.30000000000000004,0,0.4521348476409912,1,"(0, 2)",237,0,True,False,True,False,False,True
238,0,"{'mean': 0.29999999999999999, 'sd': 0.37}",0.5,0,0.4004240036010742,1,"(0, 3)",238,0,True,False,True,False,False,True
239,0,"{'mean': 0.29999999999999999, 'sd': 0.37}",-0.30000000000000004,1,0.609307050704956,1,"(1, 3)",239,0,False,False,True,False,False,True
240,0,"{'mean': 0.29999999999999999, 'sd': 0.37}",0.5,0,0.562920093536377,1,"(1, 2)",240,0,False,False,False,False,True,False
241,0,"{'mean': 0.29999999999999999, 'sd': 0.37}",0.10000000000000009,0,0.649791955947876,1,"(0, 3)",241,0,True,False,True,False,True,True
242,0,"{'mean': 0.29999999999999999, 'sd': 0.37}",0.5,0,0.4660768508911133,1,"(0, 3)",242,0,True,False,True,False,False,True
243,0,"{'mean': 0.29999999999999999, 'sd': 0.37}",0.5,0,0.3585200309753418,1,"(0, 2)",243,0,True,False,True,False,False,True
244,0,"{'mean': 0.29999999999999999, 'sd': 0.37}",0.10000000000000009,0,0.4329371452331543,1,"(0, 2)",244,0,True,False,True,False,False,True
245,0,"{'mean': 0.29999999999999999, 'sd': 0.37}",-0.10000000000000009,0,0.4457418918609619,1,"(0, 3)",245,0,True,False,True,False,False,True
246,0,"{'mean': 0.29999999999999999, 'sd': 0.37}",-0.30000000000000004,2,0.9243679046630859,1,"(1, 2)",246,0,False,False,False,True,True,False
247,0,"{'mean': 0.29999999999999999, 'sd': 0.37}",0.30000000000000004,3,0.8495180606842041,1,"(1, 3)",247,0,False,False,False,True,False,False
248,0,"{'mean': 0.29999999999999999, 'sd': 0.37}",0.10000000000000009,2,0.778637170791626,1,"(0, 2)",248,0,False,False,False,True,False,False
249,0,"{'mean': 0.29999999999999999, 'sd': 0.37}",0.10000000000000009,3,0.8574330806732178,1,"(1, 3)",249,0,False,False,False,True,False,False
250,0,"{'mean': 0.29999999999999999, 'sd': 0.37}",0.5,2,0.7777760028839111,1,"(0, 2)",250,0,False,False,False,True,False,False
251,0,"{'mean': 0.29999999999999999, 'sd': 0.37}",0.10000000000000009,0,1.374194860458374,1,"(1, 2)",251,0,False,False,False,False,False,False
252,0,"{'mean': -0.29999999999999999, 'sd': 0.37}",-0.5,2,0.8414831161499023,0,"(1, 2)",252,1,False,True,False,True,False,True
253,0,"{'mean': -0.29999999999999999, 'sd': 0.37}",-0.30000000000000004,2,0.593317985534668,0,"(0, 2)",253,1,True,False,False,True,False,True
254,0,"{'mean': -0.29999999999999999, 'sd': 0.37}",-0.10000000000000009,3,0.4147679805755615,0,"(0, 3)",254,1,False,False,False,True,False,True
255,0,"{'mean': -0.29999999999999999, 'sd': 0.37}",-0.5,2,0.4723958969116211,0,"(0, 2)",255,1,False,False,False,True,False,True
256,0,"{'mean': -0.29999999999999999, 'sd': 0.37}",-0.5,2,0.45785999298095703,0,"(0, 2)",256,1,True,False,False,True,False,True
257,0,"{'mean': -0.29999999999999999, 'sd': 0.37}",-0.5,3,0.6202051639556885,0,"(0, 3)",257,1,False,False,False,True,False,True
258,0,"{'mean': -0.29999999999999999, 'sd': 0.37}",-1.0,2,0.47506189346313477,0,"(1, 2)",258,1,False,False,False,True,False,True
259,0,"{'mean': -0.29999999999999999, 'sd': 0.37}",-0.30000000000000004,2,0.5524280071258545,0,"(1, 2)",259,1,True,False,False,True,False,True
260,0,"{'mean': -0.29999999999999999, 'sd': 0.37}",-0.10000000000000009,3,0.4576380252838135,0,"(1, 3)",260,1,False,False,False,True,False,True
261,0,"{'mean': -0.29999999999999999, 'sd': 0.37}",0.30000000000000004,3,0.7213418483734131,0,"(1, 3)",261,1,True,False,False,True,False,True
262,0,"{'mean': -0.29999999999999999, 'sd': 0.37}",0.10000000000000009,2,0.5087459087371826,0,"(0, 2)",262,1,False,False,False,True,False,True
263,0,"{'mean': -0.29999999999999999, 'sd': 0.37}",0.10000000000000009,2,0.49072694778442383,0,"(0, 2)",263,1,True,False,False,True,False,True
264,0,"{'mean': -0.29999999999999999, 'sd': 0.37}",-0.10000000000000009,2,0.6010849475860596,0,"(1, 2)",264,1,True,False,False,True,False,True
265,0,"{'mean': 0.29999999999999999, 'sd': 0.37}",0.7,1,0.7932851314544678,1,"(0, 3)",265,0,False,True,False,False,False,False
266,0,"{'mean': 0.29999999999999999, 'sd': 0.37}",0.7,1,0.5156469345092773,1,"(1, 3)",266,0,True,False,True,False,True,True
267,0,"{'mean': 0.29999999999999999, 'sd': 0.37}",0.5,0,0.4949030876159668,1,"(0, 3)",267,0,False,False,True,False,False,True
268,0,"{'mean': 0.29999999999999999, 'sd': 0.37}",-0.10000000000000009,0,0.9718282222747803,1,"(0, 2)",268,0,True,False,True,False,False,True
269,0,"{'mean': 0.29999999999999999, 'sd': 0.37}",0.30000000000000004,0,0.6256771087646484,1,"(0, 3)",269,0,True,False,True,False,False,True
270,0,"{'mean': 0.29999999999999999, 'sd': 0.37}",0.30000000000000004,0,0.48760104179382324,1,"(0, 2)",270,0,True,False,True,False,False,True
271,0,"{'mean': 0.29999999999999999, 'sd': 0.37}",0.10000000000000009,0,0.7006897926330566,1,"(1, 2)",271,0,True,False,False,False,True,False
272,0,"{'mean': -0.29999999999999999, 'sd': 0.37}",-0.7000000000000001,3,0.9755599498748779,0,"(1, 3)",272,1,False,True,False,True,False,True
273,0,"{'mean': -0.29999999999999999, 'sd': 0.37}",-0.7000000000000001,3,0.6811110973358154,0,"(1, 3)",273,1,True,False,False,True,False,True
274,0,"{'mean': -0.29999999999999999, 'sd': 0.37}",0.10000000000000009,3,0.7715809345245361,0,"(1, 3)",274,1,True,False,False,True,False,True
275,0,"{'mean': -0.29999999999999999, 'sd': 0.37}",-0.10000000000000009,2,0.48245906829833984,0,"(1, 2)",275,1,False,False,False,True,False,True
276,0,"{'mean': -0.29999999999999999, 'sd': 0.37}",-0.30000000000000004,2,0.5175158977508545,0,"(0, 2)",276,1,True,False,False,True,False,True
277,0,"{'mean': -0.29999999999999999, 'sd': 0.37}",0.10000000000000009,3,0.4610588550567627,0,"(1, 3)",277,1,False,False,False,True,False,True
278,0,"{'mean': -0.29999999999999999, 'sd': 0.37}",-0.9000000000000001,3,0.637664794921875,0,"(0, 3)",278,1,True,False,False,True,False,True
279,0,"{'mean': -0.29999999999999999, 'sd': 0.37}",-0.10000000000000009,2,0.6375019550323486,0,"(1, 2)",279,1,False,False,False,True,False,True
280,0,"{'mean': -0.29999999999999999, 'sd': 0.37}",-0.30000000000000004,3,0.46776390075683594,0,"(1, 3)",280,1,False,False,False,True,False,True
281,0,"{'mean': -0.29999999999999999, 'sd': 0.37}",-0.10000000000000009,3,0.44196105003356934,0,"(0, 3)",281,1,True,False,False,True,False,True
282,0,"{'mean': -0.29999999999999999, 'sd': 0.37}",0.10000000000000009,3,0.49410390853881836,0,"(0, 3)",282,1,True,False,False,True,False,True
283,0,"{'mean': -0.29999999999999999, 'sd': 0.37}",0.30000000000000004,2,0.5984339714050293,0,"(0, 2)",283,1,False,False,False,True,False,True
284,0,"{'mean': -0.29999999999999999, 'sd': 0.37}",-0.30000000000000004,3,0.45964598655700684,0,"(0, 3)",284,1,False,False,False,True,False,True
285,0,"{'mean': -0.29999999999999999, 'sd': 0.37}",-1.0,2,0.49370408058166504,0,"(0, 2)",285,1,False,False,False,True,False,True
286,0,"{'mean': -0.29999999999999999, 'sd': 0.37}",-0.5,2,0.6826691627502441,0,"(1, 2)",286,1,True,False,False,True,False,True
287,0,"{'mean': -0.29999999999999999, 'sd': 0.37}",-0.10000000000000009,3,0.5415980815887451,0,"(0, 3)",287,1,False,False,False,True,False,True
288,0,"{'mean': -0.29999999999999999, 'sd': 0.37}",-0.10000000000000009,3,0.7555480003356934,0,"(0, 3)",288,1,True,False,False,True,False,True
289,0,"{'mean': -0.29999999999999999, 'sd': 0.37}",-0.10000000000000009,3,0.5450339317321777,0,"(1, 3)",289,1,True,False,False,True,False,True
290,0,"{'mean': 0.29999999999999999, 'sd': 0.37}",0.30000000000000004,2,0.967216968536377,1,"(0, 2)",290,0,False,True,False,True,False,False
291,0,"{'mean': 0.29999999999999999, 'sd': 0.37}",0.30000000000000004,2,0.542572021484375,1,"(0, 2)",291,0,True,False,False,True,False,False
292,0,"{'mean': 0.29999999999999999, 'sd': 0.37}",-0.5,3,0.5373530387878418,1,"(1, 3)",292,0,False,False,False,True,False,False
293,0,"{'mean': 0.29999999999999999, 'sd': 0.37}",0.5,0,0.7483549118041992,1,"(0, 2)",293,0,False,False,True,False,True,True
294,0,"{'mean': 0.29999999999999999, 'sd': 0.37}",0.30000000000000004,0,0.41766905784606934,1,"(0, 2)",294,0,True,False,True,False,False,True
295,0,"{'mean': 0.29999999999999999, 'sd': 0.37}",0.10000000000000009,0,0.6780810356140137,1,"(0, 3)",295,0,True,False,True,False,False,True
296,0,"{'mean': 0.29999999999999999, 'sd': 0.37}",0.5,0,0.4728071689605713,1,"(0, 2)",296,0,True,False,True,False,False,True
297,0,"{'mean': 0.29999999999999999, 'sd': 0.37}",0.10000000000000009,0,0.5305290222167969,1,"(0, 3)",297,0,True,False,True,False,False,True
298,0,"{'mean': 0.29999999999999999, 'sd': 0.37}",0.30000000000000004,0,0.4105989933013916,1,"(0, 2)",298,0,True,False,True,False,False,True
299,0,"{'mean': 0.29999999999999999, 'sd': 0.37}",0.5,0,0.43707704544067383,1,"(0, 3)",299,0,True,False,True,False,False,True
300,0,"{'mean': -0.29999999999999999, 'sd': 0.37}",0.7,0,0.36470794677734375,0,"(0, 3)",300,1,True,True,True,False,False,False
301,0,"{'mean': -0.29999999999999999, 'sd': 0.37}",-0.10000000000000009,0,0.7745671272277832,0,"(0, 3)",301,1,True,False,True,False,False,False
302,0,"{'mean': -0.29999999999999999, 'sd': 0.37}",-0.7000000000000001,3,0.8321919441223145,0,"(0, 3)",302,1,False,False,False,True,True,True
303,0,"{'mean': -0.29999999999999999, 'sd': 0.37}",-0.5,2,0.7230010032653809,0,"(1, 2)",303,1,False,False,False,True,False,True
304,0,"{'mean': -0.29999999999999999, 'sd': 0.37}",-0.10000000000000009,3,0.446835994720459,0,"(1, 3)",304,1,False,False,False,True,False,True
305,0,"{'mean': -0.29999999999999999, 'sd': 0.37}",-0.10000000000000009,2,0.45827794075012207,0,"(1, 2)",305,1,False,False,False,True,False,True
306,0,"{'mean': 0.29999999999999999, 'sd': 0.37}",0.10000000000000009,3,0.5034229755401611,1,"(1, 3)",306,0,False,True,False,True,False,False
307,0,"{'mean': 0.29999999999999999, 'sd': 0.37}",0.5,0,0.5680370330810547,1,"(0, 2)",307,0,False,False,True,False,True,True
308,0,"{'mean': 0.29999999999999999, 'sd': 0.37}",0.8999999999999999,0,0.41194605827331543,1,"(0, 2)",308,0,True,False,True,False,False,True
309,0,"{'mean': 0.29999999999999999, 'sd': 0.37}",0.30000000000000004,1,0.3831140995025635,1,"(1, 3)",309,0,False,False,True,False,False,True
310,0,"{'mean': 0.29999999999999999, 'sd': 0.37}",0.5,1,0.7728610038757324,1,"(1, 3)",310,0,True,False,True,False,False,True
311,0,"{'mean': 0.29999999999999999, 'sd': 0.37}",-0.30000000000000004,1,1.3244900703430176,1,"(1, 3)",311,0,True,False,True,False,False,True
312,0,"{'mean': 0.29999999999999999, 'sd': 0.37}",0.30000000000000004,1,0.822221040725708,1,"(1, 3)",312,0,True,False,True,False,False,True
313,0,"{'mean': 0.29999999999999999, 'sd': 0.37}",-0.10000000000000009,0,0.5617070198059082,1,"(0, 2)",313,0,False,False,True,False,False,True
314,0,"{'mean': 0.29999999999999999, 'sd': 0.37}",0.30000000000000004,0,0.45118093490600586,1,"(0, 2)",314,0,True,False,True,False,False,True
315,0,"{'mean': 0.29999999999999999, 'sd': 0.37}",0.5,0,0.46445703506469727,1,"(1, 2)",315,0,True,False,False,False,True,False
316,0,"{'mean': 0.29999999999999999, 'sd': 0.37}",0.5,0,0.38268017768859863,1,"(1, 2)",316,0,True,False,False,False,False,False
317,0,"{'mean': 0.29999999999999999, 'sd': 0.37}",-0.7000000000000001,3,0.7926909923553467,1,"(0, 3)",317,0,False,False,False,True,False,False
318,0,"{'mean': 0.29999999999999999, 'sd': 0.37}",0.8999999999999999,0,0.9504320621490479,1,"(0, 3)",318,0,False,False,True,False,True,True
319,0,"{'mean': 0.29999999999999999, 'sd': 0.37}",0.5,1,0.7750101089477539,1,"(1, 3)",319,0,False,False,True,False,False,True
320,0,"{'mean': 0.29999999999999999, 'sd': 0.37}",0.5,1,0.5460050106048584,1,"(1, 3)",320,0,True,False,True,False,False,True
321,0,"{'mean': 0.29999999999999999, 'sd': 0.37}",0.30000000000000004,0,0.5512380599975586,1,"(1, 2)",321,0,False,False,False,False,True,False
322,0,"{'mean': 0.29999999999999999, 'sd': 0.37}",-0.10000000000000009,1,0.8937718868255615,1,"(1, 3)",322,0,False,False,True,False,True,True
323,0,"{'mean': 0.29999999999999999, 'sd': 0.37}",0.30000000000000004,1,0.615710973739624,1,"(1, 3)",323,0,True,False,True,False,False,True
324,0,"{'mean': 0.29999999999999999, 'sd': 0.37}",0.7,0,0.6246979236602783,1,"(0, 3)",324,0,False,False,True,False,False,True
325,0,"{'mean': 0.29999999999999999, 'sd': 0.37}",0.7,0,0.3629729747772217,1,"(0, 3)",325,0,True,False,True,False,False,True
326,0,"{'mean': 0.29999999999999999, 'sd': 0.37}",-0.30000000000000004,2,0.7141790390014648,1,"(0, 2)",326,0,False,False,False,True,True,False
327,0,"{'mean': 0.29999999999999999, 'sd': 0.37}",-0.10000000000000009,3,1.0501301288604736,1,"(1, 3)",327,0,False,False,False,True,False,False
328,0,"{'mean': 0.29999999999999999, 'sd': 0.37}",0.5,1,0.7135570049285889,1,"(1, 2)",328,0,False,False,True,False,True,True
330,0,"{'mean': 0.29999999999999999, 'sd': 0.37}",0.10000000000000009,1,0.8313047885894775,1,"(1, 3)",330,0,True,False,True,False,False,True
331,0,"{'mean': 0.29999999999999999, 'sd': 0.37}",0.30000000000000004,0,0.7246859073638916,1,"(0, 3)",331,0,False,False,True,False,False,True
332,0,"{'mean': 0.29999999999999999, 'sd': 0.37}",0.7,1,0.5985119342803955,1,"(1, 2)",332,0,False,False,True,False,False,True
333,0,"{'mean': -0.29999999999999999, 'sd': 0.37}",-0.30000000000000004,3,1.2420940399169922,0,"(1, 3)",333,1,False,True,False,True,True,True
334,0,"{'mean': -0.29999999999999999, 'sd': 0.37}",0.30000000000000004,1,0.9174401760101318,0,"(1, 3)",334,1,False,False,True,False,True,False
335,0,"{'mean': -0.29999999999999999, 'sd': 0.37}",-0.30000000000000004,0,1.2218799591064453,0,"(1, 2)",335,1,False,False,False,False,True,False
336,0,"{'mean': -0.29999999999999999, 'sd': 0.37}",-0.9000000000000001,3,1.0366718769073486,0,"(0, 3)",336,1,False,False,False,True,False,True
337,0,"{'mean': 0.29999999999999999, 'sd': 0.37}",0.8999999999999999,1,0.9310879707336426,1,"(1, 2)",337,0,False,True,True,False,True,True
338,0,"{'mean': 0.29999999999999999, 'sd': 0.37}",0.10000000000000009,0,0.6275629997253418,1,"(0, 2)",338,0,False,False,True,False,False,True
339,0,"{'mean': 0.29999999999999999, 'sd': 0.37}",0.10000000000000009,0,0.5056321620941162,1,"(0, 2)",339,0,True,False,True,False,False,True
340,0,"{'mean': -0.29999999999999999, 'sd': 0.37}",-0.5,2,1.1408319473266602,0,"(1, 2)",340,1,False,True,False,True,True,True
341,0,"{'mean': -0.29999999999999999, 'sd': 0.37}",-0.9000000000000001,3,0.8831889629364014,0,"(0, 3)",341,1,False,False,False,True,False,True
342,0,"{'mean': -0.29999999999999999, 'sd': 0.37}",-0.5,2,1.2497589588165283,0,"(0, 2)",342,1,False,False,False,True,False,True
343,0,"{'mean': -0.29999999999999999, 'sd': 0.37}",-0.9000000000000001,3,0.5684239864349365,0,"(1, 2)",343,1,False,False,False,False,False,False
344,0,"{'mean': -0.29999999999999999, 'sd': 0.37}",-1.0,3,0.6699681282043457,0,"(1, 2)",344,1,True,False,False,False,False,False
345,0,"{'mean': -0.29999999999999999, 'sd': 0.37}",-0.5,2,0.4828779697418213,0,"(0, 2)",345,1,False,False,False,True,False,True
346,0,"{'mean': -0.29999999999999999, 'sd': 0.37}",-0.5,3,1.1410529613494873,0,"(1, 3)",346,1,False,False,False,True,False,True
348,0,"{'mean': -0.29999999999999999, 'sd': 0.37}",0.5,2,1.2689199447631836,0,"(0, 2)",348,1,False,False,False,True,False,True
349,0,"{'mean': -0.29999999999999999, 'sd': 0.37}",-0.30000000000000004,3,0.6851861476898193,0,"(0, 3)",349,1,False,False,False,True,False,True
350,0,"{'mean': -0.29999999999999999, 'sd': 0.37}",-0.30000000000000004,3,1.1150729656219482,0,"(0, 3)",350,1,True,False,False,True,False,True
351,0,"{'mean': -0.29999999999999999, 'sd': 0.37}",-0.5,3,0.9551160335540771,0,"(1, 3)",351,1,True,False,False,True,False,True
352,0,"{'mean': -0.29999999999999999, 'sd': 0.37}",-0.5,2,0.7527990341186523,0,"(0, 2)",352,1,False,False,False,True,False,True
353,0,"{'mean': -0.29999999999999999, 'sd': 0.37}",-0.5,3,0.6396200656890869,0,"(1, 3)",353,1,False,False,False,True,False,True
354,0,"{'mean': -0.29999999999999999, 'sd': 0.37}",-1.0,2,0.6878128051757812,0,"(0, 2)",354,1,False,False,False,True,False,True
355,0,"{'mean': -0.29999999999999999, 'sd': 0.37}",-0.5,2,0.9207861423492432,0,"(1, 2)",355,1,True,False,False,True,False,True
356,0,"{'mean': -0.29999999999999999, 'sd': 0.37}",-0.10000000000000009,3,0.7583091259002686,0,"(0, 3)",356,1,False,False,False,True,False,True
357,0,"{'mean': -0.29999999999999999, 'sd': 0.37}",-1.0,3,0.6759419441223145,0,"(0, 3)",357,1,True,False,False,True,False,True
358,0,"{'mean': -0.29999999999999999, 'sd': 0.37}",-0.10000000000000009,3,0.5151898860931396,0,"(1, 3)",358,1,True,False,False,True,False,True
359,0,"{'mean': -0.29999999999999999, 'sd': 0.37}",-0.7000000000000001,2,0.4096980094909668,0,"(0, 2)",359,1,False,False,False,True,False,True
360,0,"{'mean': 0.29999999999999999, 'sd': 0.37}",-0.10000000000000009,2,0.3675990104675293,1,"(0, 2)",360,0,True,True,False,True,False,False
361,0,"{'mean': 0.29999999999999999, 'sd': 0.37}",0.30000000000000004,2,0.4422469139099121,1,"(1, 2)",361,0,True,False,False,True,False,False
362,0,"{'mean': 0.29999999999999999, 'sd': 0.37}",-0.10000000000000009,3,0.42897510528564453,1,"(0, 3)",362,0,False,False,False,True,False,False
363,0,"{'mean': 0.29999999999999999, 'sd': 0.37}",0.30000000000000004,3,0.688791036605835,1,"(0, 3)",363,0,True,False,False,True,False,False
364,0,"{'mean': 0.29999999999999999, 'sd': 0.37}",0.30000000000000004,0,0.7528080940246582,1,"(1, 2)",364,0,False,False,False,False,False,False
365,0,"{'mean': 0.29999999999999999, 'sd': 0.37}",0.5,1,0.9396710395812988,1,"(1, 3)",365,0,False,False,True,False,True,True
366,0,"{'mean': 0.29999999999999999, 'sd': 0.37}",0.10000000000000009,0,0.828495979309082,1,"(0, 2)",366,0,False,False,True,False,False,True
367,0,"{'mean': 0.29999999999999999, 'sd': 0.37}",0.10000000000000009,1,0.6055119037628174,1,"(1, 2)",367,0,False,False,True,False,False,True
368,0,"{'mean': 0.29999999999999999, 'sd': 0.37}",0.10000000000000009,1,0.5578489303588867,1,"(1, 3)",368,0,True,False,True,False,False,True
369,0,"{'mean': 0.29999999999999999, 'sd': 0.37}",0.8999999999999999,0,0.41321396827697754,1,"(0, 2)",369,0,False,False,True,False,False,True
370,0,"{'mean': 0.29999999999999999, 'sd': 0.37}",0.30000000000000004,0,0.38227105140686035,1,"(0, 2)",370,0,True,False,True,False,False,True
371,0,"{'mean': 0.29999999999999999, 'sd': 0.37}",-0.10000000000000009,1,0.4722859859466553,1,"(1, 2)",371,0,False,False,True,False,False,True
372,0,"{'mean': -0.29999999999999999, 'sd': 0.37}",-0.10000000000000009,1,1.1885991096496582,0,"(0, 3)",372,1,True,True,False,False,True,False
373,0,"{'mean': -0.29999999999999999, 'sd': 0.37}",-0.9000000000000001,2,0.870581865310669,0,"(0, 2)",373,1,False,False,False,True,False,True
374,0,"{'mean': -0.29999999999999999, 'sd': 0.37}",-0.30000000000000004,3,0.8723719120025635,0,"(1, 2)",374,1,False,False,False,False,False,False
375,0,"{'mean': -0.29999999999999999, 'sd': 0.37}",0.30000000000000004,2,1.1295239925384521,0,"(1, 2)",375,1,False,False,False,True,False,True
376,0,"{'mean': -0.29999999999999999, 'sd': 0.37}",-0.10000000000000009,3,0.7018129825592041,0,"(1, 3)",376,1,False,False,False,True,False,True
377,0,"{'mean': -0.29999999999999999, 'sd': 0.37}",-0.7000000000000001,2,0.4913599491119385,0,"(0, 2)",377,1,False,False,False,True,False,True
378,0,"{'mean': -0.29999999999999999, 'sd': 0.37}",-0.30000000000000004,2,0.5698339939117432,0,"(1, 2)",378,1,True,False,False,True,False,True
379,0,"{'mean': -0.29999999999999999, 'sd': 0.37}",0.10000000000000009,2,0.5813097953796387,0,"(0, 2)",379,1,True,False,False,True,False,True
380,0,"{'mean': 0.29999999999999999, 'sd': 0.37}",1.0,1,1.367300033569336,1,"(1, 2)",380,0,False,True,True,False,True,True
381,0,"{'mean': 0.29999999999999999, 'sd': 0.37}",-0.30000000000000004,3,1.0694971084594727,1,"(1, 3)",381,0,False,False,False,True,True,False
382,0,"{'mean': 0.29999999999999999, 'sd': 0.37}",0.30000000000000004,1,0.8113420009613037,1,"(1, 2)",382,0,False,False,True,False,True,True
383,0,"{'mean': 0.29999999999999999, 'sd': 0.37}",0.10000000000000009,0,0.8285250663757324,1,"(0, 3)",383,0,False,False,True,False,False,True
384,0,"{'mean': -0.29999999999999999, 'sd': 0.37}",-1.0,3,1.0184729099273682,0,"(1, 3)",384,1,False,True,False,True,True,True
385,0,"{'mean': -0.29999999999999999, 'sd': 0.37}",0.10000000000000009,3,0.8126859664916992,0,"(0, 3)",385,1,True,False,False,True,False,True
386,0,"{'mean': -0.29999999999999999, 'sd': 0.37}",-0.9000000000000001,3,0.6348600387573242,0,"(0, 3)",386,1,True,False,False,True,False,True
387,0,"{'mean': -0.29999999999999999, 'sd': 0.37}",0.30000000000000004,2,0.47615885734558105,0,"(0, 2)",387,1,False,False,False,True,False,True
388,0,"{'mean': -0.29999999999999999, 'sd': 0.37}",-0.5,3,0.49819016456604004,0,"(0, 3)",388,1,False,False,False,True,False,True
389,0,"{'mean': -0.29999999999999999, 'sd': 0.37}",-0.10000000000000009,2,0.4940659999847412,0,"(0, 2)",389,1,False,False,False,True,False,True
390,0,"{'mean': -0.29999999999999999, 'sd': 0.37}",0.10000000000000009,3,0.5192451477050781,0,"(1, 3)",390,1,False,False,False,True,False,True
391,0,"{'mean': -0.29999999999999999, 'sd': 0.37}",0.5,0,0.7662739753723145,0,"(0, 2)",391,1,False,False,True,False,True,False
392,0,"{'mean': -0.29999999999999999, 'sd': 0.37}",-0.30000000000000004,0,1.2955219745635986,0,"(0, 3)",392,1,True,False,True,False,False,False
393,0,"{'mean': -0.29999999999999999, 'sd': 0.37}",-0.10000000000000009,0,0.7644131183624268,0,"(0, 2)",393,1,True,False,True,False,False,False
394,0,"{'mean': -0.29999999999999999, 'sd': 0.37}",-0.10000000000000009,0,0.6337840557098389,0,"(0, 2)",394,1,True,False,True,False,False,False
395,0,"{'mean': -0.29999999999999999, 'sd': 0.37}",-0.30000000000000004,2,0.9320859909057617,0,"(0, 2)",395,1,False,False,False,True,True,True
396,0,"{'mean': -0.29999999999999999, 'sd': 0.37}",-0.10000000000000009,2,0.6935019493103027,0,"(0, 2)",396,1,True,False,False,True,False,True
397,0,"{'mean': -0.29999999999999999, 'sd': 0.37}",-0.10000000000000009,2,0.6451189517974854,0,"(1, 2)",397,1,True,False,False,True,False,True
398,0,"{'mean': -0.29999999999999999, 'sd': 0.37}",-0.10000000000000009,3,0.7721719741821289,0,"(1, 3)",398,1,False,False,False,True,False,True
399,0,"{'mean': -0.29999999999999999, 'sd': 0.37}",-0.5,3,0.9788010120391846,0,"(1, 3)",399,1,True,False,False,True,False,True
400,0,"{'mean': -0.29999999999999999, 'sd': 0.37}",-0.7000000000000001,3,0.6414079666137695,0,"(0, 3)",400,1,True,False,False,True,False,True
