trial_count,FB,c_dis,context,response,rt,state,stim,trial_count,ts,rep_resp,switch,con_shape,con_orient,correct
1,1,"{'mean': -0.29999999999999999, 'sd': 0.37}",-0.5,j,0.4622189998626709,0,"(1, 2)",1,1,False,False,False,False,False
2,1,"{'mean': -0.29999999999999999, 'sd': 0.37}",0.30000000000000004,k,0.8065090179443359,0,"(0, 3)",2,1,False,False,False,False,False
3,1,"{'mean': -0.29999999999999999, 'sd': 0.37}",-1.0,j,0.6636660099029541,0,"(0, 2)",3,1,False,False,False,False,False
4,1,"{'mean': -0.29999999999999999, 'sd': 0.37}",-0.9000000000000001,j,0.8612229824066162,0,"(1, 2)",4,1,True,False,False,False,False
5,1,"{'mean': -0.29999999999999999, 'sd': 0.37}",0.10000000000000009,k,1.0193939208984375,0,"(0, 3)",5,1,False,False,False,False,False
6,1,"{'mean': -0.29999999999999999, 'sd': 0.37}",-0.9000000000000001,k,0.9302811622619629,0,"(1, 3)",6,1,True,False,False,False,False
7,1,"{'mean': -0.29999999999999999, 'sd': 0.37}",-0.5,k,0.6559150218963623,0,"(0, 3)",7,1,True,False,False,False,False
8,1,"{'mean': -0.29999999999999999, 'sd': 0.37}",-0.30000000000000004,k,0.5150468349456787,0,"(0, 3)",8,1,True,False,False,False,False
9,1,"{'mean': -0.29999999999999999, 'sd': 0.37}",-0.10000000000000009,k,0.6632900238037109,0,"(1, 3)",9,1,True,False,False,False,False
10,1,"{'mean': -0.29999999999999999, 'sd': 0.37}",-0.30000000000000004,k,0.40984416007995605,0,"(1, 3)",10,1,True,False,False,False,False
11,1,"{'mean': -0.29999999999999999, 'sd': 0.37}",-0.30000000000000004,j,0.49829697608947754,0,"(0, 2)",11,1,False,False,False,False,False
12,1,"{'mean': -0.29999999999999999, 'sd': 0.37}",-0.5,j,0.7093429565429688,0,"(1, 2)",12,1,True,False,False,False,False
13,1,"{'mean': -0.29999999999999999, 'sd': 0.37}",-0.7000000000000001,k,0.3330399990081787,0,"(0, 3)",13,1,False,False,False,False,False
14,1,"{'mean': -0.29999999999999999, 'sd': 0.37}",-0.5,j,0.41320204734802246,0,"(1, 2)",14,1,False,False,False,False,False
15,1,"{'mean': -0.29999999999999999, 'sd': 0.37}",-1.0,j,0.4638550281524658,0,"(0, 2)",15,1,True,False,False,False,False
16,1,"{'mean': -0.29999999999999999, 'sd': 0.37}",-0.10000000000000009,j,0.4648900032043457,0,"(1, 2)",16,1,True,False,False,False,False
17,0,"{'mean': 0.29999999999999999, 'sd': 0.37}",-0.10000000000000009,k,0.5592689514160156,1,"(0, 3)",17,0,False,True,False,False,False
18,1,"{'mean': 0.29999999999999999, 'sd': 0.37}",0.5,d,0.7253589630126953,1,"(0, 2)",18,0,False,False,False,False,False
19,0,"{'mean': 0.29999999999999999, 'sd': 0.37}",-0.10000000000000009,d,1.1461482048034668,1,"(1, 2)",19,0,True,False,False,False,False
20,1,"{'mean': 0.29999999999999999, 'sd': 0.37}",0.5,d,0.7648718357086182,1,"(0, 3)",20,0,True,False,False,False,False
21,0,"{'mean': 0.29999999999999999, 'sd': 0.37}",0.8999999999999999,d,0.6115641593933105,1,"(1, 2)",21,0,True,False,False,False,False
22,1,"{'mean': 0.29999999999999999, 'sd': 0.37}",0.10000000000000009,d,0.5564570426940918,1,"(0, 2)",22,0,True,False,False,False,False
23,0,"{'mean': 0.29999999999999999, 'sd': 0.37}",0.8999999999999999,f,0.5222358703613281,1,"(0, 3)",23,0,False,False,False,False,False
24,1,"{'mean': 0.29999999999999999, 'sd': 0.37}",0.10000000000000009,f,0.5311930179595947,1,"(1, 2)",24,0,True,False,False,False,False
25,0,"{'mean': 0.29999999999999999, 'sd': 0.37}",-0.10000000000000009,f,0.8947999477386475,1,"(0, 2)",25,0,True,False,False,False,False
26,1,"{'mean': -0.29999999999999999, 'sd': 0.37}",-0.7000000000000001,k,0.7799861431121826,0,"(0, 3)",26,1,False,True,False,False,False
27,1,"{'mean': -0.29999999999999999, 'sd': 0.37}",-0.5,j,0.4970359802246094,0,"(0, 2)",27,1,False,False,False,False,False
28,1,"{'mean': -0.29999999999999999, 'sd': 0.37}",-0.30000000000000004,k,0.5460069179534912,0,"(1, 3)",28,1,False,False,False,False,False
29,0,"{'mean': 0.29999999999999999, 'sd': 0.37}",0.7,j,0.44498205184936523,1,"(0, 2)",29,0,False,True,False,False,False
30,0,"{'mean': 0.29999999999999999, 'sd': 0.37}",-0.30000000000000004,k,0.7788069248199463,1,"(0, 3)",30,0,False,False,False,False,False
31,1,"{'mean': 0.29999999999999999, 'sd': 0.37}",-0.10000000000000009,f,0.5379910469055176,1,"(1, 3)",31,0,False,False,False,False,False
32,1,"{'mean': 0.29999999999999999, 'sd': 0.37}",-0.10000000000000009,f,0.5954220294952393,1,"(1, 3)",32,0,True,False,False,False,False
33,1,"{'mean': 0.29999999999999999, 'sd': 0.37}",0.8999999999999999,f,0.4485440254211426,1,"(1, 3)",33,0,True,False,False,False,False
34,1,"{'mean': 0.29999999999999999, 'sd': 0.37}",0.8999999999999999,f,0.4598689079284668,1,"(1, 3)",34,0,True,False,False,False,False
35,1,"{'mean': 0.29999999999999999, 'sd': 0.37}",0.10000000000000009,d,0.8495891094207764,1,"(0, 2)",35,0,False,False,False,False,False
36,0,"{'mean': 0.29999999999999999, 'sd': 0.37}",-0.30000000000000004,d,1.0338590145111084,1,"(1, 2)",36,0,True,False,False,False,False
37,1,"{'mean': 0.29999999999999999, 'sd': 0.37}",-0.30000000000000004,d,0.7049579620361328,1,"(0, 2)",37,0,True,False,False,False,False
38,0,"{'mean': 0.29999999999999999, 'sd': 0.37}",-0.30000000000000004,d,0.6242330074310303,1,"(1, 2)",38,0,True,False,False,False,False
39,1,"{'mean': 0.29999999999999999, 'sd': 0.37}",0.30000000000000004,f,0.8803999423980713,1,"(1, 2)",39,0,False,False,False,False,False
40,0,"{'mean': 0.29999999999999999, 'sd': 0.37}",0.7,f,1.106132984161377,1,"(0, 3)",40,0,True,False,False,False,False
41,1,"{'mean': 0.29999999999999999, 'sd': 0.37}",0.7,d,0.6295909881591797,1,"(0, 3)",41,0,False,False,False,False,False
42,1,"{'mean': 0.29999999999999999, 'sd': 0.37}",0.30000000000000004,d,0.9994001388549805,1,"(0, 2)",42,0,True,False,False,False,False
43,0,"{'mean': -0.29999999999999999, 'sd': 0.37}",-0.30000000000000004,f,1.1326448917388916,0,"(1, 3)",43,1,False,True,False,False,False
44,1,"{'mean': -0.29999999999999999, 'sd': 0.37}",-0.10000000000000009,j,0.821173906326294,0,"(1, 2)",44,1,False,False,False,False,False
45,1,"{'mean': -0.29999999999999999, 'sd': 0.37}",0.10000000000000009,j,0.7217061519622803,0,"(0, 2)",45,1,True,False,False,False,False
46,0,"{'mean': 0.29999999999999999, 'sd': 0.37}",-0.30000000000000004,j,0.5525071620941162,1,"(1, 2)",46,0,True,True,False,False,False
47,1,"{'mean': 0.29999999999999999, 'sd': 0.37}",-0.10000000000000009,d,0.5524051189422607,1,"(0, 2)",47,0,False,False,False,False,False
48,1,"{'mean': 0.29999999999999999, 'sd': 0.37}",0.30000000000000004,f,0.5325789451599121,1,"(1, 3)",48,0,False,False,False,False,False
49,0,"{'mean': 0.29999999999999999, 'sd': 0.37}",0.10000000000000009,d,0.7213170528411865,1,"(1, 2)",49,0,False,False,False,False,False
50,1,"{'mean': 0.29999999999999999, 'sd': 0.37}",0.30000000000000004,f,0.8773598670959473,1,"(1, 3)",50,0,False,False,False,False,False
51,0,"{'mean': -0.29999999999999999, 'sd': 0.37}",0.5,d,0.6043241024017334,0,"(0, 3)",51,1,False,True,False,False,False
53,1,"{'mean': -0.29999999999999999, 'sd': 0.37}",-0.9000000000000001,j,0.8269138336181641,0,"(1, 2)",53,1,False,False,False,False,False
54,0,"{'mean': 0.29999999999999999, 'sd': 0.37}",0.5,j,1.0729269981384277,1,"(1, 2)",54,0,True,True,False,False,False
55,0,"{'mean': 0.29999999999999999, 'sd': 0.37}",0.5,d,0.6534340381622314,1,"(1, 2)",55,0,False,False,False,False,False
56,1,"{'mean': 0.29999999999999999, 'sd': 0.37}",0.30000000000000004,f,0.767218828201294,1,"(1, 3)",56,0,False,False,False,False,False
57,1,"{'mean': 0.29999999999999999, 'sd': 0.37}",0.7,d,0.35057616233825684,1,"(0, 2)",57,0,False,False,False,False,False
58,1,"{'mean': 0.29999999999999999, 'sd': 0.37}",0.5,d,0.6096830368041992,1,"(0, 3)",58,0,True,False,False,False,False
59,1,"{'mean': 0.29999999999999999, 'sd': 0.37}",0.10000000000000009,d,0.6324958801269531,1,"(0, 2)",59,0,True,False,False,False,False
60,1,"{'mean': 0.29999999999999999, 'sd': 0.37}",0.30000000000000004,d,0.7301177978515625,1,"(0, 3)",60,0,True,False,False,False,False
61,1,"{'mean': 0.29999999999999999, 'sd': 0.37}",0.7,d,0.5788180828094482,1,"(0, 2)",61,0,True,False,False,False,False
62,0,"{'mean': 0.29999999999999999, 'sd': 0.37}",0.10000000000000009,f,0.8098387718200684,1,"(0, 3)",62,0,False,False,False,False,False
63,1,"{'mean': 0.29999999999999999, 'sd': 0.37}",-0.10000000000000009,d,0.5092079639434814,1,"(0, 2)",63,0,False,False,False,False,False
64,1,"{'mean': 0.29999999999999999, 'sd': 0.37}",0.10000000000000009,f,0.8719608783721924,1,"(1, 3)",64,0,False,False,False,False,False
65,1,"{'mean': 0.29999999999999999, 'sd': 0.37}",0.30000000000000004,d,0.5733780860900879,1,"(0, 3)",65,0,False,False,False,False,False
66,1,"{'mean': 0.29999999999999999, 'sd': 0.37}",-0.10000000000000009,f,0.8577370643615723,1,"(1, 3)",66,0,False,False,False,False,False
67,1,"{'mean': 0.29999999999999999, 'sd': 0.37}",0.8999999999999999,f,0.6456460952758789,1,"(1, 3)",67,0,True,False,False,False,False
68,1,"{'mean': 0.29999999999999999, 'sd': 0.37}",0.5,f,0.6408050060272217,1,"(1, 3)",68,0,True,False,False,False,False
69,1,"{'mean': 0.29999999999999999, 'sd': 0.37}",-0.10000000000000009,d,0.8824491500854492,1,"(0, 3)",69,0,False,False,False,False,False
70,1,"{'mean': 0.29999999999999999, 'sd': 0.37}",0.10000000000000009,f,0.8884811401367188,1,"(1, 3)",70,0,False,False,False,False,False
71,1,"{'mean': -0.29999999999999999, 'sd': 0.37}",-0.5,j,0.7468650341033936,0,"(0, 2)",71,1,False,True,False,False,False
72,1,"{'mean': -0.29999999999999999, 'sd': 0.37}",-0.10000000000000009,j,0.6762049198150635,0,"(0, 2)",72,1,True,False,False,False,False
73,0,"{'mean': -0.29999999999999999, 'sd': 0.37}",-1.0,k,0.7175650596618652,0,"(0, 2)",73,1,False,False,False,False,False
74,1,"{'mean': -0.29999999999999999, 'sd': 0.37}",-0.9000000000000001,k,0.474290132522583,0,"(1, 3)",74,1,True,False,False,False,False
75,1,"{'mean': -0.29999999999999999, 'sd': 0.37}",-0.7000000000000001,k,0.655040979385376,0,"(0, 3)",75,1,True,False,False,False,False
76,1,"{'mean': -0.29999999999999999, 'sd': 0.37}",-0.5,j,1.008469820022583,0,"(1, 2)",76,1,False,False,False,False,False
77,1,"{'mean': -0.29999999999999999, 'sd': 0.37}",0.10000000000000009,k,0.7481088638305664,0,"(1, 3)",77,1,False,False,False,False,False
78,1,"{'mean': -0.29999999999999999, 'sd': 0.37}",-0.7000000000000001,k,0.583855152130127,0,"(1, 3)",78,1,True,False,False,False,False
79,1,"{'mean': -0.29999999999999999, 'sd': 0.37}",-0.30000000000000004,k,0.6124849319458008,0,"(0, 3)",79,1,True,False,False,False,False
80,1,"{'mean': -0.29999999999999999, 'sd': 0.37}",-0.10000000000000009,j,0.7054970264434814,0,"(0, 2)",80,1,False,False,False,False,False
81,1,"{'mean': -0.29999999999999999, 'sd': 0.37}",-0.7000000000000001,k,0.6461749076843262,0,"(1, 3)",81,1,False,False,False,False,False
82,1,"{'mean': -0.29999999999999999, 'sd': 0.37}",0.30000000000000004,k,1.2700729370117188,0,"(0, 3)",82,1,True,False,False,False,False
83,1,"{'mean': -0.29999999999999999, 'sd': 0.37}",-0.5,k,0.5483019351959229,0,"(1, 3)",83,1,True,False,False,False,False
84,1,"{'mean': -0.29999999999999999, 'sd': 0.37}",0.10000000000000009,j,0.4450700283050537,0,"(0, 2)",84,1,False,False,False,False,False
85,1,"{'mean': -0.29999999999999999, 'sd': 0.37}",0.10000000000000009,k,0.53684401512146,0,"(1, 3)",85,1,False,False,False,False,False
86,1,"{'mean': -0.29999999999999999, 'sd': 0.37}",-0.30000000000000004,k,0.6575570106506348,0,"(1, 3)",86,1,True,False,False,False,False
87,1,"{'mean': -0.29999999999999999, 'sd': 0.37}",-1.0,j,0.8362610340118408,0,"(1, 2)",87,1,False,False,False,False,False
88,1,"{'mean': -0.29999999999999999, 'sd': 0.37}",0.10000000000000009,k,0.5132818222045898,0,"(1, 3)",88,1,False,False,False,False,False
89,1,"{'mean': -0.29999999999999999, 'sd': 0.37}",-0.10000000000000009,j,0.4900360107421875,0,"(0, 2)",89,1,False,False,False,False,False
90,1,"{'mean': -0.29999999999999999, 'sd': 0.37}",-0.5,k,0.7148449420928955,0,"(1, 3)",90,1,False,False,False,False,False
91,0,"{'mean': -0.29999999999999999, 'sd': 0.37}",0.30000000000000004,f,1.092120885848999,0,"(0, 3)",91,1,False,False,False,False,False
92,1,"{'mean': -0.29999999999999999, 'sd': 0.37}",-0.5,j,0.6841349601745605,0,"(1, 2)",92,1,False,False,False,False,False
93,1,"{'mean': -0.29999999999999999, 'sd': 0.37}",0.10000000000000009,k,0.5611720085144043,0,"(1, 3)",93,1,False,False,False,False,False
94,1,"{'mean': -0.29999999999999999, 'sd': 0.37}",0.10000000000000009,j,0.7326738834381104,0,"(1, 2)",94,1,False,False,False,False,False
95,1,"{'mean': -0.29999999999999999, 'sd': 0.37}",-0.10000000000000009,j,0.6078360080718994,0,"(0, 2)",95,1,True,False,False,False,False
96,1,"{'mean': -0.29999999999999999, 'sd': 0.37}",0.10000000000000009,j,0.5820090770721436,0,"(1, 2)",96,1,True,False,False,False,False
97,1,"{'mean': -0.29999999999999999, 'sd': 0.37}",-1.0,k,0.718278169631958,0,"(1, 3)",97,1,False,False,False,False,False
98,0,"{'mean': 0.29999999999999999, 'sd': 0.37}",-0.10000000000000009,k,0.7547318935394287,1,"(0, 3)",98,0,True,True,False,False,False
99,1,"{'mean': 0.29999999999999999, 'sd': 0.37}",0.30000000000000004,d,0.7187621593475342,1,"(0, 2)",99,0,False,False,False,False,False
100,1,"{'mean': 0.29999999999999999, 'sd': 0.37}",0.30000000000000004,f,0.5224769115447998,1,"(1, 3)",100,0,False,False,False,False,False
101,1,"{'mean': 0.29999999999999999, 'sd': 0.37}",0.30000000000000004,d,0.4720430374145508,1,"(0, 2)",101,0,False,False,False,False,False
102,1,"{'mean': 0.29999999999999999, 'sd': 0.37}",0.10000000000000009,f,0.5025670528411865,1,"(1, 3)",102,0,False,False,False,False,False
103,1,"{'mean': 0.29999999999999999, 'sd': 0.37}",0.30000000000000004,f,0.4526360034942627,1,"(1, 3)",103,0,True,False,False,False,False
104,0,"{'mean': 0.29999999999999999, 'sd': 0.37}",0.10000000000000009,d,0.6171441078186035,1,"(1, 2)",104,0,False,False,False,False,False
105,0,"{'mean': -0.29999999999999999, 'sd': 0.37}",-0.10000000000000009,d,0.9365880489349365,0,"(0, 3)",105,1,True,True,False,False,False
106,1,"{'mean': -0.29999999999999999, 'sd': 0.37}",0.10000000000000009,j,0.7421588897705078,0,"(0, 2)",106,1,False,False,False,False,False
107,1,"{'mean': -0.29999999999999999, 'sd': 0.37}",-0.30000000000000004,j,0.5039072036743164,0,"(0, 2)",107,1,True,False,False,False,False
108,0,"{'mean': -0.29999999999999999, 'sd': 0.37}",0.30000000000000004,f,1.0330848693847656,0,"(0, 3)",108,1,False,False,False,False,False
109,1,"{'mean': -0.29999999999999999, 'sd': 0.37}",-0.30000000000000004,k,0.8295819759368896,0,"(0, 3)",109,1,False,False,False,False,False
110,0,"{'mean': 0.29999999999999999, 'sd': 0.37}",0.8999999999999999,d,0.6393918991088867,1,"(1, 2)",110,0,False,True,False,False,False
111,1,"{'mean': 0.29999999999999999, 'sd': 0.37}",0.5,d,0.8303608894348145,1,"(0, 2)",111,0,True,False,False,False,False
112,1,"{'mean': 0.29999999999999999, 'sd': 0.37}",-0.10000000000000009,d,0.5603539943695068,1,"(0, 2)",112,0,True,False,False,False,False
113,0,"{'mean': -0.29999999999999999, 'sd': 0.37}",-0.30000000000000004,d,0.7283530235290527,0,"(1, 2)",113,1,True,True,False,False,False
114,1,"{'mean': -0.29999999999999999, 'sd': 0.37}",0.30000000000000004,k,0.9000108242034912,0,"(1, 3)",114,1,False,False,False,False,False
115,1,"{'mean': -0.29999999999999999, 'sd': 0.37}",-0.10000000000000009,j,0.4807310104370117,0,"(0, 2)",115,1,False,False,False,False,False
116,1,"{'mean': -0.29999999999999999, 'sd': 0.37}",-0.30000000000000004,j,0.5032808780670166,0,"(0, 2)",116,1,True,False,False,False,False
117,1,"{'mean': -0.29999999999999999, 'sd': 0.37}",0.10000000000000009,k,0.9449100494384766,0,"(0, 3)",117,1,False,False,False,False,False
118,1,"{'mean': -0.29999999999999999, 'sd': 0.37}",-0.30000000000000004,j,0.5649509429931641,0,"(1, 2)",118,1,False,False,False,False,False
119,1,"{'mean': -0.29999999999999999, 'sd': 0.37}",-0.5,j,0.48238301277160645,0,"(1, 2)",119,1,True,False,False,False,False
120,0,"{'mean': -0.29999999999999999, 'sd': 0.37}",0.30000000000000004,f,1.165738821029663,0,"(1, 3)",120,1,False,False,False,False,False
121,1,"{'mean': -0.29999999999999999, 'sd': 0.37}",-0.30000000000000004,j,0.5146749019622803,0,"(0, 2)",121,1,False,False,False,False,False
122,0,"{'mean': -0.29999999999999999, 'sd': 0.37}",0.5,f,1.1024179458618164,0,"(0, 3)",122,1,False,False,False,False,False
123,0,"{'mean': -0.29999999999999999, 'sd': 0.37}",0.10000000000000009,d,0.7563798427581787,0,"(0, 2)",123,1,False,False,False,False,False
124,1,"{'mean': -0.29999999999999999, 'sd': 0.37}",-0.5,k,0.7353601455688477,0,"(0, 3)",124,1,False,False,False,False,False
125,1,"{'mean': -0.29999999999999999, 'sd': 0.37}",-0.30000000000000004,k,0.7335538864135742,0,"(0, 3)",125,1,True,False,False,False,False
126,1,"{'mean': -0.29999999999999999, 'sd': 0.37}",-0.30000000000000004,j,0.43525218963623047,0,"(0, 2)",126,1,False,False,False,False,False
127,1,"{'mean': -0.29999999999999999, 'sd': 0.37}",-0.5,k,0.8858339786529541,0,"(1, 3)",127,1,False,False,False,False,False
128,1,"{'mean': -0.29999999999999999, 'sd': 0.37}",0.10000000000000009,k,0.6962640285491943,0,"(0, 3)",128,1,True,False,False,False,False
129,1,"{'mean': -0.29999999999999999, 'sd': 0.37}",-0.9000000000000001,j,0.5510509014129639,0,"(0, 2)",129,1,False,False,False,False,False
130,1,"{'mean': 0.29999999999999999, 'sd': 0.37}",0.30000000000000004,d,1.28485107421875,1,"(0, 3)",130,0,False,True,False,False,False
131,1,"{'mean': 0.29999999999999999, 'sd': 0.37}",0.10000000000000009,f,0.991145133972168,1,"(1, 2)",131,0,False,False,False,False,False
132,0,"{'mean': 0.29999999999999999, 'sd': 0.37}",0.7,d,0.6451120376586914,1,"(1, 2)",132,0,False,False,False,False,False
133,1,"{'mean': 0.29999999999999999, 'sd': 0.37}",-0.10000000000000009,d,1.1550869941711426,1,"(0, 3)",133,0,True,False,False,False,False
134,1,"{'mean': 0.29999999999999999, 'sd': 0.37}",-0.30000000000000004,f,0.6161990165710449,1,"(1, 3)",134,0,False,False,False,False,False
135,0,"{'mean': 0.29999999999999999, 'sd': 0.37}",-0.10000000000000009,f,0.6745851039886475,1,"(0, 3)",135,0,True,False,False,False,False
136,1,"{'mean': 0.29999999999999999, 'sd': 0.37}",0.30000000000000004,f,0.8862850666046143,1,"(1, 3)",136,0,True,False,False,False,False
137,1,"{'mean': 0.29999999999999999, 'sd': 0.37}",0.10000000000000009,d,0.6520969867706299,1,"(0, 2)",137,0,False,False,False,False,False
138,1,"{'mean': 0.29999999999999999, 'sd': 0.37}",-0.10000000000000009,f,0.8763649463653564,1,"(1, 2)",138,0,False,False,False,False,False
139,0,"{'mean': -0.29999999999999999, 'sd': 0.37}",-0.30000000000000004,f,1.1174609661102295,0,"(1, 3)",139,1,True,True,False,False,False
140,1,"{'mean': -0.29999999999999999, 'sd': 0.37}",-0.30000000000000004,k,0.7083549499511719,0,"(0, 3)",140,1,False,False,False,False,False
141,1,"{'mean': -0.29999999999999999, 'sd': 0.37}",0.10000000000000009,j,0.43265485763549805,0,"(0, 2)",141,1,False,False,False,False,False
142,1,"{'mean': -0.29999999999999999, 'sd': 0.37}",-0.30000000000000004,j,0.5048990249633789,0,"(1, 2)",142,1,True,False,False,False,False
143,1,"{'mean': -0.29999999999999999, 'sd': 0.37}",-0.30000000000000004,j,0.48232007026672363,0,"(0, 2)",143,1,True,False,False,False,False
144,1,"{'mean': -0.29999999999999999, 'sd': 0.37}",-0.5,k,0.4499659538269043,0,"(1, 3)",144,1,False,False,False,False,False
145,0,"{'mean': 0.29999999999999999, 'sd': 0.37}",-0.30000000000000004,k,0.46922898292541504,1,"(1, 3)",145,0,True,True,False,False,False
146,0,"{'mean': 0.29999999999999999, 'sd': 0.37}",-0.30000000000000004,k,0.7964251041412354,1,"(0, 3)",146,0,True,False,False,False,False
147,1,"{'mean': 0.29999999999999999, 'sd': 0.37}",0.5,f,0.8718090057373047,1,"(1, 2)",147,0,False,False,False,False,False
148,1,"{'mean': 0.29999999999999999, 'sd': 0.37}",-0.10000000000000009,f,1.0400750637054443,1,"(1, 2)",148,0,True,False,False,False,False
149,1,"{'mean': 0.29999999999999999, 'sd': 0.37}",0.5,f,0.9385340213775635,1,"(1, 2)",149,0,True,False,False,False,False
150,1,"{'mean': 0.29999999999999999, 'sd': 0.37}",0.5,f,0.4721808433532715,1,"(1, 2)",150,0,True,False,False,False,False
151,1,"{'mean': 0.29999999999999999, 'sd': 0.37}",0.7,f,0.7821609973907471,1,"(1, 3)",151,0,True,False,False,False,False
152,1,"{'mean': 0.29999999999999999, 'sd': 0.37}",0.10000000000000009,d,0.42079806327819824,1,"(0, 3)",152,0,False,False,False,False,False
153,1,"{'mean': 0.29999999999999999, 'sd': 0.37}",-0.10000000000000009,f,0.9164729118347168,1,"(1, 3)",153,0,False,False,False,False,False
154,1,"{'mean': 0.29999999999999999, 'sd': 0.37}",-0.10000000000000009,f,0.6941211223602295,1,"(1, 2)",154,0,True,False,False,False,False
155,1,"{'mean': 0.29999999999999999, 'sd': 0.37}",0.10000000000000009,f,0.7717819213867188,1,"(1, 3)",155,0,True,False,False,False,False
156,1,"{'mean': 0.29999999999999999, 'sd': 0.37}",0.10000000000000009,f,0.7231869697570801,1,"(1, 2)",156,0,True,False,False,False,False
157,1,"{'mean': 0.29999999999999999, 'sd': 0.37}",0.10000000000000009,f,0.8586409091949463,1,"(1, 3)",157,0,True,False,False,False,False
158,0,"{'mean': 0.29999999999999999, 'sd': 0.37}",0.8999999999999999,d,0.7623381614685059,1,"(1, 2)",158,0,False,False,False,False,False
159,0,"{'mean': 0.29999999999999999, 'sd': 0.37}",0.30000000000000004,d,0.9431400299072266,1,"(1, 2)",159,0,True,False,False,False,False
160,1,"{'mean': -0.29999999999999999, 'sd': 0.37}",-0.7000000000000001,j,0.9548730850219727,0,"(0, 2)",160,1,False,True,False,False,False
161,1,"{'mean': -0.29999999999999999, 'sd': 0.37}",0.10000000000000009,j,0.4720451831817627,0,"(0, 2)",161,1,True,False,False,False,False
162,0,"{'mean': -0.29999999999999999, 'sd': 0.37}",-0.10000000000000009,j,0.9256339073181152,0,"(0, 3)",162,1,True,False,False,False,False
163,1,"{'mean': -0.29999999999999999, 'sd': 0.37}",0.10000000000000009,j,0.655601978302002,0,"(0, 2)",163,1,True,False,False,False,False
164,1,"{'mean': -0.29999999999999999, 'sd': 0.37}",-1.0,k,0.8537490367889404,0,"(0, 3)",164,1,False,False,False,False,False
165,1,"{'mean': -0.29999999999999999, 'sd': 0.37}",-1.0,k,0.5270581245422363,0,"(0, 3)",165,1,True,False,False,False,False
166,1,"{'mean': -0.29999999999999999, 'sd': 0.37}",-0.7000000000000001,k,0.7039639949798584,0,"(1, 3)",166,1,True,False,False,False,False
168,0,"{'mean': 0.29999999999999999, 'sd': 0.37}",0.8999999999999999,f,0.9836301803588867,1,"(0, 3)",168,0,False,True,False,False,False
169,1,"{'mean': 0.29999999999999999, 'sd': 0.37}",0.8999999999999999,d,0.6366879940032959,1,"(0, 2)",169,0,False,False,False,False,False
170,1,"{'mean': 0.29999999999999999, 'sd': 0.37}",0.5,d,0.9456751346588135,1,"(0, 3)",170,0,True,False,False,False,False
171,0,"{'mean': 0.29999999999999999, 'sd': 0.37}",0.10000000000000009,d,0.8179521560668945,1,"(1, 2)",171,0,True,False,False,False,False
172,1,"{'mean': 0.29999999999999999, 'sd': 0.37}",0.30000000000000004,d,0.5414040088653564,1,"(0, 3)",172,0,True,False,False,False,False
173,1,"{'mean': 0.29999999999999999, 'sd': 0.37}",0.5,f,0.6589281558990479,1,"(1, 2)",173,0,False,False,False,False,False
174,1,"{'mean': 0.29999999999999999, 'sd': 0.37}",-0.10000000000000009,d,1.0352802276611328,1,"(0, 2)",174,0,False,False,False,False,False
175,1,"{'mean': 0.29999999999999999, 'sd': 0.37}",0.5,f,0.8985569477081299,1,"(1, 2)",175,0,False,False,False,False,False
176,0,"{'mean': 0.29999999999999999, 'sd': 0.37}",-0.30000000000000004,j,1.2884979248046875,1,"(0, 3)",176,0,False,False,False,False,False
177,0,"{'mean': -0.29999999999999999, 'sd': 0.37}",-0.30000000000000004,k,1.1023831367492676,0,"(1, 2)",177,1,False,True,False,False,False
178,1,"{'mean': -0.29999999999999999, 'sd': 0.37}",-0.30000000000000004,k,1.0689630508422852,0,"(0, 3)",178,1,True,False,False,False,False
179,1,"{'mean': -0.29999999999999999, 'sd': 0.37}",-0.5,k,0.9500329494476318,0,"(0, 3)",179,1,True,False,False,False,False
180,1,"{'mean': -0.29999999999999999, 'sd': 0.37}",-0.10000000000000009,k,0.7266039848327637,0,"(1, 3)",180,1,True,False,False,False,False
181,1,"{'mean': -0.29999999999999999, 'sd': 0.37}",-0.10000000000000009,j,0.9533839225769043,0,"(1, 2)",181,1,False,False,False,False,False
182,1,"{'mean': 0.29999999999999999, 'sd': 0.37}",0.8999999999999999,f,1.0718779563903809,1,"(1, 2)",182,0,False,True,False,False,False
183,1,"{'mean': 0.29999999999999999, 'sd': 0.37}",-0.30000000000000004,d,1.0875279903411865,1,"(0, 2)",183,0,False,False,False,False,False
184,1,"{'mean': 0.29999999999999999, 'sd': 0.37}",0.8999999999999999,f,0.5933511257171631,1,"(1, 2)",184,0,False,False,False,False,False
185,1,"{'mean': 0.29999999999999999, 'sd': 0.37}",0.10000000000000009,f,0.8658509254455566,1,"(1, 2)",185,0,True,False,False,False,False
187,0,"{'mean': 0.29999999999999999, 'sd': 0.37}",0.10000000000000009,k,0.7944920063018799,1,"(0, 3)",187,0,False,False,False,False,False
188,1,"{'mean': 0.29999999999999999, 'sd': 0.37}",0.10000000000000009,f,1.3245010375976562,1,"(1, 3)",188,0,False,False,False,False,False
189,1,"{'mean': 0.29999999999999999, 'sd': 0.37}",0.30000000000000004,d,1.1797411441802979,1,"(0, 3)",189,0,False,False,False,False,False
190,1,"{'mean': 0.29999999999999999, 'sd': 0.37}",0.10000000000000009,f,0.8208491802215576,1,"(1, 3)",190,0,False,False,False,False,False
191,1,"{'mean': 0.29999999999999999, 'sd': 0.37}",0.10000000000000009,f,0.7645101547241211,1,"(1, 3)",191,0,True,False,False,False,False
192,1,"{'mean': 0.29999999999999999, 'sd': 0.37}",0.10000000000000009,d,0.556800127029419,1,"(0, 2)",192,0,False,False,False,False,False
193,1,"{'mean': -0.29999999999999999, 'sd': 0.37}",-0.30000000000000004,k,1.4412591457366943,0,"(1, 3)",193,1,False,True,False,False,False
194,1,"{'mean': -0.29999999999999999, 'sd': 0.37}",-0.10000000000000009,j,0.815436840057373,0,"(1, 2)",194,1,False,False,False,False,False
195,1,"{'mean': -0.29999999999999999, 'sd': 0.37}",-0.30000000000000004,k,0.646306037902832,0,"(1, 3)",195,1,False,False,False,False,False
196,1,"{'mean': -0.29999999999999999, 'sd': 0.37}",-0.7000000000000001,k,0.6155729293823242,0,"(0, 3)",196,1,True,False,False,False,False
197,1,"{'mean': -0.29999999999999999, 'sd': 0.37}",-0.5,k,0.5056970119476318,0,"(1, 3)",197,1,True,False,False,False,False
198,1,"{'mean': -0.29999999999999999, 'sd': 0.37}",-0.5,k,0.4852268695831299,0,"(0, 3)",198,1,True,False,False,False,False
199,1,"{'mean': -0.29999999999999999, 'sd': 0.37}",-0.5,k,0.5209958553314209,0,"(1, 3)",199,1,True,False,False,False,False
200,1,"{'mean': -0.29999999999999999, 'sd': 0.37}",-0.5,k,0.5073680877685547,0,"(0, 3)",200,1,True,False,False,False,False
201,1,"{'mean': -0.29999999999999999, 'sd': 0.37}",-0.5,j,0.474560022354126,0,"(1, 2)",201,1,False,False,False,False,False
202,0,"{'mean': 0.29999999999999999, 'sd': 0.37}",0.10000000000000009,k,0.5841729640960693,1,"(0, 3)",202,0,False,True,False,False,False
203,1,"{'mean': 0.29999999999999999, 'sd': 0.37}",0.8999999999999999,d,0.9477429389953613,1,"(0, 3)",203,0,False,False,False,False,False
204,1,"{'mean': 0.29999999999999999, 'sd': 0.37}",0.8999999999999999,f,0.9638481140136719,1,"(1, 3)",204,0,False,False,False,False,False
205,1,"{'mean': 0.29999999999999999, 'sd': 0.37}",-0.30000000000000004,f,1.134091854095459,1,"(1, 3)",205,0,True,False,False,False,False
206,0,"{'mean': -0.29999999999999999, 'sd': 0.37}",0.10000000000000009,d,0.7472748756408691,0,"(0, 2)",206,1,False,True,False,False,False
207,0,"{'mean': -0.29999999999999999, 'sd': 0.37}",-0.5,d,0.8958561420440674,0,"(0, 3)",207,1,True,False,False,False,False
208,0,"{'mean': -0.29999999999999999, 'sd': 0.37}",0.10000000000000009,f,1.0001928806304932,0,"(1, 3)",208,1,False,False,False,False,False
209,1,"{'mean': -0.29999999999999999, 'sd': 0.37}",-0.7000000000000001,j,0.5271110534667969,0,"(1, 2)",209,1,False,False,False,False,False
210,1,"{'mean': -0.29999999999999999, 'sd': 0.37}",-0.9000000000000001,k,0.8216400146484375,0,"(0, 3)",210,1,False,False,False,False,False
211,1,"{'mean': -0.29999999999999999, 'sd': 0.37}",-0.5,j,0.4658780097961426,0,"(1, 2)",211,1,False,False,False,False,False
212,1,"{'mean': -0.29999999999999999, 'sd': 0.37}",-0.7000000000000001,j,0.4700968265533447,0,"(0, 2)",212,1,True,False,False,False,False
213,1,"{'mean': -0.29999999999999999, 'sd': 0.37}",-0.5,k,0.5590419769287109,0,"(0, 3)",213,1,False,False,False,False,False
214,1,"{'mean': -0.29999999999999999, 'sd': 0.37}",-0.10000000000000009,j,0.8383259773254395,0,"(0, 2)",214,1,False,False,False,False,False
215,0,"{'mean': 0.29999999999999999, 'sd': 0.37}",0.30000000000000004,j,0.6912641525268555,1,"(1, 2)",215,0,True,True,False,False,False
216,1,"{'mean': 0.29999999999999999, 'sd': 0.37}",0.5,f,0.4945859909057617,1,"(1, 3)",216,0,False,False,False,False,False
217,1,"{'mean': 0.29999999999999999, 'sd': 0.37}",0.30000000000000004,f,0.6535999774932861,1,"(1, 2)",217,0,True,False,False,False,False
218,1,"{'mean': 0.29999999999999999, 'sd': 0.37}",0.5,f,0.6037390232086182,1,"(1, 2)",218,0,True,False,False,False,False
219,1,"{'mean': 0.29999999999999999, 'sd': 0.37}",0.10000000000000009,f,0.9386041164398193,1,"(1, 2)",219,0,True,False,False,False,False
220,1,"{'mean': 0.29999999999999999, 'sd': 0.37}",0.7,d,0.6540272235870361,1,"(0, 3)",220,0,False,False,False,False,False
221,1,"{'mean': 0.29999999999999999, 'sd': 0.37}",0.30000000000000004,f,0.7225761413574219,1,"(1, 2)",221,0,False,False,False,False,False
222,1,"{'mean': 0.29999999999999999, 'sd': 0.37}",0.30000000000000004,d,1.117445945739746,1,"(0, 2)",222,0,False,False,False,False,False
223,0,"{'mean': 0.29999999999999999, 'sd': 0.37}",0.5,f,0.57346510887146,1,"(0, 3)",223,0,False,False,False,False,False
224,1,"{'mean': 0.29999999999999999, 'sd': 0.37}",0.30000000000000004,d,0.46917295455932617,1,"(0, 2)",224,0,False,False,False,False,False
225,1,"{'mean': -0.29999999999999999, 'sd': 0.37}",-0.5,k,0.8616609573364258,0,"(0, 3)",225,1,False,True,False,False,False
226,1,"{'mean': -0.29999999999999999, 'sd': 0.37}",-0.5,j,0.466533899307251,0,"(0, 2)",226,1,False,False,False,False,False
227,1,"{'mean': -0.29999999999999999, 'sd': 0.37}",0.30000000000000004,k,0.5822339057922363,0,"(1, 3)",227,1,False,False,False,False,False
228,0,"{'mean': 0.29999999999999999, 'sd': 0.37}",0.10000000000000009,j,0.5898468494415283,1,"(1, 2)",228,0,False,True,False,False,False
229,1,"{'mean': 0.29999999999999999, 'sd': 0.37}",-0.10000000000000009,f,0.6256229877471924,1,"(1, 3)",229,0,False,False,False,False,False
230,0,"{'mean': -0.29999999999999999, 'sd': 0.37}",0.10000000000000009,d,0.6546638011932373,0,"(0, 3)",230,1,False,True,False,False,False
231,1,"{'mean': -0.29999999999999999, 'sd': 0.37}",-0.5,j,0.5938558578491211,0,"(1, 2)",231,1,False,False,False,False,False
232,1,"{'mean': -0.29999999999999999, 'sd': 0.37}",-0.5,k,0.534930944442749,0,"(0, 3)",232,1,False,False,False,False,False
233,1,"{'mean': -0.29999999999999999, 'sd': 0.37}",-0.9000000000000001,k,0.5114531517028809,0,"(0, 3)",233,1,True,False,False,False,False
234,1,"{'mean': -0.29999999999999999, 'sd': 0.37}",-0.9000000000000001,k,0.4179859161376953,0,"(1, 3)",234,1,True,False,False,False,False
235,1,"{'mean': -0.29999999999999999, 'sd': 0.37}",-0.30000000000000004,j,0.4600808620452881,0,"(1, 2)",235,1,False,False,False,False,False
236,1,"{'mean': -0.29999999999999999, 'sd': 0.37}",-0.30000000000000004,k,0.4819061756134033,0,"(0, 3)",236,1,False,False,False,False,False
237,1,"{'mean': -0.29999999999999999, 'sd': 0.37}",-0.10000000000000009,j,0.4418051242828369,0,"(0, 2)",237,1,False,False,False,False,False
238,1,"{'mean': 0.29999999999999999, 'sd': 0.37}",0.7,f,0.8296568393707275,1,"(1, 3)",238,0,False,True,False,False,False
239,0,"{'mean': 0.29999999999999999, 'sd': 0.37}",-0.30000000000000004,f,0.5858979225158691,1,"(0, 3)",239,0,True,False,False,False,False
240,1,"{'mean': -0.29999999999999999, 'sd': 0.37}",-0.5,k,0.5925090312957764,0,"(0, 3)",240,1,False,True,False,False,False
241,1,"{'mean': -0.29999999999999999, 'sd': 0.37}",-0.10000000000000009,k,0.4691281318664551,0,"(1, 3)",241,1,True,False,False,False,False
242,1,"{'mean': -0.29999999999999999, 'sd': 0.37}",-0.5,k,0.4133791923522949,0,"(1, 3)",242,1,True,False,False,False,False
243,1,"{'mean': -0.29999999999999999, 'sd': 0.37}",-0.10000000000000009,k,0.4716770648956299,0,"(0, 3)",243,1,True,False,False,False,False
244,1,"{'mean': -0.29999999999999999, 'sd': 0.37}",-0.5,j,0.5006208419799805,0,"(0, 2)",244,1,False,False,False,False,False
245,1,"{'mean': -0.29999999999999999, 'sd': 0.37}",-0.7000000000000001,j,0.45100998878479004,0,"(0, 2)",245,1,True,False,False,False,False
246,0,"{'mean': 0.29999999999999999, 'sd': 0.37}",0.7,d,0.9123420715332031,1,"(1, 2)",246,0,False,True,False,False,False
247,0,"{'mean': -0.29999999999999999, 'sd': 0.37}",-0.10000000000000009,d,0.7095909118652344,0,"(0, 2)",247,1,True,True,False,False,False
248,0,"{'mean': -0.29999999999999999, 'sd': 0.37}",0.30000000000000004,d,0.7458150386810303,0,"(0, 2)",248,1,True,False,False,False,False
249,0,"{'mean': -0.29999999999999999, 'sd': 0.37}",-0.5,k,0.7595009803771973,0,"(1, 2)",249,1,False,False,False,False,False
250,1,"{'mean': -0.29999999999999999, 'sd': 0.37}",-0.30000000000000004,j,0.5591890811920166,0,"(1, 2)",250,1,False,False,False,False,False
251,1,"{'mean': -0.29999999999999999, 'sd': 0.37}",-0.10000000000000009,j,0.5041589736938477,0,"(0, 2)",251,1,True,False,False,False,False
252,1,"{'mean': -0.29999999999999999, 'sd': 0.37}",-0.10000000000000009,j,0.45641613006591797,0,"(0, 2)",252,1,True,False,False,False,False
253,1,"{'mean': -0.29999999999999999, 'sd': 0.37}",-0.10000000000000009,k,0.42442893981933594,0,"(0, 3)",253,1,False,False,False,False,False
254,1,"{'mean': -0.29999999999999999, 'sd': 0.37}",-0.30000000000000004,j,0.6936731338500977,0,"(0, 2)",254,1,False,False,False,False,False
255,1,"{'mean': -0.29999999999999999, 'sd': 0.37}",-0.30000000000000004,k,0.7801737785339355,0,"(1, 3)",255,1,False,False,False,False,False
256,1,"{'mean': 0.29999999999999999, 'sd': 0.37}",0.5,d,0.688831090927124,1,"(0, 2)",256,0,False,True,False,False,False
257,1,"{'mean': 0.29999999999999999, 'sd': 0.37}",0.7,f,0.39392805099487305,1,"(1, 3)",257,0,False,False,False,False,False
258,1,"{'mean': 0.29999999999999999, 'sd': 0.37}",-0.10000000000000009,d,0.5727078914642334,1,"(0, 2)",258,0,False,False,False,False,False
259,1,"{'mean': 0.29999999999999999, 'sd': 0.37}",-0.30000000000000004,d,0.7619020938873291,1,"(0, 2)",259,0,True,False,False,False,False
260,1,"{'mean': 0.29999999999999999, 'sd': 0.37}",0.5,d,0.47846388816833496,1,"(0, 2)",260,0,True,False,False,False,False
261,0,"{'mean': 0.29999999999999999, 'sd': 0.37}",0.7,d,0.4359779357910156,1,"(1, 2)",261,0,True,False,False,False,False
262,1,"{'mean': 0.29999999999999999, 'sd': 0.37}",0.5,d,0.45733094215393066,1,"(0, 2)",262,0,True,False,False,False,False
263,1,"{'mean': 0.29999999999999999, 'sd': 0.37}",0.7,f,0.5236110687255859,1,"(1, 2)",263,0,False,False,False,False,False
264,1,"{'mean': -0.29999999999999999, 'sd': 0.37}",-0.7000000000000001,j,0.9923739433288574,0,"(0, 2)",264,1,False,True,False,False,False
265,1,"{'mean': -0.29999999999999999, 'sd': 0.37}",-0.5,j,1.0153181552886963,0,"(1, 2)",265,1,True,False,False,False,False
266,1,"{'mean': -0.29999999999999999, 'sd': 0.37}",-0.10000000000000009,k,0.4138000011444092,0,"(0, 3)",266,1,False,False,False,False,False
267,1,"{'mean': 0.29999999999999999, 'sd': 0.37}",0.7,f,0.7451469898223877,1,"(1, 3)",267,0,False,True,False,False,False
268,0,"{'mean': 0.29999999999999999, 'sd': 0.37}",-0.30000000000000004,j,0.535534143447876,1,"(0, 2)",268,0,False,False,False,False,False
269,1,"{'mean': 0.29999999999999999, 'sd': 0.37}",0.8999999999999999,d,0.5168077945709229,1,"(0, 2)",269,0,False,False,False,False,False
270,1,"{'mean': -0.29999999999999999, 'sd': 0.37}",-0.5,j,0.6584899425506592,0,"(0, 2)",270,1,False,True,False,False,False
271,0,"{'mean': -0.29999999999999999, 'sd': 0.37}",-0.10000000000000009,k,0.5494048595428467,0,"(1, 2)",271,1,False,False,False,False,False
272,1,"{'mean': -0.29999999999999999, 'sd': 0.37}",-0.5,k,0.6842741966247559,0,"(1, 3)",272,1,True,False,False,False,False
273,0,"{'mean': -0.29999999999999999, 'sd': 0.37}",-0.10000000000000009,f,0.7326500415802002,0,"(0, 3)",273,1,False,False,False,False,False
274,1,"{'mean': -0.29999999999999999, 'sd': 0.37}",-0.5,j,0.7089691162109375,0,"(1, 2)",274,1,False,False,False,False,False
275,1,"{'mean': -0.29999999999999999, 'sd': 0.37}",-0.5,k,0.5633540153503418,0,"(1, 3)",275,1,False,False,False,False,False
276,1,"{'mean': -0.29999999999999999, 'sd': 0.37}",-0.30000000000000004,k,0.6179788112640381,0,"(1, 3)",276,1,True,False,False,False,False
