trial_count,FBDuration,c_dis,context,response,rt,state,stim,trial_count,ts,rep_resp,switch,con_shape,con_orient,subj_switch,correct,ts0_posterior_ignore,ts0_posterior_single,ts0_posterior_optimal,smoothed_ts0_ignore,smoothed_ts0_single,smoothed_ts0_optimal,smoothed_context
1,0,"{'mean': 0.29999999999999999, 'sd': 0.37}",-0.30000000000000004,2,0.6563949584960938,1,"(1, 2)",1,0,False,False,False,True,True,False,0.7883199905594676,0.7883199905594676,0.7883199905594676,0.7883199905594676,0.7883199905594676,0.7883199905594676,-0.30000000000000004
2,0,"{'mean': 0.29999999999999999, 'sd': 0.37}",0.30000000000000004,0,0.9243319034576416,1,"(0, 2)",2,0,False,False,True,False,True,True,0.21168000944053236,0.7073185337505506,0.42143752434002874,0.4038933364801774,0.734319019353523,0.5437316797465083,0.10000000000000002
3,0,"{'mean': -0.29999999999999999, 'sd': 0.37}",-0.30000000000000004,3,0.7458009719848633,0,"(0, 3)",3,1,False,True,False,True,True,True,0.7883199905594676,0.9710287725511645,0.7430900582069241,0.6235657102397718,0.869581735466461,0.6576507531524601,-0.1285714285714286
4,0,"{'mean': -0.29999999999999999, 'sd': 0.37}",-0.10000000000000009,2,0.5215499401092529,0,"(1, 2)",4,1,False,False,False,True,False,True,0.6078481866369821,0.933111690027748,0.7789205222436982,0.6151830309849505,0.9034643778991474,0.7223279633344538,-0.11333333333333338
5,0,"{'mean': -0.29999999999999999, 'sd': 0.37}",-0.30000000000000004,2,0.43492889404296875,0,"(1, 2)",5,1,True,False,False,True,False,True,0.7883199905594676,0.9710287725511645,0.9067769362033407,0.7045440423782496,0.9383363235259949,0.8175274332022664,-0.20967741935483877
6,0,"{'mean': -0.29999999999999999, 'sd': 0.37}",-0.30000000000000004,2,0.5418591499328613,0,"(0, 2)",6,1,True,False,False,True,False,True,0.7883199905594676,0.9710287725511645,0.9462594192584651,0.7470969049464873,0.9549420119197319,0.8829151086593833,-0.2555555555555556
8,0,"{'mean': 0.29999999999999999, 'sd': 0.37}",0.30000000000000004,2,0.8269541263580322,1,"(0, 2)",8,0,True,True,False,True,False,False,0.21168000944053236,0.7073185337505506,0.6167618652272051,0.4772805166600218,0.830155377251798,0.7487906395282069,0.024409448818897648
9,0,"{'mean': 0.29999999999999999, 'sd': 0.37}",0.5,1,1.1419899463653564,1,"(1, 2)",9,0,False,False,True,False,True,True,0.10052719154610551,0.501460997736269,0.14023947170985365,0.28816512209303635,0.6651636887106697,0.4433218180350727,0.26313725490196077
10,0,"{'mean': 0.29999999999999999, 'sd': 0.37}",0.10000000000000009,1,0.851578950881958,1,"(1, 3)",10,0,True,False,True,False,False,True,0.39215181336301785,0.8530779137454413,0.14804196092969296,0.3402602159582326,0.7593046703327861,0.29539296594314074,0.1814090019569472
11,0,"{'mean': 0.29999999999999999, 'sd': 0.37}",-0.10000000000000009,1,1.1188960075378418,1,"(1, 2)",11,0,True,False,True,False,False,True,0.6078481866369821,0.933111690027748,0.3022635566922639,0.47418498720703,0.8462931298477621,0.29883161937769703,0.0405669599217986
12,0,"{'mean': 0.29999999999999999, 'sd': 0.37}",-0.10000000000000009,0,1.0228240489959717,1,"(0, 2)",12,0,False,False,True,False,False,True,0.6078481866369821,0.933111690027748,0.4459720771810106,0.5410492354807335,0.8897236162299339,0.37243778879176304,-0.029750854909623897
13,0,"{'mean': 0.29999999999999999, 'sd': 0.37}",0.10000000000000009,1,1.0821950435638428,1,"(0, 3)",13,0,False,False,False,False,True,False,0.39215181336301785,0.8530779137454413,0.3516947456949237,0.46658234402845467,0.8713962905429398,0.36206373451524854,0.03514041514041515
14,0,"{'mean': -0.29999999999999999, 'sd': 0.37}",-0.5,3,0.9302809238433838,0,"(0, 3)",14,1,False,True,False,True,False,True,0.8994728084538944,0.9877342777284374,0.8465225310047211,0.6830540010039889,0.9295723857098056,0.6043227053882652,-0.23246245879623975
15,0,"{'mean': -0.29999999999999999, 'sd': 0.37}",-0.10000000000000009,3,0.8295788764953613,0,"(0, 3)",15,1,True,False,False,True,False,True,0.6078481866369821,0.933111690027748,0.8439350697236808,0.6454487985810798,0.9313421458863658,0.7241362003913614,-0.16622718671793937
16,0,"{'mean': -0.29999999999999999, 'sd': 0.37}",-0.7000000000000001,3,0.6843550205230713,0,"(1, 3)",16,1,True,False,False,True,False,True,0.9555504531417355,0.9948579972909842,0.986686117556006,0.8005043577815493,0.9631010407932316,0.8554151652897511,-0.43312173833429984
17,0,"{'mean': 0.29999999999999999, 'sd': 0.37}",0.5,0,0.7552220821380615,1,"(0, 2)",17,0,False,True,True,False,True,True,0.10052719154610551,0.501460997736269,0.47320743402394994,0.45051043418037395,0.7322774971769875,0.6643083835987802,0.033446250095368855
18,0,"{'mean': 0.29999999999999999, 'sd': 0.37}",0.7,1,0.5585408210754395,1,"(1, 3)",18,0,False,False,True,False,False,True,0.044449546858264494,0.2951069574554525,0.040944887564196376,0.2474784415081447,0.5136905596302341,0.35262425762032207,0.3667256677678509
19,0,"{'mean': 0.29999999999999999, 'sd': 0.37}",0.30000000000000004,1,0.7155101299285889,1,"(1, 2)",19,0,True,False,True,False,False,True,0.21168000944053236,0.028971227448835405,0.03948166691235139,0.22957915719398758,0.2713299690072524,0.19605236499196604,0.3333627066143288
20,0,"{'mean': 0.29999999999999999, 'sd': 0.37}",0.5,0,0.7456948757171631,1,"(0, 3)",20,0,False,False,True,False,False,True,0.10052719154610551,0.012265722271562569,0.016652629048208994,0.16505305129626668,0.14179759857601787,0.10635232593084065,0.4166815122251744
21,0,"{'mean': 0.29999999999999999, 'sd': 0.37}",0.30000000000000004,1,0.6770360469818115,1,"(1, 2)",21,0,False,False,True,False,False,True,0.21168000944053236,0.028971227448835405,0.03317965243166561,0.18836655260188695,0.08538435921256915,0.06976595428977017,0.35834070047445343
22,0,"{'mean': 0.29999999999999999, 'sd': 0.37}",0.10000000000000009,1,0.6121530532836914,1,"(1, 2)",22,0,True,False,True,False,False,True,0.39215181336301785,0.06688830997225197,0.08547770134316472,0.2902592315686679,0.07613633018260667,0.07762183156244164,0.22917028864397468
23,0,"{'mean': 0.29999999999999999, 'sd': 0.37}",0.5,1,0.6598701477050781,1,"(1, 3)",23,0,True,False,True,False,False,True,0.10052719154610551,0.012265722271562569,0.022128380723396072,0.19539318893955962,0.04420101861311301,0.04987509952758243,0.3645851766074125
24,0,"{'mean': 0.29999999999999999, 'sd': 0.37}",-0.10000000000000009,1,1.0176777839660645,1,"(1, 2)",24,0,True,False,True,False,False,True,0.6078481866369821,0.14692208625455871,0.17134980972485395,0.40162071237250746,0.09556155855648935,0.11061246186667599,0.1322925606122685
25,0,"{'mean': 0.29999999999999999, 'sd': 0.37}",0.30000000000000004,0,0.6048839092254639,1,"(0, 3)",25,0,False,False,True,False,False,True,0.21168000944053236,0.028971227448835405,0.07701699405697608,0.3066503552458455,0.062266391018115735,0.09381472696060301,0.21614628530420574
26,0,"{'mean': -0.29999999999999999, 'sd': 0.37}",-0.10000000000000009,0,0.8288910388946533,0,"(0, 2)",26,1,True,True,True,False,False,False,0.6078481866369821,0.14692208625455871,0.23005605582174735,0.4572492754296114,0.10459423989780542,0.16193539342132926,0.05807313794115593
27,0,"{'mean': -0.29999999999999999, 'sd': 0.37}",-0.10000000000000009,1,0.8541359901428223,0,"(1, 2)",27,1,False,False,True,False,False,False,0.6078481866369821,0.14692208625455871,0.38078696788158606,0.5325487321553461,0.1257581633915491,0.271361182282029,-0.020963432207158753
28,0,"{'mean': -0.29999999999999999, 'sd': 0.37}",-0.30000000000000004,2,1.0877978801727295,0,"(1, 2)",28,1,False,False,False,True,True,True,0.7883199905594676,0.29268146624944924,0.7167945359219675,0.6604343623102291,0.20921981544233695,0.49407786076136684,-0.16048171714307163
29,0,"{'mean': 0.29999999999999999, 'sd': 0.37}",0.30000000000000004,1,1.2959489822387695,1,"(1, 2)",29,0,False,True,True,False,True,True,0.21168000944053236,0.028971227448835405,0.35639098705183403,0.4360571850395106,0.11909552110984702,0.42523442365013864,0.06975914228617824
30,0,"{'mean': 0.29999999999999999, 'sd': 0.37}",0.30000000000000004,1,0.7445018291473389,1,"(1, 3)",30,0,True,False,True,False,False,True,0.21168000944053236,0.028971227448835405,0.14396624534994742,0.323868597031054,0.07403337419540641,0.28460033423809167,0.18487957135751765
31,0,"{'mean': 0.29999999999999999, 'sd': 0.37}",0.10000000000000009,1,0.8076341152191162,1,"(1, 3)",31,0,True,False,True,False,False,True,0.39215181336301785,0.06688830997225197,0.15029399232753426,0.3580102052288328,0.070460842080502,0.2174471632202717,0.14243978563923373
32,0,"{'mean': 0.29999999999999999, 'sd': 0.37}",-0.10000000000000009,1,0.7437160015106201,1,"(1, 2)",32,0,True,False,True,False,False,True,0.6078481866369821,0.14692208625455871,0.3044872367914297,0.4829291959910774,0.10869146418533288,0.2609672000261163,0.021219892763169414
33,0,"{'mean': 0.29999999999999999, 'sd': 0.37}",0.7,0,0.45725011825561523,1,"(0, 3)",33,0,False,False,True,False,False,True,0.044449546858264494,0.005142002709015806,0.023770085721448477,0.2636893713736252,0.056916733435119604,0.14236864284616899,0.3606099464606051
34,0,"{'mean': 0.29999999999999999, 'sd': 0.37}",0.7,0,0.3930699825286865,1,"(0, 2)",34,0,True,False,True,False,False,True,0.044449546858264494,0.005142002709015806,0.0062449744528610815,0.15406945910318343,0.031029368069054018,0.07430680864159159,0.5303049732500577
35,0,"{'mean': 0.29999999999999999, 'sd': 0.37}",0.10000000000000009,1,0.49653196334838867,1,"(1, 3)",35,0,False,False,True,False,False,True,0.39215181336301785,0.06688830997225197,0.07035936093764941,0.27311063624002974,0.04895883902169663,0.0723330847895056,0.31515248661250533
36,0,"{'mean': 0.29999999999999999, 'sd': 0.37}",0.30000000000000004,0,0.6870710849761963,1,"(0, 3)",36,0,False,False,True,False,False,True,0.21168000944053236,0.028971227448835405,0.04738329138448489,0.24239532283938714,0.038965033234975154,0.05985818808663217,0.3075762433060322
37,0,"{'mean': 0.29999999999999999, 'sd': 0.37}",0.5,1,0.46529293060302734,1,"(1, 2)",37,0,False,False,True,False,False,True,0.10052719154610551,0.012265722271562569,0.017564286178830792,0.1714612571917141,0.0256153777530746,0.038711237132423755,0.4037881216544162
38,0,"{'mean': 0.29999999999999999, 'sd': 0.37}",0.5,1,0.40989089012145996,1,"(1, 3)",38,0,True,False,True,False,False,True,0.10052719154610551,0.012265722271562569,0.014183512862621813,0.13599422436865174,0.01894055001227002,0.026447374997433555,0.4518940608275581
39,0,"{'mean': 0.29999999999999999, 'sd': 0.37}",0.7,1,0.7070779800415039,1,"(1, 3)",39,0,True,False,True,False,False,True,0.044449546858264494,0.005142002709015806,0.005794757157070513,0.0902218856132916,0.012041276360617813,0.016121066077214467,0.5759470304142303
40,0,"{'mean': 0.29999999999999999, 'sd': 0.37}",0.30000000000000004,0,0.536005973815918,1,"(0, 3)",40,0,False,False,True,False,False,True,0.21168000944053236,0.028971227448835405,0.03042559288149846,0.15095094752702246,0.020506251904742007,0.023273329479369474,0.43797351520686423
41,0,"{'mean': 0.29999999999999999, 'sd': 0.37}",0.5,1,0.533581018447876,1,"(1, 3)",41,0,False,False,True,False,False,True,0.10052719154610551,0.012265722271562569,0.015621929876859664,0.12573906953654104,0.016385987088148538,0.01944762967811109,0.4689867576034603
42,0,"{'mean': 0.29999999999999999, 'sd': 0.37}",0.8999999999999999,0,0.48291707038879395,1,"(0, 2)",42,0,False,False,True,False,False,True,0.018993448657483984,0.002146624791058985,0.0024481660331835847,0.07236625909698824,0.009266305939600525,0.010947897855643473,0.6844933788018281
43,0,"{'mean': 0.29999999999999999, 'sd': 0.37}",0.30000000000000004,0,0.5907998085021973,1,"(0, 2)",43,0,True,False,True,False,False,True,0.21168000944053236,0.028971227448835405,0.029584366735669203,0.14202313426877614,0.019118766694220204,0.020266132295658455,0.49224668940087035
44,0,"{'mean': 0.29999999999999999, 'sd': 0.37}",0.10000000000000009,0,0.6512389183044434,1,"(0, 2)",44,0,True,False,True,False,False,True,0.39215181336301785,0.06688830997225197,0.08344569572578442,0.2670874738159112,0.043003538333238805,0.051855914010725035,0.2961233447004129
45,0,"{'mean': 0.29999999999999999, 'sd': 0.37}",0.10000000000000009,0,0.4775810241699219,1,"(0, 2)",45,0,True,False,True,False,False,True,0.39215181336301785,0.06688830997225197,0.11434908445022099,0.3296196435894681,0.05494592415274606,0.08310249923047477,0.19806167235020095
46,0,"{'mean': 0.29999999999999999, 'sd': 0.37}",0.8999999999999999,1,0.7634718418121338,1,"(1, 3)",46,0,False,False,True,False,False,True,0.018993448657483984,0.002146624791058985,0.004564316179889804,0.1743065461234716,0.02854627447190177,0.04383340770518118,0.5490308361751105
47,0,"{'mean': 0.29999999999999999, 'sd': 0.37}",0.7,1,0.5260319709777832,1,"(1, 3)",47,0,True,False,True,False,False,True,0.044449546858264494,0.005142002709015806,0.005350351614817675,0.10937804649086713,0.01684413859045862,0.024591879659999153,0.6245154180875563
48,0,"{'mean': 0.29999999999999999, 'sd': 0.37}",0.10000000000000009,0,0.5716371536254883,1,"(0, 3)",48,0,False,False,True,False,False,True,0.39215181336301785,0.06688830997225197,0.06986133180421131,0.2507649299269435,0.041866224281355474,0.04722660573210539,0.3622577090437763
49,0,"{'mean': 0.29999999999999999, 'sd': 0.37}",0.30000000000000004,0,0.5418169498443604,1,"(0, 3)",49,0,True,False,True,False,False,True,0.21168000944053236,0.028971227448835405,0.04724695035499747,0.23122246968373789,0.03541872586509542,0.04723677804355143,0.33112885452188806
50,0,"{'mean': 0.29999999999999999, 'sd': 0.37}",-0.10000000000000009,0,0.5804641246795654,1,"(0, 3)",50,0,True,False,True,False,False,True,0.6078481866369821,0.14692208625455871,0.19854256965275496,0.4195353281603603,0.09117040605982717,0.12288967384815333,0.11556442726094361
51,0,"{'mean': 0.29999999999999999, 'sd': 0.37}",-0.5,2,0.9213800430297852,1,"(1, 2)",51,0,False,False,False,True,True,False,0.8994728084538944,0.498539002263731,0.7575590234478445,0.6595040683071276,0.2948547041617793,0.4402243486479992,-0.19221778636952846
52,0,"{'mean': 0.29999999999999999, 'sd': 0.37}",0.30000000000000004,2,0.9592909812927246,1,"(0, 2)",52,0,True,False,False,True,False,False,0.21168000944053236,0.028971227448835405,0.39208286568627304,0.43559203887382986,0.16191296580530729,0.41615360716713606,0.053891106815235894
53,0,"{'mean': 0.29999999999999999, 'sd': 0.37}",0.5,2,0.9507009983062744,1,"(0, 3)",53,0,True,False,False,False,False,False,0.10052719154610551,0.012265722271562569,0.07308694078497609,0.2680596152099676,0.0870893440384349,0.24462027397605604,0.276945553407618
54,0,"{'mean': 0.29999999999999999, 'sd': 0.37}",-0.10000000000000009,2,0.5862109661102295,1,"(0, 3)",54,0,True,False,False,False,False,False,0.6078481866369821,0.14692208625455871,0.22593935452328245,0.4379539009234749,0.11700571514649681,0.23527981424966923,0.08847277670380894
55,0,"{'mean': 0.29999999999999999, 'sd': 0.37}",-0.10000000000000009,2,0.42326903343200684,1,"(0, 2)",55,0,True,False,False,True,False,False,0.6078481866369821,0.14692208625455871,0.37696251149126714,0.5229010437802285,0.13196390070052777,0.3061211628704682,-0.005763611648095579
56,0,"{'mean': -0.29999999999999999, 'sd': 0.37}",0.30000000000000004,2,0.8337390422821045,0,"(0, 3)",56,1,True,True,False,False,False,False,0.21168000944053236,0.028971227448835405,0.1526771799282195,0.3672905266103804,0.08046756407468159,0.22939917139934385,0.14711819417595223
57,0,"{'mean': -0.29999999999999999, 'sd': 0.37}",-0.7000000000000001,2,0.6043398380279541,0,"(0, 2)",57,1,True,False,False,True,False,True,0.9555504531417355,0.7048930425445474,0.8599294521497335,0.661420489876058,0.3926803033096145,0.5446643117745387,-0.27644090291202394
58,0,"{'mean': -0.29999999999999999, 'sd': 0.37}",0.30000000000000004,2,0.8858299255371094,0,"(1, 2)",58,1,True,False,False,True,False,True,0.21168000944053236,0.7073185337505506,0.4994364166660303,0.43655024965829514,0.5499994185300826,0.5220503642202845,0.01177954854398805
59,0,"{'mean': -0.29999999999999999, 'sd': 0.37}",-0.7000000000000001,2,0.5888838768005371,0,"(0, 2)",59,1,True,False,False,True,False,True,0.9555504531417355,0.9948579972909842,0.9554737901027819,0.6960503514000154,0.7724287079105334,0.7387620771615332,-0.344110225728006
60,0,"{'mean': -0.29999999999999999, 'sd': 0.37}",-0.7000000000000001,3,0.5988459587097168,0,"(0, 3)",60,1,False,False,False,True,False,True,0.9555504531417355,0.9948579972909842,0.9927543371071192,0.8258004022708754,0.8836433526007588,0.8657582071343262,-0.522055112864003
61,0,"{'mean': -0.29999999999999999, 'sd': 0.37}",-0.5,3,0.4580519199371338,0,"(0, 3)",61,1,True,False,False,True,False,True,0.8994728084538944,0.9877342777284374,0.9869495484792666,0.8626366053623848,0.9356888151645981,0.9263538778067963,-0.5110275564320015
62,0,"{'mean': -0.29999999999999999, 'sd': 0.37}",-0.5,3,0.522068977355957,0,"(1, 3)",62,1,True,False,False,True,False,True,0.8994728084538944,0.9877342777284374,0.9863144065017911,0.8810547069081396,0.9617115464465178,0.9563341421542937,-0.5055137782160007
63,0,"{'mean': 0.29999999999999999, 'sd': 0.37}",0.30000000000000004,2,1.119927167892456,1,"(0, 2)",63,0,False,True,False,True,False,False,0.21168000944053236,0.7073185337505506,0.6827115072596518,0.546367358174336,0.8345150400985342,0.8195228247069728,-0.10275688910800035
64,0,"{'mean': 0.29999999999999999, 'sd': 0.37}",0.10000000000000009,3,0.6003601551055908,1,"(1, 3)",64,0,False,False,False,True,False,False,0.39215181336301785,0.8530779137454413,0.5409000248451895,0.46925958576867693,0.8437964769219877,0.6802114247760811,-0.00137844455400013
65,0,"{'mean': 0.29999999999999999, 'sd': 0.37}",0.7,0,0.9432480335235596,1,"(0, 3)",65,0,False,False,True,False,True,True,0.044449546858264494,0.2951069574554525,0.05036097305659475,0.2568545663134707,0.5694517171887201,0.3652861989163379,0.3493107777229999
66,0,"{'mean': 0.29999999999999999, 'sd': 0.37}",-0.10000000000000009,1,0.7208430767059326,1,"(1, 2)",66,0,False,False,True,False,False,True,0.6078481866369821,0.14692208625455871,0.20187485565649443,0.4323513764752264,0.3581869017216394,0.28358052728641614,0.1246553888614999
67,0,"{'mean': -0.29999999999999999, 'sd': 0.37}",-0.10000000000000009,0,0.9600019454956055,0,"(0, 3)",67,1,False,True,True,False,False,False,0.6078481866369821,0.14692208625455871,0.35436398663453966,0.5200997815561043,0.25255449398809904,0.31897225696047793,0.012327694430749908
68,0,"{'mean': -0.29999999999999999, 'sd': 0.37}",-0.5,3,0.9196939468383789,0,"(0, 3)",68,1,False,False,False,True,True,True,0.8994728084538944,0.498539002263731,0.84769355268145,0.7097862950049993,0.37554674812591504,0.5833329048209639,-0.24383615278462506
69,0,"{'mean': -0.29999999999999999, 'sd': 0.37}",-0.7000000000000001,2,0.4669010639190674,0,"(1, 2)",69,1,False,False,False,True,False,True,0.9555504531417355,0.7048930425445474,0.9869119170748419,0.8326683740733674,0.5402198953352313,0.7851224109479029,-0.47191807639231254
70,0,"{'mean': -0.29999999999999999, 'sd': 0.37}",-0.10000000000000009,3,0.6138091087341309,0,"(1, 3)",70,1,False,False,False,True,False,True,0.6078481866369821,0.933111690027748,0.925822427810873,0.7202582803551747,0.7366657926814897,0.8554724193793879,-0.2859590381961563
71,0,"{'mean': 0.29999999999999999, 'sd': 0.37}",0.30000000000000004,2,0.6069471836090088,1,"(1, 2)",71,0,False,True,False,True,False,False,0.21168000944053236,0.7073185337505506,0.5862060756075358,0.4659691448978535,0.7219921632160202,0.7208392474934618,0.007020480901921866
72,0,"{'mean': 0.29999999999999999, 'sd': 0.37}",0.30000000000000004,2,0.6164989471435547,1,"(1, 2)",72,0,True,False,False,True,False,False,0.21168000944053236,0.7073185337505506,0.2616907554962231,0.33882457716919295,0.7146553484832854,0.4912650014948425,0.15351024045096096
73,0,"{'mean': 0.29999999999999999, 'sd': 0.37}",0.30000000000000004,2,0.5872910022735596,1,"(0, 2)",73,0,True,False,False,True,False,False,0.21168000944053236,0.7073185337505506,0.10736188580301441,0.27525229330486267,0.7109869411169181,0.2993134436489284,0.2267551202254805
74,0,"{'mean': 0.29999999999999999, 'sd': 0.37}",0.7,1,0.8919949531555176,1,"(1, 2)",74,0,False,False,True,False,True,True,0.044449546858264494,0.2951069574554525,0.010509854806894895,0.1598509200815636,0.5030469492861853,0.15491164922791165,0.4633775601127402
75,0,"{'mean': 0.29999999999999999, 'sd': 0.37}",-0.10000000000000009,1,0.7297542095184326,1,"(1, 3)",75,0,True,False,True,False,False,True,0.6078481866369821,0.14692208625455871,0.15857998843624746,0.38384955335927284,0.324984517770372,0.15674581883207955,0.18168878005637007
76,0,"{'mean': 0.29999999999999999, 'sd': 0.37}",-0.30000000000000004,1,0.99204421043396,1,"(1, 3)",76,0,True,False,True,False,False,True,0.7883199905594676,0.29268146624944924,0.522166470059349,0.5860847719593703,0.30883299200991066,0.33945614444571426,-0.05915560997181499
77,0,"{'mean': 0.29999999999999999, 'sd': 0.37}",0.30000000000000004,0,0.643625020980835,1,"(0, 3)",77,0,False,False,True,False,False,True,0.21168000944053236,0.028971227448835405,0.22376379132740334,0.3988823906999513,0.16890210972937303,0.2816099678865588,0.12042219501409253
78,0,"{'mean': 0.29999999999999999, 'sd': 0.37}",0.5,1,0.7575170993804932,1,"(1, 2)",78,0,False,False,True,False,False,True,0.10052719154610551,0.012265722271562569,0.04145718277019277,0.2497047911230284,0.09058391600046779,0.16153357532837578,0.3102110975070463
79,0,"{'mean': 0.29999999999999999, 'sd': 0.37}",0.30000000000000004,0,0.6345729827880859,1,"(0, 3)",79,0,False,False,True,False,False,True,0.21168000944053236,0.028971227448835405,0.039616706289773485,0.2306924002817804,0.0597775717246516,0.10057514080907463,0.30510554875352314
80,0,"{'mean': 0.29999999999999999, 'sd': 0.37}",0.10000000000000009,1,0.7088229656219482,1,"(1, 3)",80,0,False,False,True,False,False,True,0.39215181336301785,0.06688830997225197,0.08912670426335921,0.3114221068223991,0.06333294084845179,0.09485092253621692,0.2025527743767616
81,0,"{'mean': 0.29999999999999999, 'sd': 0.37}",-0.10000000000000009,1,0.6246418952941895,1,"(1, 2)",81,0,True,False,True,False,False,True,0.6078481866369821,0.14692208625455871,0.24265906699973178,0.45963514672969064,0.10512751355150525,0.16875499476797434,0.05127638718838076
82,0,"{'mean': 0.29999999999999999, 'sd': 0.37}",0.30000000000000004,0,0.4462878704071045,1,"(0, 2)",82,0,False,False,True,False,False,True,0.21168000944053236,0.028971227448835405,0.1006293923713208,0.3356575780851115,0.06704937050017033,0.13469219356964757,0.17563819359419042
83,0,"{'mean': 0.29999999999999999, 'sd': 0.37}",0.7,1,0.6241550445556641,1,"(1, 2)",83,0,False,False,True,False,False,True,0.044449546858264494,0.005142002709015806,0.010142036324678937,0.19005356247168798,0.03609568660459307,0.07241711494716326,0.4378190967970952
84,0,"{'mean': 0.29999999999999999, 'sd': 0.37}",-0.5,2,0.890023946762085,1,"(0, 2)",84,0,False,False,False,True,True,False,0.8994728084538944,0.498539002263731,0.5202950000781996,0.5447631854627912,0.26731734443416205,0.29635605751268146,-0.031090451601452407
85,0,"{'mean': 0.29999999999999999, 'sd': 0.37}",0.7,0,1.193777084350586,1,"(0, 3)",85,0,False,False,True,False,True,True,0.044449546858264494,0.005142002709015806,0.047292060879943094,0.2946063661605279,0.13622967357158894,0.17182405919631227,0.3344547741992738
86,0,"{'mean': 0.29999999999999999, 'sd': 0.37}",0.7,1,0.6535098552703857,1,"(1, 3)",86,0,False,False,True,False,False,True,0.044449546858264494,0.005142002709015806,0.007381763865892233,0.16952795650939617,0.07068583814030237,0.08960291153110225,0.5172273870996369
87,0,"{'mean': 0.29999999999999999, 'sd': 0.37}",0.5,0,0.6760179996490479,1,"(0, 2)",87,0,False,False,True,False,False,True,0.10052719154610551,0.012265722271562569,0.013065277052926299,0.13502757402775084,0.04147578020593247,0.05133409429201428,0.5086136935498184
88,0,"{'mean': 0.29999999999999999, 'sd': 0.37}",0.30000000000000004,1,0.6694118976593018,1,"(1, 2)",88,0,False,False,True,False,False,True,0.21168000944053236,0.028971227448835405,0.0322655220988966,0.17335379173414162,0.035223503827383935,0.04179980819545544,0.40430684677490925
89,0,"{'mean': 0.29999999999999999, 'sd': 0.37}",0.10000000000000009,0,0.5636608600616455,1,"(0, 3)",89,0,False,False,True,False,False,True,0.39215181336301785,0.06688830997225197,0.08496063593779697,0.2827528025485797,0.051055906899817954,0.0633802220666262,0.25215342338745467
90,0,"{'mean': 0.29999999999999999, 'sd': 0.37}",0.30000000000000004,1,0.5346310138702393,1,"(1, 3)",90,0,False,False,True,False,False,True,0.21168000944053236,0.028971227448835405,0.05142081990990928,0.24721640599455602,0.04001356717432668,0.05740052098826774,0.2760767116937274
91,0,"{'mean': 0.29999999999999999, 'sd': 0.37}",1.0,1,0.541907787322998,1,"(1, 3)",91,0,True,False,True,False,False,True,0.012336726208602404,0.0013859456067248715,0.0020484070073589424,0.1297765661015792,0.020699756390525775,0.029724463997813342,0.6380383558468636
92,0,"{'mean': 0.29999999999999999, 'sd': 0.37}",-0.10000000000000009,1,1.00046706199646,1,"(1, 2)",92,0,True,False,True,False,False,True,0.6078481866369821,0.14692208625455871,0.14920226361660868,0.36881237636928066,0.08381092132254224,0.08946336380721101,0.2690191779234318
93,0,"{'mean': 0.29999999999999999, 'sd': 0.37}",0.7,1,0.6324880123138428,1,"(1, 2)",93,0,True,False,True,False,False,True,0.044449546858264494,0.005142002709015806,0.012902826362999182,0.2066309616137726,0.044476462015779025,0.051183095085105094,0.48450958896171586
94,0,"{'mean': 0.29999999999999999, 'sd': 0.37}",0.5,1,0.9040470123291016,1,"(1, 3)",94,0,True,False,True,False,False,True,0.10052719154610551,0.012265722271562569,0.013669368824336354,0.15357907657993905,0.028371092143670798,0.032426231954720726,0.49225479448085796
95,0,"{'mean': 0.29999999999999999, 'sd': 0.37}",0.5,0,0.6745028495788574,1,"(0, 3)",95,0,False,False,True,False,False,True,0.10052719154610551,0.012265722271562569,0.013753656416126903,0.12705313406302227,0.020318407207616684,0.023089944185423816,0.496127397240429
96,0,"{'mean': 0.29999999999999999, 'sd': 0.37}",0.30000000000000004,0,0.6476471424102783,1,"(0, 3)",96,0,True,False,True,False,False,True,0.21168000944053236,0.028971227448835405,0.03244061130354764,0.16936657175177733,0.024644817328226043,0.027765277744485728,0.3980636986202145
97,0,"{'mean': 0.29999999999999999, 'sd': 0.37}",-0.10000000000000009,1,1.156667947769165,1,"(1, 2)",97,0,False,False,True,False,False,True,0.6078481866369821,0.14692208625455871,0.18258160433704812,0.3886073791943797,0.08578345179139238,0.10517344104076692,0.1490318493101072
98,0,"{'mean': -0.29999999999999999, 'sd': 0.37}",-0.7000000000000001,2,0.700916051864624,0,"(0, 2)",98,1,False,True,False,True,True,True,0.9555504531417355,0.7048930425445474,0.87525284667799,0.6720789161680576,0.3953382471679699,0.4902131438593784,-0.27548407534494646
99,0,"{'mean': -0.29999999999999999, 'sd': 0.37}",-0.30000000000000004,2,0.5324769020080566,0,"(0, 2)",99,1,True,False,False,True,False,True,0.7883199905594676,0.9710287725511645,0.9371673730132446,0.7301994533637626,0.6831835098595672,0.7136902584363115,-0.28774203767247325
100,0,"{'mean': -0.29999999999999999, 'sd': 0.37}",-0.5,2,0.44319796562194824,0,"(0, 2)",100,1,True,False,False,True,False,True,0.8994728084538944,0.9877342777284374,0.9806191002785571,0.8148361309088286,0.8354588937940023,0.8471546793574343,-0.39387101883623665
101,0,"{'mean': -0.29999999999999999, 'sd': 0.37}",-0.5,2,0.8080880641937256,0,"(0, 3)",101,1,True,False,False,False,False,False,0.8994728084538944,0.9877342777284374,0.9856150927162716,0.8571544696813616,0.9115965857612198,0.9163848860368529,-0.4469355094181183
102,0,"{'mean': -0.29999999999999999, 'sd': 0.37}",-0.30000000000000004,3,0.7216839790344238,0,"(1, 3)",102,1,False,False,False,True,False,True,0.7883199905594676,0.9710287725511645,0.967398695118688,0.8227372301204146,0.9413126791561921,0.9418917905777704,-0.3734677547090592
103,0,"{'mean': -0.29999999999999999, 'sd': 0.37}",0.10000000000000009,3,0.8056399822235107,0,"(0, 3)",103,1,True,False,False,True,False,True,0.39215181336301785,0.8530779137454413,0.817244126951385,0.6074445217417161,0.8971952964508167,0.8795679587645777,-0.13673387735452955
104,0,"{'mean': 0.29999999999999999, 'sd': 0.37}",-0.30000000000000004,2,0.4757399559020996,1,"(0, 2)",104,0,False,True,False,True,False,False,0.7883199905594676,0.9710287725511645,0.919367629929509,0.6978822561505919,0.9341120345009906,0.8994677943470434,-0.2183669386772648
105,0,"{'mean': 0.29999999999999999, 'sd': 0.37}",0.10000000000000009,2,0.6400160789489746,1,"(1, 2)",105,0,True,False,False,True,False,False,0.39215181336301785,0.8530779137454413,0.7661683954364147,0.5450170347568049,0.8935949741232159,0.832818094891729,-0.05918346933863236
106,0,"{'mean': 0.29999999999999999, 'sd': 0.37}",0.5,2,0.881242036819458,1,"(1, 2)",106,0,True,False,False,True,False,False,0.10052719154610551,0.501460997736269,0.21726092122813864,0.32277211315145515,0.6975279859297424,0.5250395080599338,0.2204082653306838
107,0,"{'mean': 0.29999999999999999, 'sd': 0.37}",0.7,0,0.7206218242645264,1,"(0, 2)",107,0,False,False,True,False,True,True,0.044449546858264494,0.2951069574554525,0.017236887404152353,0.18361083000485984,0.49631747169259743,0.27113819773204306,0.4602041326653419
108,0,"{'mean': 0.29999999999999999, 'sd': 0.37}",0.5,1,0.5180108547210693,1,"(1, 3)",108,0,False,False,True,False,False,True,0.10052719154610551,0.012265722271562569,0.014147278112892963,0.14206901077548267,0.25429159698208,0.142642737922468,0.48010206633267094
109,0,"{'mean': 0.29999999999999999, 'sd': 0.37}",0.5,0,0.5912148952484131,1,"(0, 2)",109,0,False,False,True,False,False,True,0.10052719154610551,0.012265722271562569,0.013806258006558037,0.12129810116079409,0.13327865962682128,0.07822449796451303,0.49005103316633547
110,0,"{'mean': 0.29999999999999999, 'sd': 0.37}",0.10000000000000009,1,0.6130759716033936,1,"(1, 3)",110,0,False,False,True,False,False,True,0.39215181336301785,0.06688830997225197,0.0745791837788035,0.256724957261906,0.10008348479953663,0.07640184087165827,0.2950255165831678
111,0,"{'mean': -0.29999999999999999, 'sd': 0.37}",0.10000000000000009,1,0.6780130863189697,0,"(1, 3)",111,1,True,True,True,False,False,False,0.39215181336301785,0.06688830997225197,0.10919296589248766,0.32443838531246194,0.08348589738589429,0.09279740338207296,0.19751275829158393
112,0,"{'mean': -0.29999999999999999, 'sd': 0.37}",-1.0,2,0.7801110744476318,0,"(0, 2)",112,1,False,False,False,True,True,True,0.9876632737913976,0.8989431496743486,0.9486057936865501,0.6560508295519298,0.49121452353012146,0.5207015985343115,-0.40124362085420806
113,0,"{'mean': -0.29999999999999999, 'sd': 0.37}",-0.30000000000000004,2,0.739872932434082,0,"(1, 2)",113,1,True,False,False,True,False,True,0.7883199905594676,0.9710287725511645,0.9577460656528918,0.7221854100556987,0.731121648040643,0.7392238320936017,-0.35062181042710405
114,0,"{'mean': -0.29999999999999999, 'sd': 0.37}",0.10000000000000009,2,0.528317928314209,0,"(0, 2)",114,1,True,False,False,True,False,True,0.39215181336301785,0.8530779137454413,0.8068181626483979,0.5571686117093583,0.7920997808930421,0.7730209973709998,-0.12531090521355198
115,0,"{'mean': -0.29999999999999999, 'sd': 0.37}",0.10000000000000009,2,0.4333000183105469,0,"(1, 2)",115,1,True,False,False,True,False,True,0.39215181336301785,0.8530779137454413,0.653902683724368,0.47466021253618806,0.8225888473192418,0.7134618405476839,-0.012655452606775947
116,0,"{'mean': -0.29999999999999999, 'sd': 0.37}",-0.7000000000000001,3,0.467487096786499,0,"(1, 3)",116,1,False,False,False,True,False,True,0.9555504531417355,0.9948579972909842,0.9726352705093481,0.7151053328389618,0.908723422305113,0.843048555528516,-0.356327726303388
117,0,"{'mean': -0.29999999999999999, 'sd': 0.37}",-0.5,2,0.5973660945892334,0,"(0, 2)",117,1,False,False,False,True,False,True,0.8994728084538944,0.9877342777284374,0.9847230725669162,0.8072890706464282,0.9482288500167753,0.9138858140477161,-0.42816386315169397
118,0,"{'mean': -0.29999999999999999, 'sd': 0.37}",-0.5,3,0.6857268810272217,0,"(1, 3)",118,1,False,False,False,True,False,True,0.8994728084538944,0.9877342777284374,0.9860692481923242,0.8533809395501613,0.9679815638726064,0.9499775311200201,-0.464081931575847
119,0,"{'mean': -0.29999999999999999, 'sd': 0.37}",0.10000000000000009,2,0.5889301300048828,0,"(1, 2)",119,1,False,False,False,True,False,True,0.39215181336301785,0.8530779137454413,0.8376473521004216,0.6227663764565896,0.9105297388090239,0.8938124416102209,-0.18204096578792345
120,0,"{'mean': -0.29999999999999999, 'sd': 0.37}",0.7,1,0.8910291194915771,0,"(1, 2)",120,1,False,False,True,False,True,False,0.044449546858264494,0.2951069574554525,0.13482480256929433,0.33360796165742707,0.6028183481322382,0.5143186220897576,0.2589795171060383
121,0,"{'mean': -0.29999999999999999, 'sd': 0.37}",-0.30000000000000004,2,1.024519920349121,0,"(0, 2)",121,1,False,False,False,True,True,True,0.7883199905594676,0.29268146624944924,0.49423875871297945,0.5609639761084473,0.44774990719084373,0.5042786904013685,-0.02051024144698088
122,0,"{'mean': -0.29999999999999999, 'sd': 0.37}",-0.30000000000000004,3,0.6007339954376221,0,"(1, 3)",122,1,False,False,False,True,False,True,0.7883199905594676,0.29268146624944924,0.7852271106296995,0.6746419833339574,0.3702156867201465,0.644752900515534,-0.16025512072349046
123,0,"{'mean': -0.29999999999999999, 'sd': 0.37}",0.10000000000000009,3,0.6796190738677979,0,"(1, 3)",123,1,True,False,False,True,False,True,0.39215181336301785,0.06688830997225197,0.633471935324063,0.5333968983484876,0.21855199834619923,0.6391124179197984,-0.030127560361745187
124,0,"{'mean': -0.29999999999999999, 'sd': 0.37}",-0.30000000000000004,3,0.830977201461792,0,"(0, 3)",124,1,True,False,False,True,False,True,0.7883199905594676,0.29268146624944924,0.8517780406669756,0.6608584444539776,0.2556167322978242,0.7454452292933871,-0.16506378018087262
125,0,"{'mean': -0.29999999999999999, 'sd': 0.37}",-0.5,3,0.7210531234741211,0,"(0, 3)",125,1,True,False,False,True,False,True,0.8994728084538944,0.498539002263731,0.969685789911983,0.7801656264539361,0.37707786728077763,0.8575655096026851,-0.3325318900904363
126,0,"{'mean': -0.29999999999999999, 'sd': 0.37}",-0.5,2,0.6857571601867676,0,"(1, 2)",126,1,False,False,False,True,False,True,0.8994728084538944,0.498539002263731,0.9843906541104431,0.8398192174539152,0.4378084347722543,0.920978081856564,-0.4162659450452182
127,0,"{'mean': -0.29999999999999999, 'sd': 0.37}",0.10000000000000009,2,0.7848300933837891,0,"(1, 2)",127,1,True,False,False,True,False,True,0.39215181336301785,0.06688830997225197,0.8358000641892163,0.6159855154084666,0.2523483723722531,0.8783890730228902,-0.15813297252260905
128,0,"{'mean': -0.29999999999999999, 'sd': 0.37}",-0.5,3,0.7468481063842773,0,"(1, 3)",128,1,False,False,False,True,False,True,0.8994728084538944,0.498539002263731,0.967454479656001,0.7577291619311806,0.37544368731799205,0.9229217763394455,-0.3290664862613045
129,0,"{'mean': -0.29999999999999999, 'sd': 0.37}",-0.30000000000000004,2,0.5980110168457031,0,"(1, 2)",129,1,False,False,False,True,False,True,0.7883199905594676,0.29268146624944924,0.962719660675268,0.7730245762453241,0.33406257678372064,0.9428207185073567,-0.3145332431306523
130,0,"{'mean': 0.29999999999999999, 'sd': 0.37}",-0.10000000000000009,2,0.695775032043457,1,"(0, 2)",130,0,True,True,False,True,False,False,0.6078481866369821,0.14692208625455871,0.9121993392769359,0.6904363814411532,0.24049233151913968,0.9275100288921463,-0.2072666215653262
131,0,"{'mean': 0.29999999999999999, 'sd': 0.37}",0.7,1,0.7911050319671631,1,"(1, 3)",131,0,False,False,True,False,True,True,0.044449546858264494,0.005142002709015806,0.18482261036191905,0.36744296414970884,0.12281716711407774,0.5561663196270327,0.2463666892173369
132,0,"{'mean': 0.29999999999999999, 'sd': 0.37}",0.5,0,1.2067980766296387,1,"(1, 2)",132,0,False,False,False,False,True,False,0.10052719154610551,0.012265722271562569,0.03552150559289472,0.23398507784790717,0.06754144469282015,0.2958439126099637,0.3731833446086684
133,0,"{'mean': 0.29999999999999999, 'sd': 0.37}",0.10000000000000009,1,0.8601219654083252,1,"(1, 2)",133,0,False,False,True,False,True,True,0.39215181336301785,0.06688830997225197,0.08680362161243194,0.31306844560546254,0.06721487733253606,0.1913237671111978,0.23659167230433426
134,0,"{'mean': 0.29999999999999999, 'sd': 0.37}",0.30000000000000004,1,0.7504608631134033,1,"(1, 3)",134,0,True,False,True,False,False,True,0.21168000944053236,0.028971227448835405,0.05193603813718857,0.26237422752299744,0.04809305239068573,0.12162990262419318,0.2682958361521671
135,0,"{'mean': 0.29999999999999999, 'sd': 0.37}",0.5,0,0.4178459644317627,1,"(0, 2)",135,0,False,False,True,False,False,True,0.10052719154610551,0.012265722271562569,0.018094880694705853,0.18145070953455147,0.03017938733112415,0.06986239165944952,0.38414791807608356
136,0,"{'mean': 0.29999999999999999, 'sd': 0.37}",-0.10000000000000009,0,0.9224739074707031,1,"(0, 3)",136,0,True,False,True,False,False,True,0.6078481866369821,0.14692208625455871,0.16693054452839462,0.3946494480857668,0.08855073679284144,0.11839646809392207,0.14207395903804174
137,0,"{'mean': 0.29999999999999999, 'sd': 0.37}",0.5,1,0.5298259258270264,1,"(1, 2)",137,0,False,False,True,False,False,True,0.10052719154610551,0.012265722271562569,0.032933243708327585,0.24758831981593615,0.050408229532202004,0.07566485590112483,0.3210369795190209
138,0,"{'mean': 0.29999999999999999, 'sd': 0.37}",0.10000000000000009,1,0.8723981380462646,1,"(1, 2)",138,0,True,False,True,False,False,True,0.39215181336301785,0.06688830997225197,0.08533829593624763,0.31987006658947703,0.058648269752226985,0.08050157591868623,0.21051848975951049
139,0,"{'mean': 0.29999999999999999, 'sd': 0.37}",-0.30000000000000004,1,1.2027490139007568,1,"(1, 3)",139,0,True,False,True,False,False,True,0.7883199905594676,0.29268146624944924,0.4296926733128516,0.5540950285744723,0.1756648680008381,0.25509712461576894,-0.04474075512024478
140,0,"{'mean': -0.29999999999999999, 'sd': 0.37}",0.30000000000000004,1,0.6384828090667725,0,"(1, 2)",140,1,True,True,True,False,False,False,0.21168000944053236,0.028971227448835405,0.17642364806879127,0.38288751900750234,0.10231804772483676,0.21576038634228012,0.12762962243987763
141,0,"{'mean': -0.29999999999999999, 'sd': 0.37}",-0.10000000000000009,1,0.6894528865814209,0,"(1, 3)",141,1,True,False,True,False,False,False,0.6078481866369821,0.14692208625455871,0.33000345625455313,0.49536785282224227,0.12462006698969774,0.2728819212984166,0.013814811219938772
142,0,"{'mean': -0.29999999999999999, 'sd': 0.37}",-0.5,0,0.765861988067627,0,"(0, 2)",142,1,False,False,True,False,False,False,0.8994728084538944,0.498539002263731,0.8366277402437036,0.6974203306380684,0.3115795346267144,0.5547548307710601,-0.24309259439003061
143,0,"{'mean': -0.29999999999999999, 'sd': 0.37}",-0.5,3,0.6691970825195312,0,"(0, 3)",143,1,False,False,False,True,True,True,0.8994728084538944,0.498539002263731,0.9675716289224704,0.7984465695459815,0.40505926844522266,0.7611632298467652,-0.3715462971950153
144,0,"{'mean': -0.29999999999999999, 'sd': 0.37}",-0.10000000000000009,2,0.5338928699493408,0,"(0, 2)",144,1,False,False,False,True,False,True,0.6078481866369821,0.14692208625455871,0.9149472713140813,0.7031473780914819,0.2759906773498907,0.8380552505804233,-0.2357731485975077
145,0,"{'mean': -0.29999999999999999, 'sd': 0.37}",-1.0,2,0.5633978843688965,0,"(0, 2)",145,1,True,False,False,True,False,True,0.9876632737913976,0.8989431496743486,0.9974834028081891,0.8454053259414398,0.5874669135121197,0.9177693266943062,-0.6178865742987538
146,0,"{'mean': -0.29999999999999999, 'sd': 0.37}",-0.5,3,0.7655148506164551,0,"(1, 3)",146,1,False,False,False,True,False,True,0.8994728084538944,0.9877342777284374,0.9874627290966604,0.8724390671976672,0.7876005956202785,0.9526160278954834,-0.5589432871493769
147,0,"{'mean': -0.29999999999999999, 'sd': 0.37}",-0.30000000000000004,3,0.6160788536071777,0,"(0, 3)",147,1,True,False,False,True,False,True,0.7883199905594676,0.9710287725511645,0.9678686722369249,0.8303795288785674,0.8793146840857216,0.9602423500662041,-0.4294716435746885
148,0,"{'mean': -0.29999999999999999, 'sd': 0.37}",-0.10000000000000009,2,0.48067498207092285,0,"(0, 2)",148,1,False,False,False,True,False,True,0.6078481866369821,0.933111690027748,0.9151152456212862,0.7191138577577747,0.9062131870567347,0.9376787978437451,-0.2647358217873443
149,0,"{'mean': -0.29999999999999999, 'sd': 0.37}",-0.30000000000000004,3,0.4730660915374756,0,"(0, 3)",149,1,False,False,False,True,False,True,0.7883199905594676,0.9710287725511645,0.9486003661015059,0.7537169241586211,0.9386209798039495,0.9431395819726255,-0.2823679108936722
150,0,"{'mean': -0.29999999999999999, 'sd': 0.37}",0.30000000000000004,2,0.8807721138000488,0,"(0, 2)",150,1,False,False,False,True,False,True,0.21168000944053236,0.7073185337505506,0.6203873610475229,0.48269846679957673,0.82296975677725,0.7817634715100742,0.008816044553163926
151,0,"{'mean': -0.29999999999999999, 'sd': 0.37}",-0.10000000000000009,2,0.775827169418335,0,"(1, 2)",151,1,True,False,False,True,False,True,0.6078481866369821,0.933111690027748,0.6960141976562266,0.5452733267182794,0.878040723402499,0.7388888345831504,-0.04559197772341808
152,0,"{'mean': -0.29999999999999999, 'sd': 0.37}",-0.30000000000000004,2,0.48926806449890137,0,"(0, 2)",152,1,True,False,False,True,False,True,0.7883199905594676,0.9710287725511645,0.8769592495598182,0.6667966586388735,0.9245347479768318,0.8079240420714843,-0.17279598886170905
153,0,"{'mean': -0.29999999999999999, 'sd': 0.37}",0.10000000000000009,2,0.48017001152038574,0,"(0, 2)",153,1,True,False,False,True,False,True,0.39215181336301785,0.8530779137454413,0.7226898199546901,0.5294742360009457,0.8888063308611365,0.7653069310130871,-0.03639799443085448
154,0,"{'mean': 0.29999999999999999, 'sd': 0.37}",0.10000000000000009,3,0.6771950721740723,1,"(1, 3)",154,0,False,True,False,True,False,False,0.39215181336301785,0.8530779137454413,0.5761565614081403,0.46081302468198176,0.8709421223032889,0.6707317462106137,0.031801002784572804
155,0,"{'mean': 0.29999999999999999, 'sd': 0.37}",0.5,0,0.7094588279724121,1,"(0, 2)",155,0,False,False,True,False,True,True,0.10052719154610551,0.501460997736269,0.1249395889825033,0.28067010811404364,0.6862015600197789,0.39783566759655853,0.2659005013922864
156,0,"{'mean': 0.29999999999999999, 'sd': 0.37}",0.10000000000000009,1,0.5748658180236816,1,"(1, 2)",156,0,False,False,True,False,False,True,0.39215181336301785,0.8530779137454413,0.13885023124911308,0.3364109607385307,0.7696397368826101,0.2683429494228358,0.18295025069614324
157,0,"{'mean': 0.29999999999999999, 'sd': 0.37}",-0.10000000000000009,1,0.5298991203308105,1,"(1, 2)",157,0,True,False,True,False,False,True,0.6078481866369821,0.933111690027748,0.2931465950437844,0.47212957368775643,0.851375713455179,0.28074477223331007,0.04147512534807157
158,0,"{'mean': 0.29999999999999999, 'sd': 0.37}",0.7,1,0.6421909332275391,1,"(1, 2)",158,0,True,False,True,False,False,True,0.044449546858264494,0.2951069574554525,0.0228484840762275,0.2582895602730105,0.5732413354553157,0.1517966281547688,0.3707375626740358
159,0,"{'mean': 0.29999999999999999, 'sd': 0.37}",0.10000000000000009,1,0.5638298988342285,1,"(1, 2)",159,0,True,False,True,False,False,True,0.39215181336301785,0.06688830997225197,0.07965032278626727,0.3252206868180142,0.32006482271378384,0.11572347547051803,0.23536878133701794
160,0,"{'mean': 0.29999999999999999, 'sd': 0.37}",0.7,1,0.6685459613800049,1,"(1, 3)",160,0,True,False,True,False,False,True,0.044449546858264494,0.005142002709015806,0.009024589120380618,0.18483511683813936,0.16260341271139983,0.06237403229544933,0.467684390668509
161,0,"{'mean': 0.29999999999999999, 'sd': 0.37}",0.8999999999999999,0,0.6284239292144775,1,"(0, 3)",161,0,False,False,True,False,False,True,0.018993448657483984,0.002146624791058985,0.002319813789402762,0.10191428274781167,0.0823750187512294,0.03234692304242604,0.6838421953342544
162,0,"{'mean': 0.29999999999999999, 'sd': 0.37}",0.30000000000000004,0,0.47773098945617676,1,"(0, 2)",162,0,True,False,True,False,False,True,0.21168000944053236,0.028971227448835405,0.029552173969232622,0.156797146094172,0.055673123100032404,0.03094954850582933,0.4919210976671272
163,0,"{'mean': 0.29999999999999999, 'sd': 0.37}",0.8999999999999999,1,0.5310869216918945,1,"(1, 3)",163,0,False,False,True,False,False,True,0.018993448657483984,0.002146624791058985,0.002724147652893656,0.08789529737582799,0.028909873945545693,0.016836848079361495,0.6959605488335636
164,0,"{'mean': 0.29999999999999999, 'sd': 0.37}",-0.30000000000000004,3,1.2217750549316406,1,"(0, 3)",164,0,False,False,False,True,True,False,0.7883199905594676,0.29268146624944924,0.2976710785269018,0.4381076439676478,0.16079567009749746,0.15725396330313163,0.1979802744167818
165,0,"{'mean': -0.29999999999999999, 'sd': 0.37}",-0.5,2,0.5871891975402832,0,"(1, 2)",165,1,False,True,False,True,False,True,0.8994728084538944,0.498539002263731,0.820504979051974,0.6687902262107711,0.3296673361806142,0.4888794711775528,-0.1510098627916091
166,0,"{'mean': -0.29999999999999999, 'sd': 0.37}",-0.10000000000000009,2,0.5926198959350586,0,"(0, 2)",166,1,True,False,False,True,False,True,0.6078481866369821,0.14692208625455871,0.8279746278286942,0.6383192064238766,0.23829471121758647,0.6584270495031235,-0.1255049313958046
167,0,"{'mean': -0.29999999999999999, 'sd': 0.37}",-1.0,3,0.5102691650390625,0,"(0, 3)",167,1,False,False,False,True,False,True,0.9876632737913976,0.8989431496743486,0.9961219292020189,0.8129912401076371,0.5686189304459676,0.8272744893525712,-0.5627524656979023
168,0,"{'mean': -0.29999999999999999, 'sd': 0.37}",-0.30000000000000004,3,0.6280460357666016,0,"(1, 3)",168,1,True,False,False,True,False,True,0.7883199905594676,0.9710287725511645,0.97005663689426,0.8006556153335523,0.769823851498566,0.8986655631234156,-0.43137623284895116
169,0,"{'mean': -0.29999999999999999, 'sd': 0.37}",-0.9000000000000001,2,0.5412039756774902,0,"(1, 2)",169,1,False,False,False,True,False,True,0.981006551342516,0.9978533752089411,0.9972680031067672,0.8908310833380342,0.8838386133537536,0.9479667831150914,-0.6656881164244757
170,0,"{'mean': 0.29999999999999999, 'sd': 0.37}",0.10000000000000009,2,0.44182586669921875,1,"(1, 2)",170,0,True,True,False,True,False,False,0.39215181336301785,0.8530779137454413,0.8500376666847809,0.6414914483505261,0.8684582635495974,0.8990022248999361,-0.2828440582122378
171,0,"{'mean': 0.29999999999999999, 'sd': 0.37}",0.30000000000000004,2,0.5310430526733398,1,"(1, 2)",171,0,True,False,False,True,False,False,0.21168000944053236,0.7073185337505506,0.4877558589794054,0.4265857288955292,0.787888398650074,0.6933790419396707,0.008577970893881126
172,0,"{'mean': 0.29999999999999999, 'sd': 0.37}",-0.5,3,0.48680996894836426,1,"(1, 3)",172,0,False,False,False,True,False,False,0.8994728084538944,0.9877342777284374,0.8958736484169341,0.6630292686747118,0.8878113381892556,0.7946263451783024,-0.24571101455305944
173,0,"{'mean': 0.29999999999999999, 'sd': 0.37}",-0.10000000000000009,3,0.6765139102935791,1,"(1, 3)",173,0,True,False,False,True,False,False,0.6078481866369821,0.933111690027748,0.8735166560725833,0.635438727655847,0.9104615141085017,0.8340715006254429,-0.17285550727652976
174,0,"{'mean': -0.29999999999999999, 'sd': 0.37}",0.5,1,0.8351309299468994,0,"(1, 3)",174,1,False,True,True,False,True,False,0.10052719154610551,0.501460997736269,0.30736089164879465,0.36798295960097627,0.7059612559223853,0.5707161961371188,0.16357224636173512
175,0,"{'mean': -0.29999999999999999, 'sd': 0.37}",-0.5,2,0.6416468620300293,0,"(1, 2)",175,1,False,False,False,True,True,True,0.8994728084538944,0.9877342777284374,0.8255224178244874,0.6337278840274354,0.8468477668254113,0.6981193069808032,-0.16821387681913244
176,0,"{'mean': -0.29999999999999999, 'sd': 0.37}",-0.30000000000000004,3,0.500601053237915,0,"(1, 3)",176,1,False,False,False,True,False,True,0.7883199905594676,0.9710287725511645,0.9219974201912284,0.7110239372934515,0.908938269688288,0.8100583635860158,-0.23410693840956626
177,0,"{'mean': -0.29999999999999999, 'sd': 0.37}",-0.5,3,0.5225200653076172,0,"(1, 3)",177,1,True,False,False,True,False,True,0.8994728084538944,0.9877342777284374,0.9787899851128826,0.805248372873673,0.9483362737083627,0.8944241743494492,-0.3670534692047831
178,0,"{'mean': -0.29999999999999999, 'sd': 0.37}",-0.10000000000000009,3,0.611767053604126,0,"(0, 3)",178,1,True,False,False,True,False,True,0.6078481866369821,0.933111690027748,0.921270592571019,0.7065482797553275,0.9407239818680553,0.9078473834602341,-0.2335267346023916
179,0,"{'mean': -0.29999999999999999, 'sd': 0.37}",-0.5,3,0.5229549407958984,0,"(1, 3)",179,1,True,False,False,True,False,True,0.8994728084538944,0.9877342777284374,0.9787011904322349,0.8030105441046109,0.9642291297982464,0.9432742869462345,-0.3667633673011958
180,0,"{'mean': -0.29999999999999999, 'sd': 0.37}",-0.10000000000000009,3,0.7206559181213379,0,"(0, 3)",180,1,True,False,False,True,False,True,0.6078481866369821,0.933111690027748,0.9212207076826517,0.7054293653707966,0.9486704099129972,0.9322474973144431,-0.23338168365059794
181,0,"{'mean': 0.29999999999999999, 'sd': 0.37}",0.10000000000000009,3,0.6568059921264648,1,"(1, 3)",181,0,True,True,False,True,False,False,0.39215181336301785,0.8530779137454413,0.7681021933061078,0.5487905893669072,0.9008741618292193,0.8501748453102755,-0.06669084182529893
182,0,"{'mean': 0.29999999999999999, 'sd': 0.37}",0.8999999999999999,0,0.9616248607635498,1,"(0, 3)",182,0,False,False,True,False,True,True,0.018993448657483984,0.14839306884368392,0.04621060816604304,0.2838920190121956,0.5246336153364516,0.4481927267381593,0.4166545790873505
183,0,"{'mean': 0.29999999999999999, 'sd': 0.37}",0.5,0,0.6756100654602051,1,"(0, 2)",183,0,True,False,True,False,False,True,0.10052719154610551,0.012265722271562569,0.017428250237726813,0.19220960527915054,0.26844966880400706,0.23281048848794306,0.45832728954367524
184,0,"{'mean': 0.29999999999999999, 'sd': 0.37}",0.7,1,0.6664168834686279,1,"(1, 3)",184,0,False,False,True,False,False,True,0.044449546858264494,0.005142002709015806,0.0059463138016701104,0.11832957606870752,0.13679583575651144,0.11937840114480658,0.5791636447718376
185,0,"{'mean': -0.29999999999999999, 'sd': 0.37}",-0.10000000000000009,0,0.9263157844543457,0,"(1, 2)",185,1,False,True,False,False,True,False,0.6078481866369821,0.14692208625455871,0.15353047096649633,0.36308888135284484,0.14185896100553508,0.13645443605565144,0.23958182238591874
186,0,"{'mean': -0.29999999999999999, 'sd': 0.37}",-0.30000000000000004,1,0.9802579879760742,0,"(1, 3)",186,1,False,False,True,False,True,False,0.7883199905594676,0.29268146624944924,0.5163806114957439,0.5757044359561562,0.21727021362749216,0.32641752377569766,-0.03020908880704065
187,0,"{'mean': -0.29999999999999999, 'sd': 0.37}",-0.7000000000000001,3,0.7732059955596924,0,"(0, 3)",187,1,False,False,False,True,True,True,0.9555504531417355,0.7048930425445474,0.957724918050013,0.7656274445489458,0.4610816280860198,0.6420712209128554,-0.36510454440352036
188,0,"{'mean': -0.29999999999999999, 'sd': 0.37}",0.30000000000000004,3,0.8606729507446289,0,"(0, 3)",188,1,True,False,False,True,False,True,0.21168000944053236,0.7073185337505506,0.6347776000270285,0.4886537269947391,0.5842000809182852,0.6384244104699419,-0.03255227220176016
189,0,"{'mean': -0.29999999999999999, 'sd': 0.37}",-0.7000000000000001,2,0.5166208744049072,0,"(1, 2)",189,1,False,False,False,True,False,True,0.9555504531417355,0.9948579972909842,0.9708608180211434,0.7221020900682373,0.7895290391046348,0.8046426142455427,-0.3662761361008801
190,0,"{'mean': -0.29999999999999999, 'sd': 0.37}",-0.5,3,0.5732331275939941,0,"(1, 3)",190,1,False,False,False,True,False,True,0.8994728084538944,0.9877342777284374,0.9845232720781287,0.8107874492610658,0.8886316584165361,0.8945829431618357,-0.4331380680504401
191,0,"{'mean': -0.29999999999999999, 'sd': 0.37}",-0.10000000000000009,3,0.41612982749938965,0,"(1, 3)",191,1,True,False,False,True,False,True,0.6078481866369821,0.933111690027748,0.9244860108932642,0.709317817949024,0.9108716742221421,0.90953447702755,-0.2665690340252201
192,0,"{'mean': -0.29999999999999999, 'sd': 0.37}",-0.30000000000000004,3,0.4546060562133789,0,"(0, 3)",192,1,True,False,False,True,False,True,0.7883199905594676,0.9710287725511645,0.9512002833281308,0.7488189042542458,0.9409502233866534,0.9303673801778404,-0.28328451701261004
193,0,"{'mean': -0.29999999999999999, 'sd': 0.37}",-0.9000000000000001,3,0.4829890727996826,0,"(1, 3)",193,1,True,False,False,True,False,True,0.981006551342516,0.9978533752089411,0.9968830338475294,0.8649127277983809,0.9694017992977972,0.963625207012685,-0.591642258506305
194,0,"{'mean': -0.29999999999999999, 'sd': 0.37}",-0.7000000000000001,3,0.486555814743042,0,"(0, 3)",194,1,True,False,False,True,False,True,0.9555504531417355,0.9948579972909842,0.9947158901628688,0.9102315904700582,0.9821298982943907,0.9791705485877769,-0.6458211292531526
195,0,"{'mean': -0.29999999999999999, 'sd': 0.37}",-0.10000000000000009,2,0.428358793258667,0,"(0, 2)",195,1,False,False,False,True,False,True,0.6078481866369821,0.933111690027748,0.930175534000334,0.7590398885535201,0.9576207941610693,0.9546730412940554,-0.37291056462657635
196,0,"{'mean': -0.29999999999999999, 'sd': 0.37}",-0.30000000000000004,2,0.4079139232635498,0,"(1, 2)",196,1,True,False,False,True,False,True,0.7883199905594676,0.9710287725511645,0.9527631385045887,0.7736799395564938,0.9643247833561168,0.953718089899322,-0.3364552823132882
197,0,"{'mean': 0.29999999999999999, 'sd': 0.37}",0.10000000000000009,2,0.7488009929656982,1,"(1, 2)",197,0,True,True,False,True,False,False,0.39215181336301785,0.8530779137454413,0.8014682401353044,0.5829158764597558,0.9087013485507791,0.8775931650173132,-0.11822764115664405
198,0,"{'mean': -0.29999999999999999, 'sd': 0.37}",-0.9000000000000001,3,0.41954994201660156,0,"(0, 3)",198,1,False,True,False,True,False,True,0.981006551342516,0.9978533752089411,0.9932842909811858,0.7819612139011359,0.9532773618798601,0.9354387279992495,-0.5091138205783221
199,0,"{'mean': -0.29999999999999999, 'sd': 0.37}",-0.9000000000000001,2,0.5011048316955566,0,"(0, 2)",199,1,False,False,False,True,False,True,0.981006551342516,0.9978533752089411,0.9977247557923911,0.881483882621826,0.9755653685444006,0.9665817418958202,-0.7045569102891611
200,0,"{'mean': -0.29999999999999999, 'sd': 0.37}",-0.7000000000000001,3,0.4601919651031494,0,"(0, 3)",200,1,False,False,False,True,False,True,0.9555504531417355,0.9948579972909842,0.9947543392822121,0.9185171678817807,0.9852116829176925,0.9806680405890162,-0.7022784551445806
201,0,"{'mean': -0.29999999999999999, 'sd': 0.37}",-0.7000000000000001,3,0.8185100555419922,0,"(1, 3)",201,1,True,False,False,True,False,True,0.9555504531417355,0.9948579972909842,0.9946184086425499,0.9370338105117582,0.9900348401043384,0.9876432246157831,-0.7011392275722903
202,0,"{'mean': -0.29999999999999999, 'sd': 0.37}",-0.30000000000000004,3,0.6250400543212891,0,"(0, 3)",202,1,True,False,False,True,False,True,0.7883199905594676,0.9710287725511645,0.9696784568127835,0.8626769005356129,0.9805318063277515,0.9786608407142834,-0.5005696137861452
203,0,"{'mean': -0.29999999999999999, 'sd': 0.37}",0.10000000000000009,2,0.7431960105895996,0,"(1, 2)",203,1,False,False,False,True,False,True,0.39215181336301785,0.8530779137454413,0.8197186370841077,0.6274143569493154,0.9168048600365963,0.8991897388991956,-0.20028480689307254
204,0,"{'mean': -0.29999999999999999, 'sd': 0.37}",-0.30000000000000004,3,0.5134561061859131,0,"(1, 3)",204,1,False,False,False,True,False,True,0.7883199905594676,0.9710287725511645,0.9201569656567995,0.7078671737543915,0.9439168162938805,0.9096733522779976,-0.25014240344653627
205,0,"{'mean': -0.29999999999999999, 'sd': 0.37}",-0.7000000000000001,3,0.4290180206298828,0,"(1, 3)",205,1,True,False,False,True,False,True,0.9555504531417355,0.9948579972909842,0.990965339018647,0.8317088134480635,0.9693874067924324,0.9503193456483223,-0.47507120172326817
206,0,"{'mean': -0.29999999999999999, 'sd': 0.37}",-0.30000000000000004,3,0.46906304359436035,0,"(1, 3)",206,1,True,False,False,True,False,True,0.7883199905594676,0.9710287725511645,0.9687565926109518,0.8100144020037655,0.9702080896717984,0.9595379691296371,-0.3875356008616341
207,0,"{'mean': -0.29999999999999999, 'sd': 0.37}",-0.5,2,0.49407315254211426,0,"(1, 2)",207,1,False,False,False,True,False,True,0.8994728084538944,0.9877342777284374,0.9842856051123372,0.85474360522883,0.9789711837001178,0.9719117871209871,-0.44376780043081704
208,0,"{'mean': -0.29999999999999999, 'sd': 0.37}",-0.30000000000000004,2,0.5152339935302734,0,"(1, 2)",208,1,True,False,False,True,False,True,0.7883199905594676,0.9710287725511645,0.9670598326224511,0.8215317978941488,0.9749999781256411,0.9694858098717192,-0.3718839002154085
209,0,"{'mean': -0.29999999999999999, 'sd': 0.37}",-0.5,2,0.5371720790863037,0,"(1, 2)",209,1,True,False,False,True,False,True,0.8994728084538944,0.9877342777284374,0.9840933772820958,0.8605023031740215,0.9813671279270393,0.9767895935769075,-0.43594195010770426
210,0,"{'mean': -0.29999999999999999, 'sd': 0.37}",0.10000000000000009,3,0.4641540050506592,0,"(1, 3)",210,1,False,False,False,True,False,True,0.39215181336301785,0.8530779137454413,0.835473179734568,0.6263270582685196,0.9172225208362403,0.9061313866557378,-0.16797097505385208
211,0,"{'mean': -0.29999999999999999, 'sd': 0.37}",-0.10000000000000009,2,0.5889420509338379,0,"(0, 2)",211,1,False,False,False,True,False,True,0.6078481866369821,0.933111690027748,0.8371882372184316,0.6170876224527508,0.9251671054319941,0.8716598119370846,-0.13398548752692607
212,0,"{'mean': -0.29999999999999999, 'sd': 0.37}",-0.30000000000000004,3,0.7746970653533936,0,"(1, 3)",212,1,False,False,False,True,False,True,0.7883199905594676,0.9710287725511645,0.9256513255465535,0.7027038065061092,0.9480979389915793,0.8986555687418191,-0.21699274376346306
213,0,"{'mean': -0.29999999999999999, 'sd': 0.37}",0.10000000000000009,3,0.8802790641784668,0,"(1, 3)",213,1,True,False,False,True,False,True,0.39215181336301785,0.8530779137454413,0.7727375622777374,0.5474278099345635,0.9005879263685104,0.8356965655097782,-0.058496371881731485
214,0,"{'mean': -0.29999999999999999, 'sd': 0.37}",-0.10000000000000009,3,0.984623908996582,0,"(0, 3)",214,1,True,False,False,True,False,True,0.6078481866369821,0.933111690027748,0.7979897691912876,0.5776379982857729,0.9168498081981291,0.816843167350533,-0.07924818594086579
215,0,"{'mean': -0.29999999999999999, 'sd': 0.37}",-0.5,2,0.8383450508117676,0,"(0, 2)",215,1,False,False,False,True,False,True,0.8994728084538944,0.9877342777284374,0.9619113978290234,0.7385554033698336,0.9522920429632833,0.8893772825897781,-0.2896240929704329
216,0,"{'mean': -0.29999999999999999, 'sd': 0.37}",-0.5,3,0.8216040134429932,0,"(0, 3)",216,1,False,False,False,True,False,True,0.8994728084538944,0.9877342777284374,0.983506896369012,0.8190141059118641,0.9700131603458604,0.936442089479395,-0.39481204648521645
217,0,"{'mean': -0.29999999999999999, 'sd': 0.37}",-0.10000000000000009,3,0.9601690769195557,0,"(0, 3)",217,1,True,False,False,True,False,True,0.6078481866369821,0.933111690027748,0.9239167887584415,0.7134311462744232,0.9515624251868042,0.9301794391189182,-0.24740602324260827
218,0,"{'mean': -0.29999999999999999, 'sd': 0.37}",0.10000000000000009,3,0.8873629570007324,0,"(1, 3)",218,1,True,False,False,True,False,True,0.39215181336301785,0.8530779137454413,0.7709208898941027,0.5527914798187206,0.9023201694661227,0.8505501645065104,-0.07370301162130409
219,0,"{'mean': -0.29999999999999999, 'sd': 0.37}",-0.9000000000000001,2,0.881005048751831,0,"(1, 2)",219,1,False,False,False,True,False,True,0.981006551342516,0.9978533752089411,0.9924063236268263,0.7668990155806183,0.9500867723375319,0.9214782440666685,-0.4868515058106521
220,0,"{'mean': -0.29999999999999999, 'sd': 0.37}",-0.7000000000000001,2,0.6283118724822998,0,"(1, 2)",220,1,True,False,False,True,False,True,0.9555504531417355,0.9948579972909842,0.9945104750351842,0.861224734361177,0.972472384814258,0.9579943595509264,-0.5934257529053261
221,0,"{'mean': -0.29999999999999999, 'sd': 0.37}",-0.30000000000000004,2,0.45232510566711426,0,"(0, 2)",221,1,True,False,False,True,False,True,0.7883199905594676,0.9710287725511645,0.9696512805869891,0.8247723624603223,0.9717505786827112,0.9638228200689578,-0.44671287645266305
222,0,"{'mean': -0.29999999999999999, 'sd': 0.37}",0.10000000000000009,3,0.7574272155761719,0,"(0, 3)",222,1,False,False,False,True,False,True,0.39215181336301785,0.8530779137454413,0.8196891119643425,0.60846208791167,0.9124142462140763,0.8917559660166501,-0.17335643822633148
223,0,"{'mean': -0.29999999999999999, 'sd': 0.37}",-0.9000000000000001,3,0.5625710487365723,0,"(0, 3)",223,1,True,False,False,True,False,True,0.981006551342516,0.9978533752089411,0.9937816341683227,0.7947343196270931,0.9551338107115087,0.9427688000924863,-0.5366782191131658
224,0,"{'mean': -0.29999999999999999, 'sd': 0.37}",0.10000000000000009,2,0.6763389110565186,0,"(1, 2)",224,1,False,False,False,True,False,True,0.39215181336301785,0.8530779137454413,0.8461679684732725,0.5934430664950554,0.904105862228475,0.8944683842828793,-0.21833910955658287
225,0,"{'mean': 0.29999999999999999, 'sd': 0.37}",0.10000000000000009,2,0.6611568927764893,1,"(1, 2)",225,0,True,True,False,True,False,False,0.39215181336301785,0.8530779137454413,0.6920271930980049,0.49279743992903663,0.8785918879869581,0.7932477886904421,-0.05916955477829139
226,0,"{'mean': 0.29999999999999999, 'sd': 0.37}",-0.10000000000000009,2,0.47609996795654297,1,"(0, 2)",226,0,True,False,False,True,False,False,0.6078481866369821,0.933111690027748,0.7452189593000847,0.5503228132830094,0.905851789007353,0.7692333739952635,-0.07958477738914574
227,0,"{'mean': 0.29999999999999999, 'sd': 0.37}",0.7,0,1.0098700523376465,1,"(0, 3)",227,0,False,False,True,False,True,True,0.044449546858264494,0.2951069574554525,0.0963214375660272,0.29738618007063694,0.6004793732314028,0.43277740578064533,0.3102076113054271
228,0,"{'mean': 0.29999999999999999, 'sd': 0.37}",-0.10000000000000009,1,0.8647840023040771,1,"(1, 2)",228,0,False,False,True,False,False,True,0.6078481866369821,0.14692208625455871,0.2500889244655999,0.4526171833538095,0.37370072974298074,0.3414331651231226,0.10510380565271352
229,0,"{'mean': 0.29999999999999999, 'sd': 0.37}",0.30000000000000004,1,0.5613479614257812,1,"(1, 3)",229,0,True,False,True,False,False,True,0.21168000944053236,0.028971227448835405,0.10323485513338887,0.3321485963971709,0.20133597859590807,0.22233401012825574,0.20255190282635677
230,0,"{'mean': 0.29999999999999999, 'sd': 0.37}",0.7,0,0.5232279300689697,1,"(0, 3)",230,0,False,False,True,False,False,True,0.044449546858264494,0.005142002709015806,0.010283838844944425,0.1882990716277177,0.10323899065246193,0.11630892448660009,0.45127595141317833
231,0,"{'mean': 0.29999999999999999, 'sd': 0.37}",0.10000000000000009,0,0.7045779228210449,1,"(0, 3)",231,0,True,False,True,False,False,True,0.39215181336301785,0.06688830997225197,0.07261103804852573,0.29022544249536775,0.08506365031235695,0.09445998126756291,0.2756379757065892
232,0,"{'mean': 0.29999999999999999, 'sd': 0.37}",0.30000000000000004,0,0.47643303871154785,1,"(0, 3)",232,0,True,False,True,False,False,True,0.21168000944053236,0.028971227448835405,0.04800083467602665,0.25095272596795004,0.057017438880596176,0.07123040797179478,0.2878189878532946
233,0,"{'mean': 0.29999999999999999, 'sd': 0.37}",0.30000000000000004,0,0.42856693267822266,1,"(0, 2)",233,0,True,False,True,False,False,True,0.21168000944053236,0.028971227448835405,0.04134951633257564,0.2313163677042412,0.04299433316471579,0.05628996215218521,0.29390949392664734
234,0,"{'mean': 0.29999999999999999, 'sd': 0.37}",0.7,0,0.5782020092010498,1,"(0, 3)",234,0,True,False,True,False,False,True,0.044449546858264494,0.005142002709015806,0.007090156876906032,0.13788295728125283,0.024068167936865798,0.03169005951454562,0.49695474696332365
235,0,"{'mean': 0.29999999999999999, 'sd': 0.37}",0.10000000000000009,0,0.5126008987426758,1,"(0, 3)",235,0,True,False,True,False,False,True,0.39215181336301785,0.06688830997225197,0.07083010843754223,0.26501738532213537,0.04547823895455888,0.051260083976043924,0.29847737348166187
236,0,"{'mean': 0.29999999999999999, 'sd': 0.37}",0.8999999999999999,0,0.580024003982544,1,"(0, 2)",236,0,True,False,True,False,False,True,0.018993448657483984,0.002146624791058985,0.0035837818322527093,0.14200541698980967,0.02381243187280893,0.02742193290414832,0.5992386867408309
237,0,"{'mean': 0.29999999999999999, 'sd': 0.37}",0.30000000000000004,0,0.4521348476409912,1,"(0, 2)",237,0,True,False,True,False,False,True,0.21168000944053236,0.028971227448835405,0.029869424900975546,0.17684271321517103,0.026391829660822166,0.028645678902561932,0.4496193433704155
238,0,"{'mean': 0.29999999999999999, 'sd': 0.37}",0.5,0,0.4004240036010742,1,"(0, 3)",238,0,True,False,True,False,False,True,0.10052719154610551,0.012265722271562569,0.015559116537313001,0.13868495238063827,0.01932877596619237,0.022102397719937467,0.4748096716852077
239,0,"{'mean': 0.29999999999999999, 'sd': 0.37}",-0.30000000000000004,1,0.609307050704956,1,"(1, 3)",239,0,False,False,True,False,False,True,0.7883199905594676,0.29268146624944924,0.3205696932673292,0.4635024714700529,0.1560051211078208,0.17133604549363335,0.08740483584260383
240,0,"{'mean': 0.29999999999999999, 'sd': 0.37}",0.5,0,0.562920093536377,1,"(1, 2)",240,0,False,False,False,False,True,False,0.10052719154610551,0.012265722271562569,0.05829579630935272,0.2820148315080792,0.08413542168969168,0.11481592090149303,0.2937024179213019
241,0,"{'mean': 0.29999999999999999, 'sd': 0.37}",0.10000000000000009,0,0.649791955947876,1,"(0, 3)",241,0,True,False,True,False,True,True,0.39215181336301785,0.06688830997225197,0.09979504941712564,0.3370833224355485,0.07551186583097183,0.10730548515930934,0.196851208960651
242,0,"{'mean': 0.29999999999999999, 'sd': 0.37}",0.5,0,0.4660768508911133,1,"(0, 3)",242,0,True,False,True,False,False,True,0.10052719154610551,0.012265722271562569,0.02391977407955677,0.218805256990827,0.0438887940512672,0.06561262961943305,0.3484256044803255
243,0,"{'mean': 0.29999999999999999, 'sd': 0.37}",0.5,0,0.3585200309753418,1,"(0, 2)",243,0,True,False,True,False,False,True,0.10052719154610551,0.012265722271562569,0.014890639918663628,0.15966622426846627,0.028077258161414886,0.04025163476904834,0.4242128022401628
244,0,"{'mean': 0.29999999999999999, 'sd': 0.37}",0.10000000000000009,0,0.4329371452331543,1,"(0, 2)",244,0,True,False,True,False,False,True,0.39215181336301785,0.06688830997225197,0.07518590548510574,0.27590901881574204,0.04748278406683343,0.057718770127077046,0.26210640112008143
245,0,"{'mean': 0.29999999999999999, 'sd': 0.37}",-0.10000000000000009,0,0.4457418918609619,1,"(0, 3)",245,0,True,False,True,False,False,True,0.6078481866369821,0.14692208625455871,0.22813963238651233,0.4418786027263621,0.09720243516069607,0.1429292012567947,0.08105320056004067
246,0,"{'mean': 0.29999999999999999, 'sd': 0.37}",-0.30000000000000004,2,0.9243679046630859,1,"(1, 2)",246,0,False,False,False,True,True,False,0.7883199905594676,0.29268146624944924,0.594546249166757,0.6150992966429149,0.19494195070507264,0.36873772521177584,-0.10947339971997969
247,0,"{'mean': 0.29999999999999999, 'sd': 0.37}",0.30000000000000004,3,0.8495180606842041,1,"(1, 3)",247,0,False,False,False,True,False,False,0.21168000944053236,0.028971227448835405,0.2669915319766162,0.4133896530417236,0.11195658907695402,0.317864628594196,0.09526330014001018
248,0,"{'mean': 0.29999999999999999, 'sd': 0.37}",0.10000000000000009,2,0.778637170791626,1,"(0, 2)",248,0,False,False,False,True,False,False,0.39215181336301785,0.06688830997225197,0.22764623875520415,0.4027707332023707,0.08942244952460299,0.27275543367470007,0.09763165007000513
249,0,"{'mean': 0.29999999999999999, 'sd': 0.37}",0.10000000000000009,3,0.8574330806732178,1,"(1, 3)",249,0,False,False,False,True,False,False,0.39215181336301785,0.06688830997225197,0.2022548123550519,0.3974612732826943,0.07815537974842748,0.23750512301487597,0.09881582503500261
250,0,"{'mean': 0.29999999999999999, 'sd': 0.37}",0.5,2,0.7777760028839111,1,"(0, 2)",250,0,False,False,False,True,False,False,0.10052719154610551,0.012265722271562569,0.038125721824705465,0.2489942324143999,0.04521055100999503,0.13781542241979072,0.2994079125175013
251,0,"{'mean': 0.29999999999999999, 'sd': 0.37}",0.10000000000000009,0,1.374194860458374,1,"(1, 2)",251,0,False,False,False,False,False,False,0.39215181336301785,0.06688830997225197,0.08828025853285389,0.32057302288870887,0.0560494304911235,0.1130478404763223,0.1997039562587507
252,0,"{'mean': -0.29999999999999999, 'sd': 0.37}",-0.5,2,0.8414831161499023,0,"(1, 2)",252,1,False,True,False,True,False,True,0.8994728084538944,0.498539002263731,0.6479797459173313,0.6100229156713016,0.27729421637742724,0.3805137931968268,-0.15014802187062465
253,0,"{'mean': -0.29999999999999999, 'sd': 0.37}",-0.30000000000000004,2,0.593317985534668,0,"(0, 2)",253,1,True,False,False,True,False,True,0.7883199905594676,0.29268146624944924,0.8578470508803364,0.6991714531153845,0.28498784131343824,0.6191804220385816,-0.22507401093531235
254,0,"{'mean': -0.29999999999999999, 'sd': 0.37}",-0.10000000000000009,3,0.4147679805755615,0,"(0, 3)",254,1,False,False,False,True,False,True,0.6078481866369821,0.14692208625455871,0.8508023984629448,0.6535098198761833,0.21595496378399848,0.7349914102507632,-0.1625370054676562
255,0,"{'mean': -0.29999999999999999, 'sd': 0.37}",-0.5,2,0.4723958969116211,0,"(0, 2)",255,1,False,False,False,True,False,True,0.8994728084538944,0.498539002263731,0.9695513462978251,0.7764913141650389,0.3572469830238647,0.8522713782742941,-0.33126850273382813
256,0,"{'mean': -0.29999999999999999, 'sd': 0.37}",-0.5,2,0.45785999298095703,0,"(0, 2)",256,1,True,False,False,True,False,True,0.8994728084538944,0.498539002263731,0.9843754644402343,0.8379820613094666,0.4278929926437979,0.9183234213572642,-0.41563425136691406
257,0,"{'mean': -0.29999999999999999, 'sd': 0.37}",-0.5,3,0.6202051639556885,0,"(0, 3)",257,1,False,False,False,True,False,True,0.8994728084538944,0.498539002263731,0.9860308951154794,0.8687274348816805,0.4632159974537644,0.9521771582363718,-0.457817125683457
258,0,"{'mean': -0.29999999999999999, 'sd': 0.37}",-1.0,2,0.47506189346313477,0,"(1, 2)",258,1,False,False,False,True,False,True,0.9876632737913976,0.8989431496743486,0.9984400698647827,0.9281953543365391,0.6810795735640565,0.9753086140505773,-0.7289085628417284
259,0,"{'mean': -0.29999999999999999, 'sd': 0.37}",-0.30000000000000004,2,0.5524280071258545,0,"(1, 2)",259,1,True,False,False,True,False,True,0.7883199905594676,0.9710287725511645,0.970638309842913,0.8582576724480033,0.8260541730576105,0.9729734619467452,-0.5144542814208642
260,0,"{'mean': -0.29999999999999999, 'sd': 0.37}",-0.10000000000000009,3,0.4576380252838135,0,"(1, 3)",260,1,False,False,False,True,False,True,0.6078481866369821,0.933111690027748,0.916680015330502,0.7330529295424928,0.8795829315426793,0.9448267386386235,-0.30722714071043217
261,0,"{'mean': -0.29999999999999999, 'sd': 0.37}",0.30000000000000004,3,0.7213418483734131,0,"(1, 3)",261,1,True,False,False,True,False,True,0.21168000944053236,0.7073185337505506,0.5731430670585198,0.47236646949151256,0.7934507326466149,0.7589849028485717,-0.0036135703552160614
262,0,"{'mean': -0.29999999999999999, 'sd': 0.37}",0.10000000000000009,2,0.5087459087371826,0,"(0, 2)",262,1,False,False,False,True,False,True,0.39215181336301785,0.8530779137454413,0.4493887006125683,0.4322591414272652,0.8232643231960282,0.60418680173057,0.048193214822392014
263,0,"{'mean': -0.29999999999999999, 'sd': 0.37}",0.10000000000000009,2,0.49072694778442383,0,"(0, 2)",263,1,True,False,False,True,False,True,0.39215181336301785,0.8530779137454413,0.35420925386525176,0.4122054773951415,0.8381711184707348,0.4791980277979109,0.07409660741119606
264,0,"{'mean': -0.29999999999999999, 'sd': 0.37}",-0.10000000000000009,2,0.6010849475860596,0,"(1, 2)",264,1,True,False,False,True,False,True,0.6078481866369821,0.933111690027748,0.49075019059808983,0.5100268320160618,0.8856414042492413,0.4849741091980003,-0.012951696294402015
265,0,"{'mean': 0.29999999999999999, 'sd': 0.37}",0.7,1,0.7932851314544678,1,"(0, 3)",265,0,False,True,False,False,False,False,0.044449546858264494,0.2951069574554525,0.043209075276322395,0.27723818943716316,0.5903741808523469,0.2640915922371614,0.34352415185279894
266,0,"{'mean': 0.29999999999999999, 'sd': 0.37}",0.7,1,0.5156469345092773,1,"(1, 3)",266,0,True,False,True,False,True,True,0.044449546858264494,0.005142002709015806,0.007181081388008596,0.16084386814771384,0.29775809178068136,0.135636336812585,0.5217620759263994
267,0,"{'mean': 0.29999999999999999, 'sd': 0.37}",0.5,0,0.4949030876159668,1,"(0, 3)",267,0,False,False,True,False,False,True,0.10052719154610551,0.012265722271562569,0.013043417739353037,0.13068552984690968,0.15501190702612197,0.07433987727596901,0.5108810379631997
268,0,"{'mean': 0.29999999999999999, 'sd': 0.37}",-0.10000000000000009,0,0.9718282222747803,1,"(0, 2)",268,0,True,False,True,False,False,True,0.6078481866369821,0.14692208625455871,0.16137509991962223,0.36926685824194594,0.15096699664034036,0.11785748859779563,0.20544051898159982
269,0,"{'mean': 0.29999999999999999, 'sd': 0.37}",0.30000000000000004,0,0.6256771087646484,1,"(0, 3)",269,0,True,False,True,False,False,True,0.21168000944053236,0.028971227448835405,0.07390283539822592,0.29047343384123914,0.08996911204458788,0.09588016199801078,0.2527202594907999
270,0,"{'mean': 0.29999999999999999, 'sd': 0.37}",0.30000000000000004,0,0.48760104179382324,1,"(0, 2)",270,0,True,False,True,False,False,True,0.21168000944053236,0.028971227448835405,0.04835595347435988,0.25107672164088574,0.05947016974671164,0.07211805773618532,0.2763601297454
271,0,"{'mean': 0.29999999999999999, 'sd': 0.37}",0.10000000000000009,0,0.7006897926330566,1,"(1, 2)",271,0,True,False,False,False,True,False,0.39215181336301785,0.06688830997225197,0.09410321050480185,0.32161426750195177,0.0631792398594818,0.08311063412049358,0.18818006487270003
272,0,"{'mean': -0.29999999999999999, 'sd': 0.37}",-0.7000000000000001,3,0.9755599498748779,0,"(1, 3)",272,1,False,True,False,True,False,True,0.9555504531417355,0.7048930425445474,0.8204341009617258,0.6385823603218437,0.3840361412020146,0.45177236754110967,-0.25590996756365003
273,0,"{'mean': -0.29999999999999999, 'sd': 0.37}",-0.7000000000000001,3,0.6811110973358154,0,"(1, 3)",273,1,True,False,False,True,False,True,0.9555504531417355,0.9948579972909842,0.9852360012163982,0.7970664067317896,0.6894470692464995,0.718504184378754,-0.47795498378182505
274,0,"{'mean': -0.29999999999999999, 'sd': 0.37}",0.10000000000000009,3,0.7715809345245361,0,"(1, 3)",274,1,True,False,False,True,False,True,0.39215181336301785,0.8530779137454413,0.8367300448900081,0.5946091100474038,0.7712624914959704,0.7776171146343811,-0.18897749189091248
275,0,"{'mean': -0.29999999999999999, 'sd': 0.37}",-0.10000000000000009,2,0.48245906829833984,0,"(1, 2)",275,1,False,False,False,True,False,True,0.6078481866369821,0.933111690027748,0.8379580139015421,0.6012286483421929,0.8521870907618592,0.8077875642679616,-0.1444887459454563
276,0,"{'mean': -0.29999999999999999, 'sd': 0.37}",-0.30000000000000004,2,0.5175158977508545,0,"(0, 2)",276,1,True,False,False,True,False,True,0.7883199905594676,0.9710287725511645,0.925890322105677,0.6947743194508302,0.9116079316565118,0.8668389431868193,-0.22224437297272817
277,0,"{'mean': -0.29999999999999999, 'sd': 0.37}",0.10000000000000009,3,0.4610588550567627,0,"(1, 3)",277,1,False,False,False,True,False,True,0.39215181336301785,0.8530779137454413,0.7729880759146411,0.543463066406924,0.8823429227009765,0.8199135095507302,-0.06112218648636404
278,0,"{'mean': -0.29999999999999999, 'sd': 0.37}",-0.9000000000000001,3,0.637664794921875,0,"(0, 3)",278,1,True,False,False,True,False,True,0.981006551342516,0.9978533752089411,0.9924675709492113,0.76223480887472,0.9400981489549588,0.9061905402499708,-0.4805610932431821
279,0,"{'mean': -0.29999999999999999, 'sd': 0.37}",-0.10000000000000009,2,0.6375019550323486,0,"(1, 2)",279,1,False,False,False,True,False,True,0.6078481866369821,0.933111690027748,0.9289234624100283,0.685041497755851,0.9366049194913534,0.9175570013299996,-0.2902805466215911
280,0,"{'mean': -0.29999999999999999, 'sd': 0.37}",-0.30000000000000004,3,0.46776390075683594,0,"(1, 3)",280,1,False,False,False,True,False,True,0.7883199905594676,0.9710287725511645,0.9524202157949759,0.7366807441576593,0.9538168460212589,0.9349886085624878,-0.29514027331079556
281,0,"{'mean': -0.29999999999999999, 'sd': 0.37}",-0.10000000000000009,3,0.44196105003356934,0,"(0, 3)",281,1,True,False,False,True,False,True,0.6078481866369821,0.933111690027748,0.9063398245385419,0.6722644653973207,0.9434642680245034,0.9206642165505148,-0.19757013665539783
282,0,"{'mean': -0.29999999999999999, 'sd': 0.37}",0.10000000000000009,3,0.49410390853881836,0,"(0, 3)",282,1,True,False,False,True,False,True,0.39215181336301785,0.8530779137454413,0.7526543066746532,0.5322081393801692,0.8982710908849724,0.836659261612584,-0.04878506832769887
283,0,"{'mean': -0.29999999999999999, 'sd': 0.37}",0.30000000000000004,2,0.5984339714050293,0,"(0, 2)",283,1,False,False,False,True,False,True,0.21168000944053236,0.7073185337505506,0.38760321013756643,0.37194407441035077,0.8027948123177615,0.6121312358750752,0.1256074658361506
284,0,"{'mean': -0.29999999999999999, 'sd': 0.37}",-0.30000000000000004,3,0.45964598655700684,0,"(0, 3)",284,1,False,False,False,True,False,True,0.7883199905594676,0.9710287725511645,0.7213573051122809,0.5801320324849092,0.8869117924344629,0.6667442704936781,-0.08719626708192472
285,0,"{'mean': -0.29999999999999999, 'sd': 0.37}",-1.0,2,0.49370408058166504,0,"(0, 2)",285,1,False,False,False,True,False,True,0.9876632737913976,0.9986140543932752,0.9940781839264469,0.7838976531381534,0.942762923413869,0.8304112272100626,-0.5435981335409623
286,0,"{'mean': -0.29999999999999999, 'sd': 0.37}",-0.5,2,0.6826691627502441,0,"(1, 2)",286,1,True,False,False,True,False,True,0.8994728084538944,0.9877342777284374,0.9870935906812196,0.8416852307960239,0.9652486005711531,0.9087524089456411,-0.5217990667704812
287,0,"{'mean': -0.29999999999999999, 'sd': 0.37}",-0.10000000000000009,3,0.5415980815887451,0,"(0, 3)",287,1,False,False,False,True,False,True,0.6078481866369821,0.933111690027748,0.9259239947269239,0.7247667087165031,0.9491801452994506,0.9173382018362826,-0.3108995333852406
288,0,"{'mean': -0.29999999999999999, 'sd': 0.37}",-0.10000000000000009,3,0.7555480003356934,0,"(0, 3)",288,1,True,False,False,True,False,True,0.6078481866369821,0.933111690027748,0.8910988211993556,0.6663074476767425,0.9411459176635992,0.9042185115178191,-0.20544976669262036
289,0,"{'mean': -0.29999999999999999, 'sd': 0.37}",-0.10000000000000009,3,0.5450339317321777,0,"(1, 3)",289,1,True,False,False,True,False,True,0.6078481866369821,0.933111690027748,0.8706933675571285,0.6370778171568623,0.9371288038456735,0.8874559395374737,-0.15272488334631024
290,0,"{'mean': 0.29999999999999999, 'sd': 0.37}",0.30000000000000004,2,0.967216968536377,1,"(0, 2)",290,0,False,True,False,True,False,False,0.21168000944053236,0.7073185337505506,0.5125149482885474,0.4243789132986973,0.8222236687981122,0.6999854439130105,0.0736375583268449
291,0,"{'mean': 0.29999999999999999, 'sd': 0.37}",0.30000000000000004,2,0.542572021484375,1,"(0, 2)",291,0,True,False,False,True,False,False,0.21168000944053236,0.7073185337505506,0.2184409204610986,0.31802946136961485,0.7647711012743315,0.45921318218705454,0.1868187791634225
292,0,"{'mean': 0.29999999999999999, 'sd': 0.37}",-0.5,3,0.5373530387878418,1,"(1, 3)",292,0,False,False,False,True,False,False,0.8994728084538944,0.9877342777284374,0.7721936566672986,0.6087511349117547,0.8762526895013845,0.6157034194271765,-0.15659061041828876
293,0,"{'mean': 0.29999999999999999, 'sd': 0.37}",0.5,0,0.7483549118041992,1,"(0, 2)",293,0,False,False,True,False,True,True,0.10052719154610551,0.501460997736269,0.22131352348328082,0.3546391632289301,0.6888568436188267,0.4185084714552287,0.17170469479085562
294,0,"{'mean': 0.29999999999999999, 'sd': 0.37}",0.30000000000000004,0,0.41766905784606934,1,"(0, 2)",294,0,True,False,True,False,False,True,0.21168000944053236,0.7073185337505506,0.09330213221766838,0.2831595863347312,0.6980876886846887,0.25590530183644855,0.23585234739542782
295,0,"{'mean': 0.29999999999999999, 'sd': 0.37}",0.10000000000000009,0,0.6780810356140137,1,"(0, 3)",295,0,True,False,True,False,False,True,0.39215181336301785,0.8530779137454413,0.12011334890187121,0.33765569984887456,0.775582801215065,0.18800932536915987,0.16792617369771395
296,0,"{'mean': 0.29999999999999999, 'sd': 0.37}",0.5,0,0.4728071689605713,1,"(0, 2)",296,0,True,False,True,False,False,True,0.10052719154610551,0.501460997736269,0.026537774595002697,0.21909144569749003,0.638521899475667,0.10727354998208129,0.333963086848857
297,0,"{'mean': 0.29999999999999999, 'sd': 0.37}",0.10000000000000009,0,0.5305290222167969,1,"(0, 3)",297,0,True,False,True,False,False,True,0.39215181336301785,0.8530779137454413,0.08172719668394622,0.30562162953025396,0.7457999066105541,0.09450037333301375,0.21698154342442855
298,0,"{'mean': 0.29999999999999999, 'sd': 0.37}",0.30000000000000004,0,0.4105989933013916,1,"(0, 2)",298,0,True,False,True,False,False,True,0.21168000944053236,0.7073185337505506,0.05051994644172232,0.25865081948539315,0.7265592201805524,0.07251015988736803,0.2584907717122143
299,0,"{'mean': 0.29999999999999999, 'sd': 0.37}",0.5,0,0.43707704544067383,1,"(0, 3)",299,0,True,False,True,False,False,True,0.10052719154610551,0.501460997736269,0.017929423690729175,0.17958900551574933,0.6140101089584107,0.0452197917890486,0.3792453858561071
300,0,"{'mean': -0.29999999999999999, 'sd': 0.37}",0.7,0,0.36470794677734375,0,"(0, 3)",300,1,True,True,True,False,False,False,0.044449546858264494,0.2951069574554525,0.005969797907485497,0.11201927618700691,0.4545585332069316,0.025594794848267047,0.5396226929280535
301,0,"{'mean': -0.29999999999999999, 'sd': 0.37}",-0.10000000000000009,0,0.7745671272277832,0,"(0, 3)",301,1,True,False,True,False,False,False,0.6078481866369821,0.14692208625455871,0.15355650500303458,0.35993373141199453,0.30074030973074517,0.08957564992565081,0.21981134646402672
302,0,"{'mean': -0.29999999999999999, 'sd': 0.37}",-0.7000000000000001,3,0.8321919441223145,0,"(0, 3)",302,1,False,False,False,True,True,True,0.9555504531417355,0.7048930425445474,0.8604185460848203,0.657742092276865,0.5028166761376462,0.47499709800523554,-0.24009432676798667
303,0,"{'mean': -0.29999999999999999, 'sd': 0.37}",-0.5,2,0.7230010032653809,0,"(1, 2)",303,1,False,False,False,True,False,True,0.8994728084538944,0.9877342777284374,0.970866432836362,0.7786074503653797,0.7452754769330419,0.7229317654207987,-0.37004716338399335
304,0,"{'mean': -0.29999999999999999, 'sd': 0.37}",-0.10000000000000009,3,0.446835994720459,0,"(1, 3)",304,1,False,False,False,True,False,True,0.6078481866369821,0.933111690027748,0.9168087839003325,0.6932278185011809,0.839193583480395,0.8198702746605656,-0.23502358169199672
305,0,"{'mean': -0.29999999999999999, 'sd': 0.37}",-0.10000000000000009,2,0.45827794075012207,0,"(1, 2)",305,1,False,False,False,True,False,True,0.6078481866369821,0.933111690027748,0.8857992869183562,0.6505380025690815,0.8861526367540715,0.852834780789461,-0.1675117908459984
306,0,"{'mean': 0.29999999999999999, 'sd': 0.37}",0.10000000000000009,3,0.5034229755401611,1,"(1, 3)",306,0,False,True,False,True,False,False,0.39215181336301785,0.8530779137454413,0.7316318175076626,0.5213449079660497,0.8696152752497563,0.7922332991485618,-0.03375589542299916
307,0,"{'mean': 0.29999999999999999, 'sd': 0.37}",0.5,0,0.5680370330810547,1,"(0, 2)",307,0,False,False,True,False,True,True,0.10052719154610551,0.501460997736269,0.19574267093980335,0.3109360497560776,0.6855381364930127,0.49398798504418256,0.23312205228850041
308,0,"{'mean': 0.29999999999999999, 'sd': 0.37}",0.8999999999999999,0,0.41194605827331543,1,"(0, 2)",308,0,True,False,True,False,False,True,0.018993448657483984,0.14839306884368392,0.006638348616497599,0.16496474920678078,0.41696560266834826,0.2503131668303401,0.5665610261442502
309,0,"{'mean': 0.29999999999999999, 'sd': 0.37}",0.30000000000000004,1,0.3831140995025635,1,"(1, 3)",309,0,False,False,True,False,False,True,0.21168000944053236,0.028971227448835405,0.03063820819059155,0.18832237932365659,0.22296841505859183,0.14047568751046582,0.4332805130721251
310,0,"{'mean': 0.29999999999999999, 'sd': 0.37}",0.5,1,0.7728610038757324,1,"(1, 3)",310,0,True,False,True,False,False,True,0.10052719154610551,0.012265722271562569,0.01564595729486731,0.14442478543488105,0.11761706866507719,0.07806082240266657,0.46664025653606256
311,0,"{'mean': 0.29999999999999999, 'sd': 0.37}",-0.30000000000000004,1,1.3244900703430176,1,"(1, 3)",311,0,True,False,True,False,False,True,0.7883199905594676,0.29268146624944924,0.32072128478303,0.4663723879971743,0.20514926745726322,0.1993910535928483,0.08332012826803126
312,0,"{'mean': 0.29999999999999999, 'sd': 0.37}",0.30000000000000004,1,0.822221040725708,1,"(1, 3)",312,0,True,False,True,False,False,True,0.21168000944053236,0.028971227448835405,0.12953455571095443,0.3390261987188533,0.11706024745304931,0.16446280465190138,0.19166006413401565
313,0,"{'mean': 0.29999999999999999, 'sd': 0.37}",-0.10000000000000009,0,0.5617070198059082,1,"(0, 2)",313,0,False,False,True,False,False,True,0.6078481866369821,0.14692208625455871,0.28383902735629973,0.47343719267791773,0.13199116685380402,0.22415091600410056,0.04583003206700778
314,0,"{'mean': 0.29999999999999999, 'sd': 0.37}",0.30000000000000004,0,0.45118093490600586,1,"(0, 2)",314,0,True,False,True,False,False,True,0.21168000944053236,0.028971227448835405,0.11544505925848986,0.34255860105922503,0.08048119715131971,0.16979798763129522,0.1729150160335039
315,0,"{'mean': 0.29999999999999999, 'sd': 0.37}",0.5,0,0.46445703506469727,1,"(1, 2)",315,0,True,False,False,False,True,False,0.10052719154610551,0.012265722271562569,0.025928200705895646,0.22154289630266527,0.04637345971144114,0.09786309416859543,0.33645750801675195
316,0,"{'mean': 0.29999999999999999, 'sd': 0.37}",0.5,0,0.38268017768859863,1,"(1, 2)",316,0,True,False,False,False,False,False,0.10052719154610551,0.012265722271562569,0.015115590010464527,0.1610350439243854,0.029319590991501856,0.05648934208952998,0.418228754008376
317,0,"{'mean': 0.29999999999999999, 'sd': 0.37}",-0.7000000000000001,3,0.7926909923553467,1,"(0, 3)",317,0,False,False,False,True,False,False,0.9555504531417355,0.7048930425445474,0.7307417914938475,0.5582927485330604,0.36710631676802463,0.39361556679168874,-0.14088562299581203
318,0,"{'mean': 0.29999999999999999, 'sd': 0.37}",0.8999999999999999,0,0.9504320621490479,1,"(0, 3)",318,0,False,False,True,False,True,True,0.018993448657483984,0.14839306884368392,0.04032889618757879,0.2886430985952722,0.25774969280585425,0.21697223148963377,0.37955718850209397
319,0,"{'mean': 0.29999999999999999, 'sd': 0.37}",0.5,1,0.7750101089477539,1,"(1, 3)",319,0,False,False,True,False,False,True,0.10052719154610551,0.012265722271562569,0.01674982367102654,0.19458514507068886,0.13500770753870842,0.11686102758033015,0.439778594251047
320,0,"{'mean': 0.29999999999999999, 'sd': 0.37}",0.5,1,0.5460050106048584,1,"(1, 3)",320,0,True,False,True,False,False,True,0.10052719154610551,0.012265722271562569,0.01409340718959848,0.14755616830839718,0.07363671490513549,0.06547721738496431,0.4698892971255235
321,0,"{'mean': 0.29999999999999999, 'sd': 0.37}",0.30000000000000004,0,0.5512380599975586,1,"(1, 2)",321,0,False,False,False,False,True,False,0.21168000944053236,0.028971227448835405,0.032527083468469456,0.1796180888744648,0.051303971176985444,0.049002150426716885,0.3849446485627618
322,0,"{'mean': 0.29999999999999999, 'sd': 0.37}",-0.10000000000000009,1,0.8937718868255615,1,"(1, 3)",322,0,False,False,True,False,True,True,0.6078481866369821,0.14692208625455871,0.18267538439491285,0.3937331377557235,0.09911302871577207,0.11583876741081486,0.14247232428138085
323,0,"{'mean': 0.29999999999999999, 'sd': 0.37}",0.30000000000000004,1,0.615710973739624,1,"(1, 3)",323,0,True,False,True,False,False,True,0.21168000944053236,0.028971227448835405,0.08060665139648562,0.3027065735981279,0.06404212808230374,0.09822270940365024,0.22123616214069045
324,0,"{'mean': 0.29999999999999999, 'sd': 0.37}",0.7,0,0.6246979236602783,1,"(0, 3)",324,0,False,False,True,False,False,True,0.044449546858264494,0.005142002709015806,0.009074605128503587,0.17357806022819622,0.034592065395659774,0.05364865726607691,0.4606180810703452
325,0,"{'mean': 0.29999999999999999, 'sd': 0.37}",0.7,0,0.3629729747772217,1,"(0, 3)",325,0,True,False,True,False,False,True,0.044449546858264494,0.005142002709015806,0.005557821788541182,0.10901380354323036,0.01986703405233779,0.029603239527309047,0.5803090405351725
326,0,"{'mean': 0.29999999999999999, 'sd': 0.37}",-0.30000000000000004,2,0.7141790390014648,1,"(0, 2)",326,0,False,False,False,True,True,False,0.7883199905594676,0.29268146624944924,0.3028123621022845,0.44866689705134893,0.15627425015089352,0.16620780081479677,0.14015452026758624
327,0,"{'mean': 0.29999999999999999, 'sd': 0.37}",-0.10000000000000009,3,1.0501301288604736,1,"(1, 3)",327,0,False,False,False,True,False,False,0.6078481866369821,0.14692208625455871,0.44645416134003396,0.5282575418441655,0.15159816820272612,0.30633098107741535,0.020077260133793073
328,0,"{'mean': 0.29999999999999999, 'sd': 0.37}",0.5,1,0.7135570049285889,1,"(1, 2)",328,0,False,False,True,False,True,True,0.10052719154610551,0.012265722271562569,0.08602633143332941,0.3143923666951355,0.08193194523714434,0.1961786562553724,0.26003863006689654
330,0,"{'mean': 0.29999999999999999, 'sd': 0.37}",0.10000000000000009,1,0.8313047885894775,1,"(1, 3)",330,0,True,False,True,False,False,True,0.39215181336301785,0.06688830997225197,0.1158549820403364,0.35327209002907667,0.07441012760469815,0.1560168191478544,0.1800193150334483
331,0,"{'mean': 0.29999999999999999, 'sd': 0.37}",0.30000000000000004,0,0.7246859073638916,1,"(0, 3)",331,0,False,False,True,False,False,True,0.21168000944053236,0.028971227448835405,0.06022844567305239,0.2824760497348045,0.05169067752676677,0.10812263241045339,0.24000965751672418
332,0,"{'mean': 0.29999999999999999, 'sd': 0.37}",0.7,1,0.5985119342803955,1,"(1, 2)",332,0,False,False,True,False,False,True,0.044449546858264494,0.005142002709015806,0.00802721168738142,0.16346279829653448,0.02841634011789129,0.058074922048917406,0.4700048287583621
333,0,"{'mean': -0.29999999999999999, 'sd': 0.37}",-0.30000000000000004,3,1.2420940399169922,0,"(1, 3)",333,1,False,True,False,True,True,True,0.7883199905594676,0.29268146624944924,0.3072525640152484,0.475891394428001,0.16054890318367027,0.1826637430320829,0.08500241437918102
334,0,"{'mean': -0.29999999999999999, 'sd': 0.37}",0.30000000000000004,1,0.9174401760101318,0,"(1, 3)",334,1,False,False,True,False,True,False,0.21168000944053236,0.028971227448835405,0.12429496596388322,0.34378570193426666,0.09476006531625283,0.15347935449798306,0.19250120718959052
335,0,"{'mean': -0.29999999999999999, 'sd': 0.37}",-0.30000000000000004,0,1.2218799591064453,0,"(1, 2)",335,1,False,False,False,False,True,False,0.7883199905594676,0.29268146624944924,0.4812600510637401,0.5660528462468671,0.19372076578285102,0.3173697027808616,-0.053749396405204763
336,0,"{'mean': -0.29999999999999999, 'sd': 0.37}",-0.9000000000000001,3,1.0366718769073486,0,"(0, 3)",336,1,False,False,False,True,False,True,0.981006551342516,0.8516069311563164,0.9798560012516175,0.7735296987946916,0.5226638484695837,0.6486128520162395,-0.4768746982026024
337,0,"{'mean': 0.29999999999999999, 'sd': 0.37}",0.8999999999999999,1,0.9310879707336426,1,"(1, 2)",337,0,False,True,True,False,True,True,0.018993448657483984,0.14839306884368392,0.12844915275409602,0.3962615737260878,0.33552845865663383,0.3885310023851678,0.21156265089869875
338,0,"{'mean': 0.29999999999999999, 'sd': 0.37}",0.10000000000000009,0,0.6275629997253418,1,"(0, 2)",338,0,False,False,True,False,False,True,0.39215181336301785,0.06688830997225197,0.14095107205731244,0.39420669354455284,0.2012083843144429,0.2647410372212401,0.15578132544934942
339,0,"{'mean': 0.29999999999999999, 'sd': 0.37}",0.10000000000000009,0,0.5056321620941162,1,"(0, 2)",339,0,True,False,True,False,False,True,0.39215181336301785,0.06688830997225197,0.1484715718360876,0.39317925345378535,0.13404834714334743,0.20660630452866385,0.12789066272467475
340,0,"{'mean': -0.29999999999999999, 'sd': 0.37}",-0.5,2,1.1408319473266602,0,"(1, 2)",340,1,False,True,False,True,True,True,0.8994728084538944,0.498539002263731,0.7147515371618051,0.6463260309538399,0.3162936747035392,0.46067892084523443,-0.18605466863766262
341,0,"{'mean': -0.29999999999999999, 'sd': 0.37}",-0.9000000000000001,3,0.8831889629364014,0,"(0, 3)",341,1,False,False,False,True,False,True,0.981006551342516,0.8516069311563164,0.9906300008666072,0.813666291148178,0.5839503029299278,0.7256544608559208,-0.5430273343188314
342,0,"{'mean': -0.29999999999999999, 'sd': 0.37}",-0.5,2,1.2497589588165283,0,"(0, 2)",342,1,False,False,False,True,False,True,0.8994728084538944,0.9877342777284374,0.9867177822573183,0.8565695498010362,0.7858422903291826,0.8561861215566196,-0.5215136671594157
343,0,"{'mean': -0.29999999999999999, 'sd': 0.37}",-0.9000000000000001,3,0.5684239864349365,0,"(1, 2)",343,1,False,False,False,False,False,False,0.981006551342516,0.9978533752089411,0.9975975239570053,0.918788050571776,0.8918478327690619,0.9268918227568124,-0.7107568335797079
344,0,"{'mean': -0.29999999999999999, 'sd': 0.37}",-1.0,3,0.6699681282043457,0,"(1, 2)",344,1,True,False,False,False,False,False,0.9876632737913976,0.9986140543932752,0.9985844356952106,0.9532256621815869,0.9452309435811685,0.9627381292260115,-0.8553784167898539
345,0,"{'mean': -0.29999999999999999, 'sd': 0.37}",-0.5,2,0.4828779697418213,0,"(0, 2)",345,1,False,False,False,True,False,True,0.8994728084538944,0.9877342777284374,0.9875816652541121,0.9263492353177407,0.966482610654803,0.9751598972400618,-0.677689208394927
346,0,"{'mean': -0.29999999999999999, 'sd': 0.37}",-0.5,3,1.1410529613494873,0,"(1, 3)",346,1,False,False,False,True,False,True,0.8994728084538944,0.9877342777284374,0.9863838524942096,0.9129110218858176,0.9771084441916202,0.9807718748671357,-0.5888446041974635
348,0,"{'mean': -0.29999999999999999, 'sd': 0.37}",0.5,2,1.2689199447631836,0,"(0, 2)",348,1,False,False,False,True,False,True,0.10052719154610551,0.501460997736269,0.4725955102331713,0.5067191067159615,0.7392847209639446,0.7266836925501535,-0.04442230209873177
349,0,"{'mean': -0.29999999999999999, 'sd': 0.37}",-0.30000000000000004,3,0.6851861476898193,0,"(0, 3)",349,1,False,False,False,True,False,True,0.7883199905594676,0.9710287725511645,0.7733066959431125,0.6475195486377145,0.8551567467575545,0.749995194246633,-0.1722111510493659
350,0,"{'mean': -0.29999999999999999, 'sd': 0.37}",-0.30000000000000004,3,1.1150729656219482,0,"(0, 3)",350,1,True,False,False,True,False,True,0.7883199905594676,0.9710287725511645,0.9048728813966768,0.717919769598591,0.9130927596543594,0.8274340378216549,-0.23610557552468298
351,0,"{'mean': -0.29999999999999999, 'sd': 0.37}",-0.5,3,0.9551160335540771,0,"(1, 3)",351,1,True,False,False,True,False,True,0.8994728084538944,0.9877342777284374,0.9766690269313635,0.8086962890262428,0.9504135186913985,0.9020515323765093,-0.3680527877623415
352,0,"{'mean': -0.29999999999999999, 'sd': 0.37}",-0.5,2,0.7527990341186523,0,"(0, 2)",352,1,False,False,False,True,False,True,0.8994728084538944,0.9877342777284374,0.9851751715937918,0.8540845487400686,0.9690738982099179,0.9436133519851505,-0.43402639388117076
353,0,"{'mean': -0.29999999999999999, 'sd': 0.37}",-0.5,3,0.6396200656890869,0,"(1, 3)",353,1,False,False,False,True,False,True,0.8994728084538944,0.9877342777284374,0.9861190987194677,0.8767786785969816,0.9784040879691775,0.964866225352309,-0.4670131969405854
354,0,"{'mean': -0.29999999999999999, 'sd': 0.37}",-1.0,2,0.6878128051757812,0,"(0, 2)",354,1,False,False,False,True,False,True,0.9876632737913976,0.9986140543932752,0.9984411819680193,0.9322209761941895,0.9885090711812263,0.9816537036601642,-0.7335065984702926
355,0,"{'mean': -0.29999999999999999, 'sd': 0.37}",-0.5,2,0.9207861423492432,0,"(1, 2)",355,1,True,False,False,True,False,True,0.8994728084538944,0.9877342777284374,0.9875662022227455,0.9158468923240419,0.9881216744548318,0.9846099529414549,-0.6167532992351463
356,0,"{'mean': -0.29999999999999999, 'sd': 0.37}",-0.10000000000000009,3,0.7583091259002686,0,"(0, 3)",356,1,False,False,False,True,False,True,0.6078481866369821,0.933111690027748,0.9261881630886666,0.761847539480512,0.9606166822412898,0.9553990580150608,-0.3583766496175732
357,0,"{'mean': -0.29999999999999999, 'sd': 0.37}",-1.0,3,0.6759419441223145,0,"(0, 3)",357,1,True,False,False,True,False,True,0.9876632737913976,0.9986140543932752,0.9976431712250852,0.8747554066359549,0.9796153683172826,0.976521114620073,-0.6791883248087867
358,0,"{'mean': -0.29999999999999999, 'sd': 0.37}",-0.10000000000000009,3,0.5151898860931396,0,"(1, 3)",358,1,True,False,False,True,False,True,0.6078481866369821,0.933111690027748,0.931803229194863,0.7413017966364686,0.9563635291725152,0.954162171907468,-0.3895941624043934
359,0,"{'mean': -0.29999999999999999, 'sd': 0.37}",-0.7000000000000001,2,0.4096980094909668,0,"(0, 2)",359,1,False,False,False,True,False,True,0.9555504531417355,0.9948579972909842,0.9915677814629362,0.8484261248891021,0.9756107632317497,0.9728649766852021,-0.5447970812021967
360,0,"{'mean': 0.29999999999999999, 'sd': 0.37}",-0.10000000000000009,2,0.3675990104675293,1,"(0, 2)",360,0,True,True,False,True,False,False,0.6078481866369821,0.933111690027748,0.9284219111540378,0.728137155763042,0.9543612266297488,0.95064344391962,-0.3223985406010984
361,0,"{'mean': 0.29999999999999999, 'sd': 0.37}",0.30000000000000004,2,0.4422469139099121,1,"(1, 2)",361,0,True,False,False,True,False,False,0.21168000944053236,0.7073185337505506,0.5899868495534587,0.4699085826017872,0.8308398801901498,0.7703151467365393,-0.01119927030054918
362,0,"{'mean': 0.29999999999999999, 'sd': 0.37}",-0.10000000000000009,3,0.42897510528564453,1,"(0, 3)",362,0,False,False,False,True,False,False,0.6078481866369821,0.933111690027748,0.6744208963851765,0.5388783846193846,0.8819757851089489,0.7223680215608579,-0.055599635150274634
363,0,"{'mean': 0.29999999999999999, 'sd': 0.37}",0.30000000000000004,3,0.688791036605835,1,"(0, 3)",363,0,True,False,False,True,False,False,0.21168000944053236,0.7073185337505506,0.3226818154626779,0.3752791970299585,0.7946471594297497,0.5225249185117679,0.1222001824248627
364,0,"{'mean': 0.29999999999999999, 'sd': 0.37}",0.30000000000000004,0,0.7528080940246582,1,"(1, 2)",364,0,False,False,False,False,False,False,0.21168000944053236,0.7073185337505506,0.13030657024328365,0.2934796032352454,0.7509828465901502,0.32641574437752574,0.21110009121243137
365,0,"{'mean': 0.29999999999999999, 'sd': 0.37}",0.5,1,0.9396710395812988,1,"(1, 3)",365,0,False,False,True,False,True,True,0.10052719154610551,0.501460997736269,0.027885951785523343,0.19700339739067546,0.6262219221632096,0.17715084808152454,0.35555004560621567
366,0,"{'mean': 0.29999999999999999, 'sd': 0.37}",0.10000000000000009,0,0.828495979309082,1,"(0, 2)",366,0,False,False,True,False,False,True,0.39215181336301785,0.8530779137454413,0.08248728315367206,0.29457760537684663,0.7396499179543254,0.1298190656175983,0.22777502280310788
367,0,"{'mean': 0.29999999999999999, 'sd': 0.37}",0.10000000000000009,1,0.6055119037628174,1,"(1, 2)",367,0,False,False,True,False,False,True,0.39215181336301785,0.8530779137454413,0.11379041186790244,0.34336470936993224,0.7963639158498834,0.12180473874275036,0.163887511401554
