trial_count,FBDuration,c_dis,context,response,rt,state,stim,trial_count,ts,rep_resp,switch,con_shape,con_orient,subj_switch,correct
1,0,"{'mean': -0.29999999999999999, 'sd': 0.37}",-0.30000000000000004,0,0.8671178817749023,0,"(0, 2)",1,0,False,False,True,False,True,True
2,0,"{'mean': -0.29999999999999999, 'sd': 0.37}",0.10000000000000009,2,0.48438501358032227,0,"(1, 3)",2,0,False,False,False,False,True,False
3,0,"{'mean': -0.29999999999999999, 'sd': 0.37}",0.10000000000000009,3,0.49134397506713867,0,"(0, 3)",3,0,False,False,False,True,False,False
4,0,"{'mean': -0.29999999999999999, 'sd': 0.37}",-0.30000000000000004,3,0.6940610408782959,0,"(0, 2)",4,0,True,False,False,False,False,False
5,0,"{'mean': -0.29999999999999999, 'sd': 0.37}",-0.9000000000000001,3,0.3232131004333496,0,"(0, 2)",5,0,True,False,False,False,False,False
6,0,"{'mean': -0.29999999999999999, 'sd': 0.37}",-0.30000000000000004,3,0.3876512050628662,0,"(0, 3)",6,0,True,False,False,True,False,False
7,0,"{'mean': -0.29999999999999999, 'sd': 0.37}",-0.5,3,0.33208799362182617,0,"(1, 2)",7,0,True,False,False,False,False,False
8,0,"{'mean': 0.29999999999999999, 'sd': 0.37}",-0.10000000000000009,2,0.399432897567749,1,"(0, 3)",8,1,False,True,False,False,False,False
9,0,"{'mean': 0.29999999999999999, 'sd': 0.37}",-0.30000000000000004,2,0.3450958728790283,1,"(1, 3)",9,1,True,False,False,False,False,False
10,0,"{'mean': 0.29999999999999999, 'sd': 0.37}",0.8999999999999999,3,0.45099401473999023,1,"(1, 3)",10,1,False,False,False,True,False,True
11,0,"{'mean': 0.29999999999999999, 'sd': 0.37}",0.5,2,0.2924001216888428,1,"(1, 3)",11,1,False,False,False,False,False,False
12,0,"{'mean': 0.29999999999999999, 'sd': 0.37}",0.30000000000000004,3,0.5235409736633301,1,"(1, 2)",12,1,False,False,False,False,False,False
13,0,"{'mean': 0.29999999999999999, 'sd': 0.37}",0.30000000000000004,3,0.3672220706939697,1,"(1, 3)",13,1,True,False,False,True,False,True
14,0,"{'mean': 0.29999999999999999, 'sd': 0.37}",0.7,2,0.313737154006958,1,"(1, 3)",14,1,False,False,False,False,False,False
15,0,"{'mean': 0.29999999999999999, 'sd': 0.37}",0.7,2,0.5569179058074951,1,"(1, 2)",15,1,True,False,False,True,False,True
16,0,"{'mean': 0.29999999999999999, 'sd': 0.37}",0.7,3,0.4997680187225342,1,"(1, 3)",16,1,False,False,False,True,False,True
17,0,"{'mean': 0.29999999999999999, 'sd': 0.37}",0.30000000000000004,3,0.44616198539733887,1,"(1, 3)",17,1,True,False,False,True,False,True
18,0,"{'mean': 0.29999999999999999, 'sd': 0.37}",0.10000000000000009,3,0.44597387313842773,1,"(0, 3)",18,1,True,False,False,True,False,True
19,0,"{'mean': 0.29999999999999999, 'sd': 0.37}",0.30000000000000004,2,0.5036239624023438,1,"(0, 2)",19,1,False,False,False,True,False,True
20,0,"{'mean': 0.29999999999999999, 'sd': 0.37}",0.10000000000000009,2,0.32854604721069336,1,"(0, 2)",20,1,True,False,False,True,False,True
21,0,"{'mean': 0.29999999999999999, 'sd': 0.37}",0.10000000000000009,3,1.1691029071807861,1,"(1, 3)",21,1,False,False,False,True,False,True
22,0,"{'mean': 0.29999999999999999, 'sd': 0.37}",0.7,2,1.2036378383636475,1,"(0, 2)",22,1,False,False,False,True,False,True
23,0,"{'mean': 0.29999999999999999, 'sd': 0.37}",0.10000000000000009,2,0.602773904800415,1,"(1, 2)",23,1,True,False,False,True,False,True
24,0,"{'mean': 0.29999999999999999, 'sd': 0.37}",-0.5,2,0.36966896057128906,1,"(1, 2)",24,1,True,False,False,True,False,True
25,0,"{'mean': 0.29999999999999999, 'sd': 0.37}",0.7,3,0.32944297790527344,1,"(1, 3)",25,1,False,False,False,True,False,True
26,0,"{'mean': 0.29999999999999999, 'sd': 0.37}",1.0,2,0.41077113151550293,1,"(0, 2)",26,1,False,False,False,True,False,True
27,0,"{'mean': 0.29999999999999999, 'sd': 0.37}",0.7,3,0.6010329723358154,1,"(0, 3)",27,1,False,False,False,True,False,True
28,0,"{'mean': 0.29999999999999999, 'sd': 0.37}",-0.30000000000000004,2,0.5519211292266846,1,"(0, 2)",28,1,False,False,False,True,False,True
29,0,"{'mean': 0.29999999999999999, 'sd': 0.37}",-0.5,1,0.4567680358886719,1,"(1, 3)",29,1,False,False,True,False,True,False
30,0,"{'mean': 0.29999999999999999, 'sd': 0.37}",0.5,0,0.29746198654174805,1,"(0, 3)",30,1,False,False,True,False,False,False
31,0,"{'mean': 0.29999999999999999, 'sd': 0.37}",-0.30000000000000004,2,0.32152700424194336,1,"(1, 3)",31,1,False,False,False,False,True,False
32,0,"{'mean': 0.29999999999999999, 'sd': 0.37}",0.7,3,0.548058032989502,1,"(0, 2)",32,1,False,False,False,False,False,False
33,0,"{'mean': 0.29999999999999999, 'sd': 0.37}",1.0,3,0.5974640846252441,1,"(0, 3)",33,1,True,False,False,True,False,True
34,0,"{'mean': -0.29999999999999999, 'sd': 0.37}",-0.10000000000000009,2,0.5336380004882812,0,"(1, 3)",34,0,False,True,False,False,False,False
35,0,"{'mean': -0.29999999999999999, 'sd': 0.37}",0.10000000000000009,2,0.29462599754333496,0,"(0, 2)",35,0,True,False,False,True,False,False
36,0,"{'mean': -0.29999999999999999, 'sd': 0.37}",-0.5,3,0.571768045425415,0,"(0, 3)",36,0,False,False,False,True,False,False
37,0,"{'mean': -0.29999999999999999, 'sd': 0.37}",-0.10000000000000009,3,0.8518261909484863,0,"(1, 3)",37,0,True,False,False,True,False,False
38,0,"{'mean': -0.29999999999999999, 'sd': 0.37}",-0.30000000000000004,3,0.3963479995727539,0,"(0, 3)",38,0,True,False,False,True,False,False
39,0,"{'mean': -0.29999999999999999, 'sd': 0.37}",0.10000000000000009,3,0.45667290687561035,0,"(1, 3)",39,0,True,False,False,True,False,False
40,0,"{'mean': -0.29999999999999999, 'sd': 0.37}",-0.30000000000000004,3,0.4136669635772705,0,"(1, 3)",40,0,True,False,False,True,False,False
41,0,"{'mean': -0.29999999999999999, 'sd': 0.37}",0.10000000000000009,2,0.34233784675598145,0,"(0, 2)",41,0,False,False,False,True,False,False
42,0,"{'mean': 0.29999999999999999, 'sd': 0.37}",-0.10000000000000009,3,0.4558749198913574,1,"(0, 3)",42,1,False,True,False,True,False,True
43,0,"{'mean': 0.29999999999999999, 'sd': 0.37}",0.10000000000000009,3,0.32062387466430664,1,"(0, 3)",43,1,True,False,False,True,False,True
44,0,"{'mean': 0.29999999999999999, 'sd': 0.37}",0.30000000000000004,3,0.3765861988067627,1,"(0, 3)",44,1,True,False,False,True,False,True
45,0,"{'mean': 0.29999999999999999, 'sd': 0.37}",0.10000000000000009,2,0.47240614891052246,1,"(0, 2)",45,1,False,False,False,True,False,True
46,0,"{'mean': 0.29999999999999999, 'sd': 0.37}",0.10000000000000009,2,0.2606379985809326,1,"(0, 2)",46,1,True,False,False,True,False,True
47,0,"{'mean': 0.29999999999999999, 'sd': 0.37}",0.30000000000000004,3,0.4840810298919678,1,"(1, 3)",47,1,False,False,False,True,False,True
48,0,"{'mean': 0.29999999999999999, 'sd': 0.37}",0.5,3,0.2719118595123291,1,"(1, 3)",48,1,True,False,False,True,False,True
49,0,"{'mean': 0.29999999999999999, 'sd': 0.37}",0.30000000000000004,3,0.2937610149383545,1,"(1, 3)",49,1,True,False,False,True,False,True
50,0,"{'mean': 0.29999999999999999, 'sd': 0.37}",0.30000000000000004,2,0.31185007095336914,1,"(1, 2)",50,1,False,False,False,True,False,True
51,0,"{'mean': -0.29999999999999999, 'sd': 0.37}",0.30000000000000004,2,0.3305931091308594,0,"(0, 2)",51,0,True,True,False,True,False,False
52,0,"{'mean': -0.29999999999999999, 'sd': 0.37}",0.10000000000000009,3,0.4563939571380615,0,"(0, 3)",52,0,False,False,False,True,False,False
53,0,"{'mean': -0.29999999999999999, 'sd': 0.37}",-0.5,3,0.3844411373138428,0,"(0, 3)",53,0,True,False,False,True,False,False
54,0,"{'mean': -0.29999999999999999, 'sd': 0.37}",0.30000000000000004,3,0.4094090461730957,0,"(0, 3)",54,0,True,False,False,True,False,False
55,0,"{'mean': -0.29999999999999999, 'sd': 0.37}",-0.30000000000000004,3,0.3369169235229492,0,"(0, 3)",55,0,True,False,False,True,False,False
56,0,"{'mean': 0.29999999999999999, 'sd': 0.37}",0.10000000000000009,3,0.41556596755981445,1,"(1, 3)",56,1,True,True,False,True,False,True
57,0,"{'mean': 0.29999999999999999, 'sd': 0.37}",0.5,2,0.5067520141601562,1,"(1, 2)",57,1,False,False,False,True,False,True
58,0,"{'mean': 0.29999999999999999, 'sd': 0.37}",-0.30000000000000004,3,0.6542708873748779,1,"(1, 3)",58,1,False,False,False,True,False,True
59,0,"{'mean': -0.29999999999999999, 'sd': 0.37}",-0.30000000000000004,3,0.35524606704711914,0,"(0, 3)",59,0,True,True,False,True,False,False
60,0,"{'mean': -0.29999999999999999, 'sd': 0.37}",-0.7000000000000001,3,0.33292198181152344,0,"(1, 2)",60,0,True,False,False,False,False,False
61,0,"{'mean': -0.29999999999999999, 'sd': 0.37}",-0.30000000000000004,2,0.39955997467041016,0,"(0, 2)",61,0,False,False,False,True,False,False
62,0,"{'mean': -0.29999999999999999, 'sd': 0.37}",0.10000000000000009,3,0.5505979061126709,0,"(1, 3)",62,0,False,False,False,True,False,False
63,0,"{'mean': -0.29999999999999999, 'sd': 0.37}",0.10000000000000009,3,0.6232190132141113,0,"(1, 2)",63,0,True,False,False,False,False,False
64,0,"{'mean': 0.29999999999999999, 'sd': 0.37}",0.30000000000000004,3,0.49039602279663086,1,"(0, 2)",64,1,True,True,False,False,False,False
65,0,"{'mean': -0.29999999999999999, 'sd': 0.37}",-0.10000000000000009,3,0.472257137298584,0,"(1, 3)",65,0,True,True,False,True,False,False
66,0,"{'mean': -0.29999999999999999, 'sd': 0.37}",-0.5,2,0.4086160659790039,0,"(1, 2)",66,0,False,False,False,True,False,False
67,0,"{'mean': -0.29999999999999999, 'sd': 0.37}",-0.5,2,0.348862886428833,0,"(0, 2)",67,0,True,False,False,True,False,False
68,0,"{'mean': 0.29999999999999999, 'sd': 0.37}",-0.10000000000000009,2,0.320404052734375,1,"(0, 2)",68,1,True,True,False,True,False,True
69,0,"{'mean': 0.29999999999999999, 'sd': 0.37}",0.5,3,0.3863790035247803,1,"(1, 3)",69,1,False,False,False,True,False,True
70,0,"{'mean': 0.29999999999999999, 'sd': 0.37}",0.7,2,0.4213731288909912,1,"(0, 2)",70,1,False,False,False,True,False,True
71,0,"{'mean': 0.29999999999999999, 'sd': 0.37}",0.30000000000000004,3,0.40663599967956543,1,"(0, 3)",71,1,False,False,False,True,False,True
72,0,"{'mean': 0.29999999999999999, 'sd': 0.37}",0.5,2,0.3004939556121826,1,"(1, 2)",72,1,False,False,False,True,False,True
73,0,"{'mean': 0.29999999999999999, 'sd': 0.37}",0.5,3,1.2203469276428223,1,"(1, 3)",73,1,False,False,False,True,False,True
74,0,"{'mean': 0.29999999999999999, 'sd': 0.37}",0.10000000000000009,2,0.4823470115661621,1,"(1, 2)",74,1,False,False,False,True,False,True
75,0,"{'mean': 0.29999999999999999, 'sd': 0.37}",0.7,3,0.19652390480041504,1,"(0, 3)",75,1,False,False,False,True,False,True
76,0,"{'mean': 0.29999999999999999, 'sd': 0.37}",0.30000000000000004,2,0.3818960189819336,1,"(1, 3)",76,1,False,False,False,False,False,False
77,0,"{'mean': 0.29999999999999999, 'sd': 0.37}",0.7,2,0.3747279644012451,1,"(1, 2)",77,1,True,False,False,True,False,True
78,0,"{'mean': 0.29999999999999999, 'sd': 0.37}",0.8999999999999999,2,0.4566781520843506,1,"(0, 2)",78,1,True,False,False,True,False,True
79,0,"{'mean': -0.29999999999999999, 'sd': 0.37}",-0.30000000000000004,3,0.49295616149902344,0,"(0, 3)",79,0,False,True,False,True,False,False
80,0,"{'mean': 0.29999999999999999, 'sd': 0.37}",0.10000000000000009,3,0.3473019599914551,1,"(0, 3)",80,1,True,True,False,True,False,True
81,0,"{'mean': 0.29999999999999999, 'sd': 0.37}",0.30000000000000004,2,0.3656611442565918,1,"(1, 2)",81,1,False,False,False,True,False,True
82,0,"{'mean': -0.29999999999999999, 'sd': 0.37}",-0.5,2,0.2984731197357178,0,"(1, 2)",82,0,True,True,False,True,False,False
83,0,"{'mean': -0.29999999999999999, 'sd': 0.37}",-0.5,2,0.33046507835388184,0,"(0, 2)",83,0,True,False,False,True,False,False
84,0,"{'mean': -0.29999999999999999, 'sd': 0.37}",-0.5,2,0.29308390617370605,0,"(0, 2)",84,0,True,False,False,True,False,False
85,0,"{'mean': -0.29999999999999999, 'sd': 0.37}",-0.10000000000000009,2,0.301846981048584,0,"(1, 2)",85,0,True,False,False,True,False,False
86,0,"{'mean': -0.29999999999999999, 'sd': 0.37}",-0.5,2,0.29221200942993164,0,"(0, 2)",86,0,True,False,False,True,False,False
87,0,"{'mean': -0.29999999999999999, 'sd': 0.37}",-0.30000000000000004,3,0.3163018226623535,0,"(1, 3)",87,0,False,False,False,True,False,False
88,0,"{'mean': -0.29999999999999999, 'sd': 0.37}",-0.30000000000000004,3,0.24333786964416504,0,"(0, 3)",88,0,True,False,False,True,False,False
89,0,"{'mean': -0.29999999999999999, 'sd': 0.37}",-0.30000000000000004,2,0.39159393310546875,0,"(1, 2)",89,0,False,False,False,True,False,False
90,0,"{'mean': -0.29999999999999999, 'sd': 0.37}",0.5,3,0.32750511169433594,0,"(1, 3)",90,0,False,False,False,True,False,False
91,0,"{'mean': -0.29999999999999999, 'sd': 0.37}",0.30000000000000004,2,0.5317380428314209,0,"(0, 3)",91,0,False,False,False,False,False,False
92,0,"{'mean': 0.29999999999999999, 'sd': 0.37}",0.7,2,0.29849696159362793,1,"(0, 2)",92,1,True,True,False,True,False,True
93,0,"{'mean': 0.29999999999999999, 'sd': 0.37}",0.8999999999999999,3,0.4180459976196289,1,"(0, 3)",93,1,False,False,False,True,False,True
94,0,"{'mean': 0.29999999999999999, 'sd': 0.37}",0.10000000000000009,2,0.3476879596710205,1,"(0, 2)",94,1,False,False,False,True,False,True
95,0,"{'mean': 0.29999999999999999, 'sd': 0.37}",-0.10000000000000009,3,0.3601219654083252,1,"(1, 2)",95,1,False,False,False,False,False,False
96,0,"{'mean': 0.29999999999999999, 'sd': 0.37}",0.10000000000000009,3,0.4425170421600342,1,"(1, 2)",96,1,True,False,False,False,False,False
97,0,"{'mean': 0.29999999999999999, 'sd': 0.37}",-0.30000000000000004,3,0.8839828968048096,1,"(0, 3)",97,1,True,False,False,True,False,True
98,0,"{'mean': 0.29999999999999999, 'sd': 0.37}",0.5,2,0.34410595893859863,1,"(1, 3)",98,1,False,False,False,False,False,False
99,0,"{'mean': 0.29999999999999999, 'sd': 0.37}",0.10000000000000009,2,0.30620813369750977,1,"(1, 3)",99,1,True,False,False,False,False,False
100,0,"{'mean': 0.29999999999999999, 'sd': 0.37}",0.30000000000000004,2,0.319288969039917,1,"(0, 2)",100,1,True,False,False,True,False,True
101,0,"{'mean': 0.29999999999999999, 'sd': 0.37}",-0.10000000000000009,3,0.2633969783782959,1,"(0, 2)",101,1,False,False,False,False,False,False
102,0,"{'mean': 0.29999999999999999, 'sd': 0.37}",0.8999999999999999,2,0.3635079860687256,1,"(0, 2)",102,1,False,False,False,True,False,True
103,0,"{'mean': -0.29999999999999999, 'sd': 0.37}",0.10000000000000009,3,0.31314682960510254,0,"(0, 3)",103,0,False,True,False,True,False,False
104,0,"{'mean': -0.29999999999999999, 'sd': 0.37}",0.10000000000000009,3,0.2972090244293213,0,"(0, 3)",104,0,True,False,False,True,False,False
105,0,"{'mean': -0.29999999999999999, 'sd': 0.37}",0.10000000000000009,2,0.4718048572540283,0,"(1, 2)",105,0,False,False,False,True,False,False
106,0,"{'mean': -0.29999999999999999, 'sd': 0.37}",-0.30000000000000004,2,0.45411086082458496,0,"(0, 3)",106,0,True,False,False,False,False,False
107,0,"{'mean': -0.29999999999999999, 'sd': 0.37}",-0.5,3,0.6172451972961426,0,"(0, 3)",107,0,False,False,False,True,False,False
108,0,"{'mean': -0.29999999999999999, 'sd': 0.37}",0.10000000000000009,2,0.4717729091644287,0,"(1, 2)",108,0,False,False,False,True,False,False
109,0,"{'mean': -0.29999999999999999, 'sd': 0.37}",-0.30000000000000004,3,0.3213069438934326,0,"(1, 2)",109,0,False,False,False,False,False,False
110,0,"{'mean': -0.29999999999999999, 'sd': 0.37}",-0.30000000000000004,3,0.5859808921813965,0,"(1, 3)",110,0,True,False,False,True,False,False
111,0,"{'mean': -0.29999999999999999, 'sd': 0.37}",-0.5,3,0.40622591972351074,0,"(0, 3)",111,0,True,False,False,True,False,False
112,0,"{'mean': -0.29999999999999999, 'sd': 0.37}",-0.5,3,0.290985107421875,0,"(0, 3)",112,0,True,False,False,True,False,False
113,0,"{'mean': -0.29999999999999999, 'sd': 0.37}",0.10000000000000009,2,0.3842341899871826,0,"(0, 2)",113,0,False,False,False,True,False,False
114,0,"{'mean': -0.29999999999999999, 'sd': 0.37}",0.10000000000000009,3,0.38187503814697266,0,"(1, 3)",114,0,False,False,False,True,False,False
115,0,"{'mean': -0.29999999999999999, 'sd': 0.37}",-0.30000000000000004,2,0.3501110076904297,0,"(0, 2)",115,0,False,False,False,True,False,False
116,0,"{'mean': -0.29999999999999999, 'sd': 0.37}",0.10000000000000009,3,0.4465138912200928,0,"(0, 3)",116,0,False,False,False,True,False,False
117,0,"{'mean': -0.29999999999999999, 'sd': 0.37}",-0.10000000000000009,3,0.3671109676361084,0,"(0, 2)",117,0,True,False,False,False,False,False
118,0,"{'mean': -0.29999999999999999, 'sd': 0.37}",-0.30000000000000004,2,0.35718607902526855,0,"(0, 2)",118,0,False,False,False,True,False,False
119,0,"{'mean': -0.29999999999999999, 'sd': 0.37}",0.30000000000000004,2,0.3242039680480957,0,"(1, 3)",119,0,True,False,False,False,False,False
120,0,"{'mean': -0.29999999999999999, 'sd': 0.37}",-0.30000000000000004,3,0.19799089431762695,0,"(1, 2)",120,0,False,False,False,False,False,False
121,0,"{'mean': -0.29999999999999999, 'sd': 0.37}",-0.30000000000000004,3,0.2770199775695801,0,"(0, 2)",121,0,True,False,False,False,False,False
122,0,"{'mean': 0.29999999999999999, 'sd': 0.37}",0.30000000000000004,3,0.5038759708404541,1,"(0, 3)",122,1,True,True,False,True,False,True
123,0,"{'mean': 0.29999999999999999, 'sd': 0.37}",-0.7000000000000001,2,0.28813695907592773,1,"(1, 3)",123,1,False,False,False,False,False,False
124,0,"{'mean': -0.29999999999999999, 'sd': 0.37}",-0.30000000000000004,2,0.30619215965270996,0,"(1, 2)",124,0,True,True,False,True,False,False
125,0,"{'mean': -0.29999999999999999, 'sd': 0.37}",-0.7000000000000001,3,0.4058189392089844,0,"(1, 3)",125,0,False,False,False,True,False,False
126,0,"{'mean': -0.29999999999999999, 'sd': 0.37}",-0.7000000000000001,3,0.44904112815856934,0,"(1, 3)",126,0,True,False,False,True,False,False
127,0,"{'mean': -0.29999999999999999, 'sd': 0.37}",0.10000000000000009,3,0.4276280403137207,0,"(0, 3)",127,0,True,False,False,True,False,False
128,0,"{'mean': -0.29999999999999999, 'sd': 0.37}",0.10000000000000009,3,0.3689408302307129,0,"(0, 3)",128,0,True,False,False,True,False,False
129,0,"{'mean': -0.29999999999999999, 'sd': 0.37}",-0.5,3,0.3560481071472168,0,"(1, 3)",129,0,True,False,False,True,False,False
130,0,"{'mean': -0.29999999999999999, 'sd': 0.37}",-0.10000000000000009,2,0.31023097038269043,0,"(1, 2)",130,0,False,False,False,True,False,False
131,0,"{'mean': -0.29999999999999999, 'sd': 0.37}",0.30000000000000004,3,0.48003411293029785,0,"(1, 3)",131,0,False,False,False,True,False,False
132,0,"{'mean': -0.29999999999999999, 'sd': 0.37}",-0.30000000000000004,2,0.49593400955200195,0,"(0, 2)",132,0,False,False,False,True,False,False
133,0,"{'mean': -0.29999999999999999, 'sd': 0.37}",-0.30000000000000004,2,0.514523983001709,0,"(1, 2)",133,0,True,False,False,True,False,False
134,0,"{'mean': -0.29999999999999999, 'sd': 0.37}",-0.5,3,0.5588490962982178,0,"(1, 3)",134,0,False,False,False,True,False,False
135,0,"{'mean': -0.29999999999999999, 'sd': 0.37}",0.30000000000000004,2,0.39261698722839355,0,"(1, 2)",135,0,False,False,False,True,False,False
136,0,"{'mean': 0.29999999999999999, 'sd': 0.37}",0.30000000000000004,3,0.6199710369110107,1,"(0, 3)",136,1,False,True,False,True,False,True
137,0,"{'mean': 0.29999999999999999, 'sd': 0.37}",0.30000000000000004,2,0.6752409934997559,1,"(1, 2)",137,1,False,False,False,True,False,True
138,0,"{'mean': 0.29999999999999999, 'sd': 0.37}",0.10000000000000009,3,0.5185189247131348,1,"(0, 2)",138,1,False,False,False,False,False,False
139,0,"{'mean': 0.29999999999999999, 'sd': 0.37}",-0.10000000000000009,3,0.3873579502105713,1,"(0, 3)",139,1,True,False,False,True,False,True
140,0,"{'mean': 0.29999999999999999, 'sd': 0.37}",0.10000000000000009,2,0.5471611022949219,1,"(0, 2)",140,1,False,False,False,True,False,True
141,0,"{'mean': 0.29999999999999999, 'sd': 0.37}",-0.7000000000000001,2,0.7195830345153809,1,"(0, 3)",141,1,True,False,False,False,False,False
142,0,"{'mean': 0.29999999999999999, 'sd': 0.37}",-0.30000000000000004,0,0.5080139636993408,1,"(1, 2)",142,1,False,False,False,False,False,False
143,0,"{'mean': -0.29999999999999999, 'sd': 0.37}",-0.30000000000000004,0,0.26165199279785156,0,"(0, 2)",143,0,True,True,True,False,True,True
144,0,"{'mean': -0.29999999999999999, 'sd': 0.37}",-0.10000000000000009,0,0.3256502151489258,0,"(1, 2)",144,0,True,False,False,False,True,False
145,0,"{'mean': -0.29999999999999999, 'sd': 0.37}",-0.7000000000000001,0,0.24371790885925293,0,"(1, 2)",145,0,True,False,False,False,False,False
146,0,"{'mean': -0.29999999999999999, 'sd': 0.37}",-0.30000000000000004,0,0.2558310031890869,0,"(1, 3)",146,0,True,False,False,False,False,False
147,0,"{'mean': -0.29999999999999999, 'sd': 0.37}",-1.0,0,0.2171030044555664,0,"(0, 3)",147,0,True,False,True,False,True,True
148,0,"{'mean': -0.29999999999999999, 'sd': 0.37}",0.10000000000000009,0,0.24777007102966309,0,"(1, 2)",148,0,True,False,False,False,True,False
149,0,"{'mean': -0.29999999999999999, 'sd': 0.37}",0.10000000000000009,0,0.21488380432128906,0,"(0, 2)",149,0,True,False,True,False,True,True
150,0,"{'mean': -0.29999999999999999, 'sd': 0.37}",-0.9000000000000001,0,0.28051304817199707,0,"(1, 3)",150,0,True,False,False,False,True,False
151,0,"{'mean': -0.29999999999999999, 'sd': 0.37}",-0.30000000000000004,0,0.4115018844604492,0,"(1, 2)",151,0,True,False,False,False,False,False
152,0,"{'mean': -0.29999999999999999, 'sd': 0.37}",-0.7000000000000001,2,0.22651982307434082,0,"(1, 2)",152,0,False,False,False,True,False,False
153,0,"{'mean': -0.29999999999999999, 'sd': 0.37}",-0.10000000000000009,3,0.3055591583251953,0,"(0, 2)",153,0,False,False,False,False,False,False
154,0,"{'mean': 0.29999999999999999, 'sd': 0.37}",-0.30000000000000004,3,0.34917306900024414,1,"(0, 2)",154,1,True,True,False,False,False,False
155,0,"{'mean': 0.29999999999999999, 'sd': 0.37}",0.30000000000000004,2,0.670363187789917,1,"(0, 2)",155,1,False,False,False,True,False,True
156,0,"{'mean': 0.29999999999999999, 'sd': 0.37}",1.0,2,0.3125278949737549,1,"(0, 2)",156,1,True,False,False,True,False,True
157,0,"{'mean': 0.29999999999999999, 'sd': 0.37}",0.10000000000000009,3,0.46188902854919434,1,"(1, 3)",157,1,False,False,False,True,False,True
158,0,"{'mean': 0.29999999999999999, 'sd': 0.37}",0.30000000000000004,3,0.3934500217437744,1,"(1, 2)",158,1,True,False,False,False,False,False
159,0,"{'mean': 0.29999999999999999, 'sd': 0.37}",0.7,2,0.6350162029266357,1,"(1, 3)",159,1,False,False,False,False,False,False
160,0,"{'mean': 0.29999999999999999, 'sd': 0.37}",-0.30000000000000004,2,0.4423379898071289,1,"(1, 2)",160,1,True,False,False,True,False,True
161,0,"{'mean': 0.29999999999999999, 'sd': 0.37}",-0.30000000000000004,2,0.4008009433746338,1,"(1, 2)",161,1,True,False,False,True,False,True
162,0,"{'mean': 0.29999999999999999, 'sd': 0.37}",0.30000000000000004,3,0.3126959800720215,1,"(1, 3)",162,1,False,False,False,True,False,True
163,0,"{'mean': 0.29999999999999999, 'sd': 0.37}",1.0,2,0.4556710720062256,1,"(0, 3)",163,1,False,False,False,False,False,False
164,0,"{'mean': 0.29999999999999999, 'sd': 0.37}",0.8999999999999999,2,0.9004168510437012,1,"(0, 2)",164,1,True,False,False,True,False,True
165,0,"{'mean': 0.29999999999999999, 'sd': 0.37}",0.10000000000000009,3,0.4120960235595703,1,"(0, 3)",165,1,False,False,False,True,False,True
166,0,"{'mean': 0.29999999999999999, 'sd': 0.37}",0.7,2,0.6997561454772949,1,"(0, 2)",166,1,False,False,False,True,False,True
167,0,"{'mean': 0.29999999999999999, 'sd': 0.37}",0.10000000000000009,2,0.3227708339691162,1,"(1, 2)",167,1,True,False,False,True,False,True
168,0,"{'mean': 0.29999999999999999, 'sd': 0.37}",-0.10000000000000009,2,0.31507301330566406,1,"(0, 2)",168,1,True,False,False,True,False,True
169,0,"{'mean': 0.29999999999999999, 'sd': 0.37}",-0.10000000000000009,2,0.40401196479797363,1,"(0, 2)",169,1,True,False,False,True,False,True
170,0,"{'mean': 0.29999999999999999, 'sd': 0.37}",-0.10000000000000009,2,0.3941221237182617,1,"(0, 3)",170,1,True,False,False,False,False,False
171,0,"{'mean': 0.29999999999999999, 'sd': 0.37}",0.7,3,0.4406769275665283,1,"(0, 3)",171,1,False,False,False,True,False,True
172,0,"{'mean': 0.29999999999999999, 'sd': 0.37}",-0.5,2,0.39864087104797363,1,"(1, 2)",172,1,False,False,False,True,False,True
173,0,"{'mean': 0.29999999999999999, 'sd': 0.37}",-0.7000000000000001,3,0.30849504470825195,1,"(0, 3)",173,1,False,False,False,True,False,True
174,0,"{'mean': 0.29999999999999999, 'sd': 0.37}",0.30000000000000004,3,0.44182300567626953,1,"(1, 2)",174,1,True,False,False,False,False,False
175,0,"{'mean': -0.29999999999999999, 'sd': 0.37}",-0.10000000000000009,3,0.3477470874786377,0,"(1, 2)",175,0,True,True,False,False,False,False
176,0,"{'mean': -0.29999999999999999, 'sd': 0.37}",-0.30000000000000004,2,0.4547579288482666,0,"(0, 2)",176,0,False,False,False,True,False,False
177,0,"{'mean': -0.29999999999999999, 'sd': 0.37}",0.30000000000000004,2,0.47193288803100586,0,"(0, 2)",177,0,True,False,False,True,False,False
178,0,"{'mean': -0.29999999999999999, 'sd': 0.37}",0.10000000000000009,2,0.4377598762512207,0,"(0, 2)",178,0,True,False,False,True,False,False
179,0,"{'mean': -0.29999999999999999, 'sd': 0.37}",-0.30000000000000004,3,0.5098979473114014,0,"(1, 3)",179,0,False,False,False,True,False,False
180,0,"{'mean': -0.29999999999999999, 'sd': 0.37}",-0.30000000000000004,3,0.4081871509552002,0,"(0, 2)",180,0,True,False,False,False,False,False
181,0,"{'mean': -0.29999999999999999, 'sd': 0.37}",0.5,2,0.38866209983825684,0,"(0, 3)",181,0,False,False,False,False,False,False
182,0,"{'mean': -0.29999999999999999, 'sd': 0.37}",-0.5,2,0.30642104148864746,0,"(1, 2)",182,0,True,False,False,True,False,False
183,0,"{'mean': 0.29999999999999999, 'sd': 0.37}",0.5,3,0.3866250514984131,1,"(0, 3)",183,1,False,True,False,True,False,True
184,0,"{'mean': 0.29999999999999999, 'sd': 0.37}",0.8999999999999999,3,0.39855313301086426,1,"(1, 3)",184,1,True,False,False,True,False,True
185,0,"{'mean': 0.29999999999999999, 'sd': 0.37}",-0.30000000000000004,2,0.32715392112731934,1,"(1, 2)",185,1,False,False,False,True,False,True
186,0,"{'mean': 0.29999999999999999, 'sd': 0.37}",0.30000000000000004,3,0.33991003036499023,1,"(1, 3)",186,1,False,False,False,True,False,True
187,0,"{'mean': 0.29999999999999999, 'sd': 0.37}",0.10000000000000009,3,0.39624905586242676,1,"(0, 3)",187,1,True,False,False,True,False,True
188,0,"{'mean': 0.29999999999999999, 'sd': 0.37}",0.30000000000000004,3,0.45398783683776855,1,"(1, 3)",188,1,True,False,False,True,False,True
189,0,"{'mean': 0.29999999999999999, 'sd': 0.37}",0.8999999999999999,2,0.524726152420044,1,"(1, 2)",189,1,False,False,False,True,False,True
190,0,"{'mean': 0.29999999999999999, 'sd': 0.37}",0.10000000000000009,2,0.36507415771484375,1,"(1, 2)",190,1,True,False,False,True,False,True
191,0,"{'mean': 0.29999999999999999, 'sd': 0.37}",0.10000000000000009,2,0.3273491859436035,1,"(1, 2)",191,1,True,False,False,True,False,True
192,0,"{'mean': 0.29999999999999999, 'sd': 0.37}",0.5,3,0.3638639450073242,1,"(1, 3)",192,1,False,False,False,True,False,True
193,0,"{'mean': 0.29999999999999999, 'sd': 0.37}",-0.10000000000000009,2,0.32752108573913574,1,"(0, 2)",193,1,False,False,False,True,False,True
194,0,"{'mean': 0.29999999999999999, 'sd': 0.37}",0.8999999999999999,2,0.7239549160003662,1,"(0, 3)",194,1,True,False,False,False,False,False
195,0,"{'mean': -0.29999999999999999, 'sd': 0.37}",-0.10000000000000009,3,0.523223876953125,0,"(1, 3)",195,0,False,True,False,True,False,False
196,0,"{'mean': 0.29999999999999999, 'sd': 0.37}",0.30000000000000004,3,0.5885500907897949,1,"(0, 3)",196,1,True,True,False,True,False,True
197,0,"{'mean': 0.29999999999999999, 'sd': 0.37}",-0.30000000000000004,3,0.4319729804992676,1,"(1, 3)",197,1,True,False,False,True,False,True
198,0,"{'mean': 0.29999999999999999, 'sd': 0.37}",0.30000000000000004,3,0.364516019821167,1,"(0, 2)",198,1,True,False,False,False,False,False
199,0,"{'mean': 0.29999999999999999, 'sd': 0.37}",-0.5,3,0.43778181076049805,1,"(1, 3)",199,1,True,False,False,True,False,True
200,0,"{'mean': 0.29999999999999999, 'sd': 0.37}",0.10000000000000009,2,0.5832810401916504,1,"(0, 2)",200,1,False,False,False,True,False,True
201,0,"{'mean': 0.29999999999999999, 'sd': 0.37}",-0.10000000000000009,3,0.37151098251342773,1,"(1, 2)",201,1,False,False,False,False,False,False
202,0,"{'mean': -0.29999999999999999, 'sd': 0.37}",-0.30000000000000004,3,0.2935469150543213,0,"(0, 3)",202,0,True,True,False,True,False,False
203,0,"{'mean': -0.29999999999999999, 'sd': 0.37}",-0.30000000000000004,3,0.4468989372253418,0,"(0, 3)",203,0,True,False,False,True,False,False
204,0,"{'mean': -0.29999999999999999, 'sd': 0.37}",-0.30000000000000004,2,0.7146570682525635,0,"(1, 2)",204,0,False,False,False,True,False,False
205,0,"{'mean': 0.29999999999999999, 'sd': 0.37}",0.30000000000000004,2,0.27999401092529297,1,"(1, 2)",205,1,True,True,False,True,False,True
206,0,"{'mean': 0.29999999999999999, 'sd': 0.37}",0.7,3,0.4422290325164795,1,"(0, 3)",206,1,False,False,False,True,False,True
207,0,"{'mean': 0.29999999999999999, 'sd': 0.37}",-0.7000000000000001,3,0.5101931095123291,1,"(1, 3)",207,1,True,False,False,True,False,True
208,0,"{'mean': 0.29999999999999999, 'sd': 0.37}",-0.10000000000000009,2,0.3231339454650879,1,"(0, 3)",208,1,False,False,False,False,False,False
209,0,"{'mean': 0.29999999999999999, 'sd': 0.37}",0.5,3,0.4210848808288574,1,"(0, 3)",209,1,False,False,False,True,False,True
210,0,"{'mean': 0.29999999999999999, 'sd': 0.37}",0.5,3,0.29988694190979004,1,"(0, 3)",210,1,True,False,False,True,False,True
211,0,"{'mean': 0.29999999999999999, 'sd': 0.37}",0.10000000000000009,2,0.4547398090362549,1,"(0, 2)",211,1,False,False,False,True,False,True
212,0,"{'mean': 0.29999999999999999, 'sd': 0.37}",0.10000000000000009,2,0.5574920177459717,1,"(0, 3)",212,1,True,False,False,False,False,False
213,0,"{'mean': 0.29999999999999999, 'sd': 0.37}",0.7,3,0.42870306968688965,1,"(1, 2)",213,1,False,False,False,False,False,False
214,0,"{'mean': 0.29999999999999999, 'sd': 0.37}",0.8999999999999999,2,0.38565993309020996,1,"(0, 2)",214,1,False,False,False,True,False,True
215,0,"{'mean': 0.29999999999999999, 'sd': 0.37}",0.7,2,0.46608495712280273,1,"(1, 2)",215,1,True,False,False,True,False,True
216,0,"{'mean': 0.29999999999999999, 'sd': 0.37}",0.30000000000000004,2,0.621086835861206,1,"(0, 2)",216,1,True,False,False,True,False,True
217,0,"{'mean': 0.29999999999999999, 'sd': 0.37}",0.30000000000000004,2,0.3689877986907959,1,"(0, 2)",217,1,True,False,False,True,False,True
218,0,"{'mean': 0.29999999999999999, 'sd': 0.37}",-0.10000000000000009,3,0.4594919681549072,1,"(1, 3)",218,1,False,False,False,True,False,True
219,0,"{'mean': 0.29999999999999999, 'sd': 0.37}",0.7,2,0.43356800079345703,1,"(0, 3)",219,1,False,False,False,False,False,False
220,0,"{'mean': 0.29999999999999999, 'sd': 0.37}",0.7,2,0.46043992042541504,1,"(0, 2)",220,1,True,False,False,True,False,True
221,0,"{'mean': 0.29999999999999999, 'sd': 0.37}",0.10000000000000009,3,0.4016890525817871,1,"(1, 2)",221,1,False,False,False,False,False,False
222,0,"{'mean': 0.29999999999999999, 'sd': 0.37}",0.10000000000000009,3,0.7442679405212402,1,"(0, 2)",222,1,True,False,False,False,False,False
223,0,"{'mean': 0.29999999999999999, 'sd': 0.37}",0.7,2,0.5310220718383789,1,"(1, 3)",223,1,False,False,False,False,False,False
224,0,"{'mean': 0.29999999999999999, 'sd': 0.37}",0.8999999999999999,2,1.0128099918365479,1,"(1, 3)",224,1,True,False,False,False,False,False
225,0,"{'mean': -0.29999999999999999, 'sd': 0.37}",-1.0,3,0.4873769283294678,0,"(0, 3)",225,0,False,True,False,True,False,False
226,0,"{'mean': -0.29999999999999999, 'sd': 0.37}",-0.30000000000000004,2,0.41192007064819336,0,"(1, 2)",226,0,False,False,False,True,False,False
227,0,"{'mean': -0.29999999999999999, 'sd': 0.37}",-0.5,2,0.3369300365447998,0,"(1, 2)",227,0,True,False,False,True,False,False
228,0,"{'mean': -0.29999999999999999, 'sd': 0.37}",-0.7000000000000001,2,0.410646915435791,0,"(1, 3)",228,0,True,False,False,False,False,False
229,0,"{'mean': -0.29999999999999999, 'sd': 0.37}",-0.7000000000000001,3,0.524724006652832,0,"(1, 3)",229,0,False,False,False,True,False,False
230,0,"{'mean': -0.29999999999999999, 'sd': 0.37}",-0.10000000000000009,2,0.5173070430755615,0,"(0, 2)",230,0,False,False,False,True,False,False
231,0,"{'mean': -0.29999999999999999, 'sd': 0.37}",0.30000000000000004,2,0.5225479602813721,0,"(0, 3)",231,0,True,False,False,False,False,False
232,0,"{'mean': -0.29999999999999999, 'sd': 0.37}",0.10000000000000009,2,0.6915600299835205,0,"(0, 2)",232,0,True,False,False,True,False,False
233,0,"{'mean': -0.29999999999999999, 'sd': 0.37}",0.10000000000000009,3,0.4909839630126953,0,"(1, 2)",233,0,False,False,False,False,False,False
234,0,"{'mean': 0.29999999999999999, 'sd': 0.37}",0.30000000000000004,2,0.7939691543579102,1,"(0, 3)",234,1,False,True,False,False,False,False
235,0,"{'mean': 0.29999999999999999, 'sd': 0.37}",-0.10000000000000009,2,0.6708228588104248,1,"(1, 3)",235,1,True,False,False,False,False,False
236,0,"{'mean': 0.29999999999999999, 'sd': 0.37}",-0.10000000000000009,3,0.5427529811859131,1,"(1, 2)",236,1,False,False,False,False,False,False
237,0,"{'mean': 0.29999999999999999, 'sd': 0.37}",0.7,3,0.9422590732574463,1,"(0, 3)",237,1,True,False,False,True,False,True
238,0,"{'mean': 0.29999999999999999, 'sd': 0.37}",-0.10000000000000009,3,0.45935583114624023,1,"(1, 3)",238,1,True,False,False,True,False,True
239,0,"{'mean': 0.29999999999999999, 'sd': 0.37}",1.0,3,0.33323001861572266,1,"(0, 3)",239,1,True,False,False,True,False,True
240,0,"{'mean': 0.29999999999999999, 'sd': 0.37}",0.30000000000000004,3,0.339108943939209,1,"(1, 3)",240,1,True,False,False,True,False,True
241,0,"{'mean': 0.29999999999999999, 'sd': 0.37}",0.7,2,0.45148301124572754,1,"(0, 2)",241,1,False,False,False,True,False,True
242,0,"{'mean': 0.29999999999999999, 'sd': 0.37}",-0.5,2,0.37949490547180176,1,"(1, 2)",242,1,True,False,False,True,False,True
243,0,"{'mean': 0.29999999999999999, 'sd': 0.37}",-0.10000000000000009,2,0.5646789073944092,1,"(0, 2)",243,1,True,False,False,True,False,True
244,0,"{'mean': 0.29999999999999999, 'sd': 0.37}",0.30000000000000004,3,0.470566987991333,1,"(1, 3)",244,1,False,False,False,True,False,True
245,0,"{'mean': 0.29999999999999999, 'sd': 0.37}",-0.5,3,0.3919198513031006,1,"(0, 3)",245,1,True,False,False,True,False,True
246,0,"{'mean': 0.29999999999999999, 'sd': 0.37}",0.30000000000000004,2,0.35271406173706055,1,"(0, 2)",246,1,False,False,False,True,False,True
247,0,"{'mean': 0.29999999999999999, 'sd': 0.37}",-0.5,3,0.37818098068237305,1,"(0, 3)",247,1,False,False,False,True,False,True
248,0,"{'mean': 0.29999999999999999, 'sd': 0.37}",1.0,2,0.6763870716094971,1,"(1, 2)",248,1,False,False,False,True,False,True
249,0,"{'mean': 0.29999999999999999, 'sd': 0.37}",0.8999999999999999,3,0.502655029296875,1,"(0, 3)",249,1,False,False,False,True,False,True
250,0,"{'mean': 0.29999999999999999, 'sd': 0.37}",0.30000000000000004,3,0.3106989860534668,1,"(1, 3)",250,1,True,False,False,True,False,True
251,0,"{'mean': 0.29999999999999999, 'sd': 0.37}",-0.30000000000000004,3,0.4083878993988037,1,"(1, 3)",251,1,True,False,False,True,False,True
252,0,"{'mean': 0.29999999999999999, 'sd': 0.37}",0.30000000000000004,3,0.5511319637298584,1,"(1, 3)",252,1,True,False,False,True,False,True
253,0,"{'mean': 0.29999999999999999, 'sd': 0.37}",0.30000000000000004,3,0.45428895950317383,1,"(0, 3)",253,1,True,False,False,True,False,True
254,0,"{'mean': 0.29999999999999999, 'sd': 0.37}",-0.10000000000000009,3,0.35556507110595703,1,"(1, 3)",254,1,True,False,False,True,False,True
255,0,"{'mean': 0.29999999999999999, 'sd': 0.37}",0.30000000000000004,3,0.33528900146484375,1,"(0, 3)",255,1,True,False,False,True,False,True
256,0,"{'mean': 0.29999999999999999, 'sd': 0.37}",0.5,3,0.2901601791381836,1,"(0, 3)",256,1,True,False,False,True,False,True
257,0,"{'mean': 0.29999999999999999, 'sd': 0.37}",-0.30000000000000004,2,0.41956591606140137,1,"(1, 2)",257,1,False,False,False,True,False,True
258,0,"{'mean': 0.29999999999999999, 'sd': 0.37}",0.8999999999999999,3,0.6308338642120361,1,"(0, 3)",258,1,False,False,False,True,False,True
259,0,"{'mean': 0.29999999999999999, 'sd': 0.37}",0.7,3,0.49546003341674805,1,"(0, 3)",259,1,True,False,False,True,False,True
260,0,"{'mean': 0.29999999999999999, 'sd': 0.37}",0.30000000000000004,2,0.42847204208374023,1,"(0, 2)",260,1,False,False,False,True,False,True
261,0,"{'mean': -0.29999999999999999, 'sd': 0.37}",-0.5,3,0.363483190536499,0,"(1, 3)",261,0,False,True,False,True,False,False
262,0,"{'mean': -0.29999999999999999, 'sd': 0.37}",-0.30000000000000004,3,0.4504520893096924,0,"(0, 3)",262,0,True,False,False,True,False,False
263,0,"{'mean': -0.29999999999999999, 'sd': 0.37}",-0.10000000000000009,3,0.5988559722900391,0,"(0, 3)",263,0,True,False,False,True,False,False
264,0,"{'mean': -0.29999999999999999, 'sd': 0.37}",-0.30000000000000004,2,0.5293381214141846,0,"(0, 2)",264,0,False,False,False,True,False,False
265,0,"{'mean': -0.29999999999999999, 'sd': 0.37}",-0.30000000000000004,3,0.42188596725463867,0,"(0, 2)",265,0,False,False,False,False,False,False
267,0,"{'mean': -0.29999999999999999, 'sd': 0.37}",-0.30000000000000004,2,0.5949199199676514,0,"(1, 2)",267,0,False,False,False,True,False,False
268,0,"{'mean': -0.29999999999999999, 'sd': 0.37}",-0.30000000000000004,2,0.5457298755645752,0,"(0, 2)",268,0,True,False,False,True,False,False
269,0,"{'mean': -0.29999999999999999, 'sd': 0.37}",-0.5,3,0.4907381534576416,0,"(1, 3)",269,0,False,False,False,True,False,False
270,0,"{'mean': -0.29999999999999999, 'sd': 0.37}",-0.5,2,0.6447141170501709,0,"(0, 2)",270,0,False,False,False,True,False,False
271,0,"{'mean': -0.29999999999999999, 'sd': 0.37}",0.10000000000000009,3,0.49034810066223145,0,"(0, 2)",271,0,False,False,False,False,False,False
272,0,"{'mean': -0.29999999999999999, 'sd': 0.37}",-0.5,3,1.470242977142334,0,"(0, 2)",272,0,True,False,False,False,False,False
273,0,"{'mean': -0.29999999999999999, 'sd': 0.37}",-0.10000000000000009,3,0.3902108669281006,0,"(0, 3)",273,0,True,False,False,True,False,False
274,0,"{'mean': -0.29999999999999999, 'sd': 0.37}",-0.7000000000000001,3,0.4761691093444824,0,"(0, 3)",274,0,True,False,False,True,False,False
275,0,"{'mean': -0.29999999999999999, 'sd': 0.37}",-0.5,3,0.44414806365966797,0,"(0, 3)",275,0,True,False,False,True,False,False
276,0,"{'mean': -0.29999999999999999, 'sd': 0.37}",0.30000000000000004,3,0.36381006240844727,0,"(1, 3)",276,0,True,False,False,True,False,False
277,0,"{'mean': 0.29999999999999999, 'sd': 0.37}",0.5,2,0.7092840671539307,1,"(1, 2)",277,1,False,True,False,True,False,True
278,0,"{'mean': 0.29999999999999999, 'sd': 0.37}",0.10000000000000009,2,0.3959968090057373,1,"(0, 2)",278,1,True,False,False,True,False,True
279,0,"{'mean': 0.29999999999999999, 'sd': 0.37}",0.5,2,0.6259241104125977,1,"(1, 2)",279,1,True,False,False,True,False,True
280,0,"{'mean': 0.29999999999999999, 'sd': 0.37}",-0.5,2,0.5411450862884521,1,"(0, 2)",280,1,True,False,False,True,False,True
281,0,"{'mean': 0.29999999999999999, 'sd': 0.37}",-0.10000000000000009,2,0.42970705032348633,1,"(1, 2)",281,1,True,False,False,True,False,True
282,0,"{'mean': -0.29999999999999999, 'sd': 0.37}",0.5,3,0.3642289638519287,0,"(1, 3)",282,0,False,True,False,True,False,False
283,0,"{'mean': -0.29999999999999999, 'sd': 0.37}",-0.5,2,0.39729881286621094,0,"(0, 2)",283,0,False,False,False,True,False,False
284,0,"{'mean': -0.29999999999999999, 'sd': 0.37}",-0.5,2,0.34924912452697754,0,"(0, 2)",284,0,True,False,False,True,False,False
285,0,"{'mean': -0.29999999999999999, 'sd': 0.37}",-1.0,2,0.3535799980163574,0,"(0, 2)",285,0,True,False,False,True,False,False
286,0,"{'mean': -0.29999999999999999, 'sd': 0.37}",-0.5,3,0.43882298469543457,0,"(0, 3)",286,0,False,False,False,True,False,False
287,0,"{'mean': -0.29999999999999999, 'sd': 0.37}",-0.5,3,0.6482000350952148,0,"(1, 3)",287,0,True,False,False,True,False,False
288,0,"{'mean': -0.29999999999999999, 'sd': 0.37}",0.30000000000000004,3,0.5386900901794434,0,"(1, 3)",288,0,True,False,False,True,False,False
289,0,"{'mean': -0.29999999999999999, 'sd': 0.37}",-0.10000000000000009,3,0.6159348487854004,0,"(1, 3)",289,0,True,False,False,True,False,False
290,0,"{'mean': -0.29999999999999999, 'sd': 0.37}",0.30000000000000004,3,0.3499569892883301,0,"(1, 3)",290,0,True,False,False,True,False,False
291,0,"{'mean': -0.29999999999999999, 'sd': 0.37}",-0.9000000000000001,2,0.6550929546356201,0,"(1, 2)",291,0,False,False,False,True,False,False
292,0,"{'mean': -0.29999999999999999, 'sd': 0.37}",-0.30000000000000004,2,0.36348485946655273,0,"(1, 2)",292,0,True,False,False,True,False,False
293,0,"{'mean': -0.29999999999999999, 'sd': 0.37}",-0.9000000000000001,2,0.37155699729919434,0,"(1, 2)",293,0,True,False,False,True,False,False
294,0,"{'mean': -0.29999999999999999, 'sd': 0.37}",-0.5,2,0.4405097961425781,0,"(1, 2)",294,0,True,False,False,True,False,False
295,0,"{'mean': -0.29999999999999999, 'sd': 0.37}",-0.7000000000000001,2,0.4205608367919922,0,"(1, 3)",295,0,True,False,False,False,False,False
296,0,"{'mean': -0.29999999999999999, 'sd': 0.37}",-0.7000000000000001,3,0.42998600006103516,0,"(0, 3)",296,0,False,False,False,True,False,False
297,0,"{'mean': -0.29999999999999999, 'sd': 0.37}",-0.7000000000000001,3,0.510836124420166,0,"(0, 3)",297,0,True,False,False,True,False,False
298,0,"{'mean': -0.29999999999999999, 'sd': 0.37}",-0.30000000000000004,3,0.4650909900665283,0,"(1, 3)",298,0,True,False,False,True,False,False
299,0,"{'mean': -0.29999999999999999, 'sd': 0.37}",-0.10000000000000009,2,0.46958184242248535,0,"(1, 2)",299,0,False,False,False,True,False,False
300,0,"{'mean': -0.29999999999999999, 'sd': 0.37}",0.30000000000000004,3,0.4797780513763428,0,"(0, 3)",300,0,False,False,False,True,False,False
301,0,"{'mean': -0.29999999999999999, 'sd': 0.37}",-0.7000000000000001,3,0.71356201171875,0,"(1, 3)",301,0,True,False,False,True,False,False
302,0,"{'mean': -0.29999999999999999, 'sd': 0.37}",-0.30000000000000004,2,0.4289588928222656,0,"(1, 2)",302,0,False,False,False,True,False,False
303,0,"{'mean': 0.29999999999999999, 'sd': 0.37}",0.10000000000000009,3,0.5675859451293945,1,"(0, 3)",303,1,False,True,False,True,False,True
304,0,"{'mean': 0.29999999999999999, 'sd': 0.37}",-0.10000000000000009,2,0.5778110027313232,1,"(1, 2)",304,1,False,False,False,True,False,True
305,0,"{'mean': 0.29999999999999999, 'sd': 0.37}",0.8999999999999999,2,0.5763700008392334,1,"(0, 2)",305,1,True,False,False,True,False,True
306,0,"{'mean': 0.29999999999999999, 'sd': 0.37}",0.30000000000000004,3,0.5366380214691162,1,"(0, 3)",306,1,False,False,False,True,False,True
307,0,"{'mean': 0.29999999999999999, 'sd': 0.37}",0.7,3,0.7055959701538086,1,"(0, 3)",307,1,True,False,False,True,False,True
308,0,"{'mean': 0.29999999999999999, 'sd': 0.37}",0.10000000000000009,2,0.5290288925170898,1,"(1, 2)",308,1,False,False,False,True,False,True
309,0,"{'mean': 0.29999999999999999, 'sd': 0.37}",0.7,3,0.7228047847747803,1,"(0, 3)",309,1,False,False,False,True,False,True
310,0,"{'mean': 0.29999999999999999, 'sd': 0.37}",-0.10000000000000009,2,0.3980221748352051,1,"(1, 2)",310,1,False,False,False,True,False,True
311,0,"{'mean': 0.29999999999999999, 'sd': 0.37}",-0.10000000000000009,3,0.4444119930267334,1,"(1, 3)",311,1,False,False,False,True,False,True
312,0,"{'mean': -0.29999999999999999, 'sd': 0.37}",0.10000000000000009,2,0.442486047744751,0,"(1, 2)",312,0,False,True,False,True,False,False
313,0,"{'mean': -0.29999999999999999, 'sd': 0.37}",-0.9000000000000001,3,0.4317340850830078,0,"(0, 3)",313,0,False,False,False,True,False,False
314,0,"{'mean': -0.29999999999999999, 'sd': 0.37}",0.10000000000000009,2,0.24570512771606445,0,"(1, 3)",314,0,False,False,False,False,False,False
315,0,"{'mean': -0.29999999999999999, 'sd': 0.37}",-0.7000000000000001,3,0.33933281898498535,0,"(1, 3)",315,0,False,False,False,True,False,False
316,0,"{'mean': -0.29999999999999999, 'sd': 0.37}",-0.5,2,0.42192888259887695,0,"(0, 2)",316,0,False,False,False,True,False,False
317,0,"{'mean': 0.29999999999999999, 'sd': 0.37}",0.10000000000000009,3,0.35274600982666016,1,"(0, 2)",317,1,False,True,False,False,False,False
318,0,"{'mean': 0.29999999999999999, 'sd': 0.37}",0.10000000000000009,3,0.678131103515625,1,"(1, 3)",318,1,True,False,False,True,False,True
319,0,"{'mean': 0.29999999999999999, 'sd': 0.37}",-0.5,2,0.474747896194458,1,"(1, 3)",319,1,False,False,False,False,False,False
320,0,"{'mean': 0.29999999999999999, 'sd': 0.37}",0.30000000000000004,3,0.3790719509124756,1,"(1, 3)",320,1,False,False,False,True,False,True
321,0,"{'mean': 0.29999999999999999, 'sd': 0.37}",-0.10000000000000009,2,0.40331482887268066,1,"(1, 2)",321,1,False,False,False,True,False,True
322,0,"{'mean': 0.29999999999999999, 'sd': 0.37}",-0.30000000000000004,3,0.48305201530456543,1,"(1, 3)",322,1,False,False,False,True,False,True
323,0,"{'mean': 0.29999999999999999, 'sd': 0.37}",0.7,3,1.101335048675537,1,"(0, 3)",323,1,True,False,False,True,False,True
324,0,"{'mean': 0.29999999999999999, 'sd': 0.37}",0.30000000000000004,2,0.4281449317932129,1,"(0, 2)",324,1,False,False,False,True,False,True
325,0,"{'mean': 0.29999999999999999, 'sd': 0.37}",0.5,2,0.4311511516571045,1,"(1, 2)",325,1,True,False,False,True,False,True
326,0,"{'mean': 0.29999999999999999, 'sd': 0.37}",0.7,2,0.6748158931732178,1,"(1, 2)",326,1,True,False,False,True,False,True
327,0,"{'mean': 0.29999999999999999, 'sd': 0.37}",-0.30000000000000004,3,0.28981685638427734,1,"(1, 2)",327,1,False,False,False,False,False,False
328,0,"{'mean': 0.29999999999999999, 'sd': 0.37}",0.7,3,0.45044803619384766,1,"(1, 3)",328,1,True,False,False,True,False,True
329,0,"{'mean': 0.29999999999999999, 'sd': 0.37}",0.7,2,0.5267939567565918,1,"(1, 2)",329,1,False,False,False,True,False,True
330,0,"{'mean': 0.29999999999999999, 'sd': 0.37}",0.10000000000000009,3,0.276486873626709,1,"(0, 2)",330,1,False,False,False,False,False,False
331,0,"{'mean': 0.29999999999999999, 'sd': 0.37}",-0.10000000000000009,2,0.3487520217895508,1,"(0, 2)",331,1,False,False,False,True,False,True
332,0,"{'mean': 0.29999999999999999, 'sd': 0.37}",-0.10000000000000009,3,0.5380840301513672,1,"(1, 2)",332,1,False,False,False,False,False,False
333,0,"{'mean': 0.29999999999999999, 'sd': 0.37}",-0.10000000000000009,3,0.4907679557800293,1,"(0, 3)",333,1,True,False,False,True,False,True
334,0,"{'mean': 0.29999999999999999, 'sd': 0.37}",0.7,3,0.41253209114074707,1,"(0, 3)",334,1,True,False,False,True,False,True
336,0,"{'mean': 0.29999999999999999, 'sd': 0.37}",0.5,3,0.5013458728790283,1,"(0, 2)",336,1,True,False,False,False,False,False
337,0,"{'mean': 0.29999999999999999, 'sd': 0.37}",0.10000000000000009,2,0.8101620674133301,1,"(1, 2)",337,1,False,False,False,True,False,True
338,0,"{'mean': 0.29999999999999999, 'sd': 0.37}",-0.30000000000000004,3,0.5985300540924072,1,"(0, 3)",338,1,False,False,False,True,False,True
339,0,"{'mean': -0.29999999999999999, 'sd': 0.37}",-0.5,3,0.4764418601989746,0,"(1, 2)",339,0,True,True,False,False,False,False
340,0,"{'mean': -0.29999999999999999, 'sd': 0.37}",-0.10000000000000009,2,0.43744802474975586,0,"(0, 2)",340,0,False,False,False,True,False,False
341,0,"{'mean': -0.29999999999999999, 'sd': 0.37}",-0.7000000000000001,3,0.45983290672302246,0,"(1, 3)",341,0,False,False,False,True,False,False
342,0,"{'mean': 0.29999999999999999, 'sd': 0.37}",0.7,2,0.346851110458374,1,"(0, 2)",342,1,False,True,False,True,False,True
343,0,"{'mean': 0.29999999999999999, 'sd': 0.37}",-0.10000000000000009,2,0.378277063369751,1,"(0, 2)",343,1,True,False,False,True,False,True
344,0,"{'mean': 0.29999999999999999, 'sd': 0.37}",1.0,3,0.534250020980835,1,"(0, 3)",344,1,False,False,False,True,False,True
345,0,"{'mean': 0.29999999999999999, 'sd': 0.37}",0.5,3,0.49098896980285645,1,"(0, 3)",345,1,True,False,False,True,False,True
346,0,"{'mean': 0.29999999999999999, 'sd': 0.37}",0.10000000000000009,2,0.3699171543121338,1,"(1, 2)",346,1,False,False,False,True,False,True
347,0,"{'mean': 0.29999999999999999, 'sd': 0.37}",0.8999999999999999,3,0.5074059963226318,1,"(1, 3)",347,1,False,False,False,True,False,True
348,0,"{'mean': 0.29999999999999999, 'sd': 0.37}",0.8999999999999999,2,0.3470039367675781,1,"(0, 2)",348,1,False,False,False,True,False,True
349,0,"{'mean': 0.29999999999999999, 'sd': 0.37}",0.5,2,0.5385441780090332,1,"(1, 2)",349,1,True,False,False,True,False,True
350,0,"{'mean': 0.29999999999999999, 'sd': 0.37}",0.30000000000000004,3,0.45253491401672363,1,"(0, 3)",350,1,False,False,False,True,False,True
351,0,"{'mean': 0.29999999999999999, 'sd': 0.37}",0.5,2,0.4183940887451172,1,"(1, 2)",351,1,False,False,False,True,False,True
352,0,"{'mean': 0.29999999999999999, 'sd': 0.37}",0.10000000000000009,3,0.6825089454650879,1,"(1, 2)",352,1,False,False,False,False,False,False
353,0,"{'mean': 0.29999999999999999, 'sd': 0.37}",1.0,2,0.44084692001342773,1,"(0, 3)",353,1,False,False,False,False,False,False
354,0,"{'mean': 0.29999999999999999, 'sd': 0.37}",0.7,3,0.44847583770751953,1,"(1, 3)",354,1,False,False,False,True,False,True
355,0,"{'mean': 0.29999999999999999, 'sd': 0.37}",0.30000000000000004,2,0.3954160213470459,1,"(0, 2)",355,1,False,False,False,True,False,True
356,0,"{'mean': 0.29999999999999999, 'sd': 0.37}",0.30000000000000004,2,0.4383080005645752,1,"(0, 2)",356,1,True,False,False,True,False,True
357,0,"{'mean': 0.29999999999999999, 'sd': 0.37}",0.10000000000000009,2,0.4073021411895752,1,"(0, 2)",357,1,True,False,False,True,False,True
358,0,"{'mean': 0.29999999999999999, 'sd': 0.37}",0.30000000000000004,3,0.589993953704834,1,"(1, 3)",358,1,False,False,False,True,False,True
359,0,"{'mean': 0.29999999999999999, 'sd': 0.37}",-0.10000000000000009,2,0.3631560802459717,1,"(1, 2)",359,1,False,False,False,True,False,True
360,0,"{'mean': 0.29999999999999999, 'sd': 0.37}",0.8999999999999999,2,0.39067602157592773,1,"(1, 3)",360,1,True,False,False,False,False,False
361,0,"{'mean': 0.29999999999999999, 'sd': 0.37}",-0.10000000000000009,2,0.49671101570129395,1,"(1, 2)",361,1,True,False,False,True,False,True
362,0,"{'mean': 0.29999999999999999, 'sd': 0.37}",0.8999999999999999,3,0.40563392639160156,1,"(1, 2)",362,1,False,False,False,False,False,False
363,0,"{'mean': 0.29999999999999999, 'sd': 0.37}",0.7,3,0.32381296157836914,1,"(0, 2)",363,1,True,False,False,False,False,False
364,0,"{'mean': -0.29999999999999999, 'sd': 0.37}",-0.30000000000000004,2,0.37808895111083984,0,"(1, 2)",364,0,False,True,False,True,False,False
365,0,"{'mean': 0.29999999999999999, 'sd': 0.37}",0.7,2,0.7110939025878906,1,"(0, 2)",365,1,True,True,False,True,False,True
366,0,"{'mean': 0.29999999999999999, 'sd': 0.37}",0.30000000000000004,3,0.3589508533477783,1,"(0, 3)",366,1,False,False,False,True,False,True
367,0,"{'mean': 0.29999999999999999, 'sd': 0.37}",0.10000000000000009,3,0.3274040222167969,1,"(1, 3)",367,1,True,False,False,True,False,True
368,0,"{'mean': 0.29999999999999999, 'sd': 0.37}",-0.10000000000000009,3,0.4155690670013428,1,"(1, 3)",368,1,True,False,False,True,False,True
369,0,"{'mean': 0.29999999999999999, 'sd': 0.37}",-0.10000000000000009,3,0.4152100086212158,1,"(0, 3)",369,1,True,False,False,True,False,True
370,0,"{'mean': 0.29999999999999999, 'sd': 0.37}",0.5,2,0.29817795753479004,1,"(1, 2)",370,1,False,False,False,True,False,True
371,0,"{'mean': 0.29999999999999999, 'sd': 0.37}",0.10000000000000009,3,0.40381908416748047,1,"(1, 3)",371,1,False,False,False,True,False,True
372,0,"{'mean': 0.29999999999999999, 'sd': 0.37}",0.10000000000000009,3,0.2929379940032959,1,"(0, 3)",372,1,True,False,False,True,False,True
373,0,"{'mean': 0.29999999999999999, 'sd': 0.37}",0.10000000000000009,3,0.5210819244384766,1,"(1, 2)",373,1,True,False,False,False,False,False
374,0,"{'mean': 0.29999999999999999, 'sd': 0.37}",0.5,2,0.4804952144622803,1,"(0, 3)",374,1,False,False,False,False,False,False
375,0,"{'mean': 0.29999999999999999, 'sd': 0.37}",0.5,2,0.5235469341278076,1,"(0, 2)",375,1,True,False,False,True,False,True
376,0,"{'mean': 0.29999999999999999, 'sd': 0.37}",-0.10000000000000009,3,0.5196528434753418,1,"(1, 3)",376,1,False,False,False,True,False,True
377,0,"{'mean': 0.29999999999999999, 'sd': 0.37}",0.30000000000000004,2,0.46308183670043945,1,"(1, 2)",377,1,False,False,False,True,False,True
378,0,"{'mean': 0.29999999999999999, 'sd': 0.37}",0.7,3,0.44724011421203613,1,"(1, 2)",378,1,False,False,False,False,False,False
379,0,"{'mean': 0.29999999999999999, 'sd': 0.37}",0.8999999999999999,2,0.44603395462036133,1,"(0, 2)",379,1,False,False,False,True,False,True
380,0,"{'mean': 0.29999999999999999, 'sd': 0.37}",-0.30000000000000004,3,0.47664713859558105,1,"(0, 3)",380,1,False,False,False,True,False,True
381,0,"{'mean': 0.29999999999999999, 'sd': 0.37}",0.5,3,0.38502001762390137,1,"(1, 3)",381,1,True,False,False,True,False,True
382,0,"{'mean': -0.29999999999999999, 'sd': 0.37}",-0.10000000000000009,2,0.31395602226257324,0,"(0, 2)",382,0,False,True,False,True,False,False
383,0,"{'mean': -0.29999999999999999, 'sd': 0.37}",-0.30000000000000004,2,0.4500269889831543,0,"(1, 2)",383,0,True,False,False,True,False,False
384,0,"{'mean': -0.29999999999999999, 'sd': 0.37}",-0.10000000000000009,2,0.32414889335632324,0,"(1, 2)",384,0,True,False,False,True,False,False
385,0,"{'mean': -0.29999999999999999, 'sd': 0.37}",-0.10000000000000009,3,0.41616392135620117,0,"(0, 3)",385,0,False,False,False,True,False,False
386,0,"{'mean': -0.29999999999999999, 'sd': 0.37}",-0.10000000000000009,3,0.6279058456420898,0,"(0, 3)",386,0,True,False,False,True,False,False
387,0,"{'mean': -0.29999999999999999, 'sd': 0.37}",-0.30000000000000004,2,0.491657018661499,0,"(1, 2)",387,0,False,False,False,True,False,False
388,0,"{'mean': 0.29999999999999999, 'sd': 0.37}",0.30000000000000004,2,0.289355993270874,1,"(1, 2)",388,1,True,True,False,True,False,True
389,0,"{'mean': 0.29999999999999999, 'sd': 0.37}",0.10000000000000009,3,0.4983808994293213,1,"(0, 3)",389,1,False,False,False,True,False,True
390,0,"{'mean': 0.29999999999999999, 'sd': 0.37}",1.0,2,0.6241681575775146,1,"(0, 2)",390,1,False,False,False,True,False,True
391,0,"{'mean': 0.29999999999999999, 'sd': 0.37}",0.30000000000000004,2,0.6425459384918213,1,"(0, 3)",391,1,True,False,False,False,False,False
392,0,"{'mean': 0.29999999999999999, 'sd': 0.37}",-0.30000000000000004,2,0.5184597969055176,1,"(0, 2)",392,1,True,False,False,True,False,True
393,0,"{'mean': 0.29999999999999999, 'sd': 0.37}",0.7,2,0.3723301887512207,1,"(1, 2)",393,1,True,False,False,True,False,True
394,0,"{'mean': 0.29999999999999999, 'sd': 0.37}",0.7,2,0.4232809543609619,1,"(0, 2)",394,1,True,False,False,True,False,True
395,0,"{'mean': 0.29999999999999999, 'sd': 0.37}",0.10000000000000009,2,0.4262809753417969,1,"(1, 2)",395,1,True,False,False,True,False,True
396,0,"{'mean': 0.29999999999999999, 'sd': 0.37}",-0.10000000000000009,2,0.3784139156341553,1,"(1, 2)",396,1,True,False,False,True,False,True
397,0,"{'mean': 0.29999999999999999, 'sd': 0.37}",0.10000000000000009,2,0.4383699893951416,1,"(1, 2)",397,1,True,False,False,True,False,True
398,0,"{'mean': -0.29999999999999999, 'sd': 0.37}",-0.5,3,0.6874659061431885,0,"(0, 3)",398,0,False,True,False,True,False,False
399,0,"{'mean': -0.29999999999999999, 'sd': 0.37}",-0.10000000000000009,3,0.675670862197876,0,"(1, 3)",399,0,True,False,False,True,False,False
400,0,"{'mean': -0.29999999999999999, 'sd': 0.37}",-0.9000000000000001,2,0.5641038417816162,0,"(0, 2)",400,0,False,False,False,True,False,False
401,0,"{'mean': 0.29999999999999999, 'sd': 0.37}",-0.30000000000000004,2,0.5813519954681396,1,"(1, 2)",401,1,True,True,False,True,False,True
402,0,"{'mean': 0.29999999999999999, 'sd': 0.37}",0.8999999999999999,3,0.3615381717681885,1,"(0, 3)",402,1,False,False,False,True,False,True
403,0,"{'mean': 0.29999999999999999, 'sd': 0.37}",0.5,3,0.3931009769439697,1,"(0, 3)",403,1,True,False,False,True,False,True
404,0,"{'mean': 0.29999999999999999, 'sd': 0.37}",-0.5,2,0.33997488021850586,1,"(0, 2)",404,1,False,False,False,True,False,True
405,0,"{'mean': -0.29999999999999999, 'sd': 0.37}",-0.7000000000000001,3,0.6008801460266113,0,"(0, 3)",405,0,False,True,False,True,False,False
406,0,"{'mean': -0.29999999999999999, 'sd': 0.37}",-1.0,3,0.6095590591430664,0,"(1, 3)",406,0,True,False,False,True,False,False
407,0,"{'mean': 0.29999999999999999, 'sd': 0.37}",0.30000000000000004,2,0.3006172180175781,1,"(1, 2)",407,1,False,True,False,True,False,True
408,0,"{'mean': 0.29999999999999999, 'sd': 0.37}",0.30000000000000004,2,0.43408799171447754,1,"(1, 2)",408,1,True,False,False,True,False,True
409,0,"{'mean': 0.29999999999999999, 'sd': 0.37}",0.10000000000000009,2,0.34204602241516113,1,"(1, 2)",409,1,True,False,False,True,False,True
410,0,"{'mean': 0.29999999999999999, 'sd': 0.37}",0.10000000000000009,2,0.2869570255279541,1,"(1, 2)",410,1,True,False,False,True,False,True
411,0,"{'mean': 0.29999999999999999, 'sd': 0.37}",0.7,2,0.41811394691467285,1,"(0, 2)",411,1,True,False,False,True,False,True
412,0,"{'mean': 0.29999999999999999, 'sd': 0.37}",0.30000000000000004,2,0.5814809799194336,1,"(0, 2)",412,1,True,False,False,True,False,True
413,0,"{'mean': 0.29999999999999999, 'sd': 0.37}",0.5,2,0.4580700397491455,1,"(1, 3)",413,1,True,False,False,False,False,False
414,0,"{'mean': -0.29999999999999999, 'sd': 0.37}",-0.9000000000000001,2,0.4084911346435547,0,"(1, 2)",414,0,True,True,False,True,False,False
415,0,"{'mean': -0.29999999999999999, 'sd': 0.37}",-0.10000000000000009,2,0.43146395683288574,0,"(0, 2)",415,0,True,False,False,True,False,False
416,0,"{'mean': -0.29999999999999999, 'sd': 0.37}",-0.10000000000000009,3,0.9205880165100098,0,"(1, 2)",416,0,False,False,False,False,False,False
417,0,"{'mean': 0.29999999999999999, 'sd': 0.37}",0.5,2,0.3938629627227783,1,"(0, 2)",417,1,False,True,False,True,False,True
418,0,"{'mean': 0.29999999999999999, 'sd': 0.37}",0.8999999999999999,3,0.522676944732666,1,"(1, 3)",418,1,False,False,False,True,False,True
419,0,"{'mean': 0.29999999999999999, 'sd': 0.37}",-0.30000000000000004,2,0.3533451557159424,1,"(1, 2)",419,1,False,False,False,True,False,True
420,0,"{'mean': 0.29999999999999999, 'sd': 0.37}",0.30000000000000004,3,0.3180809020996094,1,"(0, 3)",420,1,False,False,False,True,False,True
421,0,"{'mean': 0.29999999999999999, 'sd': 0.37}",1.0,3,0.35468387603759766,1,"(0, 3)",421,1,True,False,False,True,False,True
422,0,"{'mean': 0.29999999999999999, 'sd': 0.37}",0.10000000000000009,2,0.33517909049987793,1,"(1, 2)",422,1,False,False,False,True,False,True
423,0,"{'mean': -0.29999999999999999, 'sd': 0.37}",-0.30000000000000004,2,0.3931717872619629,0,"(0, 2)",423,0,True,True,False,True,False,False
424,0,"{'mean': -0.29999999999999999, 'sd': 0.37}",-0.10000000000000009,3,0.46648597717285156,0,"(1, 3)",424,0,False,False,False,True,False,False
425,0,"{'mean': -0.29999999999999999, 'sd': 0.37}",-0.5,3,0.3452489376068115,0,"(1, 3)",425,0,True,False,False,True,False,False
426,0,"{'mean': -0.29999999999999999, 'sd': 0.37}",-0.7000000000000001,2,0.6117639541625977,0,"(1, 2)",426,0,False,False,False,True,False,False
427,0,"{'mean': -0.29999999999999999, 'sd': 0.37}",-0.10000000000000009,2,0.49703097343444824,0,"(0, 3)",427,0,True,False,False,False,False,False
428,0,"{'mean': -0.29999999999999999, 'sd': 0.37}",-0.10000000000000009,2,0.28696703910827637,0,"(0, 2)",428,0,True,False,False,True,False,False
429,0,"{'mean': -0.29999999999999999, 'sd': 0.37}",-0.30000000000000004,2,0.4189901351928711,0,"(0, 2)",429,0,True,False,False,True,False,False
430,0,"{'mean': -0.29999999999999999, 'sd': 0.37}",-0.7000000000000001,3,0.4753298759460449,0,"(1, 3)",430,0,False,False,False,True,False,False
431,0,"{'mean': -0.29999999999999999, 'sd': 0.37}",-0.30000000000000004,2,0.7670609951019287,0,"(0, 2)",431,0,False,False,False,True,False,False
432,0,"{'mean': -0.29999999999999999, 'sd': 0.37}",-0.10000000000000009,2,0.6184918880462646,0,"(1, 2)",432,0,True,False,False,True,False,False
433,0,"{'mean': -0.29999999999999999, 'sd': 0.37}",-0.7000000000000001,3,0.4494450092315674,0,"(1, 3)",433,0,False,False,False,True,False,False
434,0,"{'mean': -0.29999999999999999, 'sd': 0.37}",-0.5,2,0.3520228862762451,0,"(0, 2)",434,0,False,False,False,True,False,False
435,0,"{'mean': -0.29999999999999999, 'sd': 0.37}",0.10000000000000009,3,0.49252796173095703,0,"(0, 3)",435,0,False,False,False,True,False,False
436,0,"{'mean': -0.29999999999999999, 'sd': 0.37}",-0.7000000000000001,2,0.45542192459106445,0,"(0, 2)",436,0,False,False,False,True,False,False
437,0,"{'mean': -0.29999999999999999, 'sd': 0.37}",0.30000000000000004,3,0.5037457942962646,0,"(0, 2)",437,0,False,False,False,False,False,False
438,0,"{'mean': -0.29999999999999999, 'sd': 0.37}",-0.7000000000000001,3,0.4571709632873535,0,"(0, 3)",438,0,True,False,False,True,False,False
439,0,"{'mean': -0.29999999999999999, 'sd': 0.37}",-0.7000000000000001,2,0.48828983306884766,0,"(0, 3)",439,0,False,False,False,False,False,False
440,0,"{'mean': -0.29999999999999999, 'sd': 0.37}",-0.7000000000000001,2,0.35081005096435547,0,"(0, 2)",440,0,True,False,False,True,False,False
441,0,"{'mean': -0.29999999999999999, 'sd': 0.37}",-0.9000000000000001,2,0.398082971572876,0,"(1, 2)",441,0,True,False,False,True,False,False
442,0,"{'mean': -0.29999999999999999, 'sd': 0.37}",0.30000000000000004,3,0.28049612045288086,0,"(0, 3)",442,0,False,False,False,True,False,False
443,0,"{'mean': -0.29999999999999999, 'sd': 0.37}",0.10000000000000009,2,0.31858205795288086,0,"(0, 3)",443,0,False,False,False,False,False,False
444,0,"{'mean': -0.29999999999999999, 'sd': 0.37}",0.8999999999999999,3,0.6713850498199463,0,"(1, 3)",444,0,False,False,False,True,False,False
445,0,"{'mean': -0.29999999999999999, 'sd': 0.37}",-0.10000000000000009,3,0.42998194694519043,0,"(1, 3)",445,0,True,False,False,True,False,False
446,0,"{'mean': -0.29999999999999999, 'sd': 0.37}",0.30000000000000004,3,0.2946929931640625,0,"(1, 3)",446,0,True,False,False,True,False,False
447,0,"{'mean': -0.29999999999999999, 'sd': 0.37}",-0.10000000000000009,3,0.46338486671447754,0,"(0, 2)",447,0,True,False,False,False,False,False
448,0,"{'mean': -0.29999999999999999, 'sd': 0.37}",-0.5,2,0.2992088794708252,0,"(0, 2)",448,0,False,False,False,True,False,False
449,0,"{'mean': -0.29999999999999999, 'sd': 0.37}",0.30000000000000004,2,0.49362707138061523,0,"(0, 2)",449,0,True,False,False,True,False,False
450,0,"{'mean': 0.29999999999999999, 'sd': 0.37}",0.30000000000000004,2,0.41244006156921387,1,"(1, 2)",450,1,True,True,False,True,False,True
451,0,"{'mean': 0.29999999999999999, 'sd': 0.37}",-0.10000000000000009,2,0.3811819553375244,1,"(1, 2)",451,1,True,False,False,True,False,True
452,0,"{'mean': 0.29999999999999999, 'sd': 0.37}",0.8999999999999999,2,0.3352229595184326,1,"(1, 2)",452,1,True,False,False,True,False,True
453,0,"{'mean': -0.29999999999999999, 'sd': 0.37}",0.10000000000000009,2,0.31104207038879395,0,"(0, 3)",453,0,True,True,False,False,False,False
454,0,"{'mean': -0.29999999999999999, 'sd': 0.37}",0.10000000000000009,2,0.270388126373291,0,"(0, 2)",454,0,True,False,False,True,False,False
455,0,"{'mean': 0.29999999999999999, 'sd': 0.37}",0.5,2,0.48836803436279297,1,"(1, 2)",455,1,True,True,False,True,False,True
456,0,"{'mean': 0.29999999999999999, 'sd': 0.37}",0.7,3,0.512721061706543,1,"(0, 3)",456,1,False,False,False,True,False,True
457,0,"{'mean': 0.29999999999999999, 'sd': 0.37}",0.30000000000000004,3,0.5303490161895752,1,"(1, 3)",457,1,True,False,False,True,False,True
458,0,"{'mean': 0.29999999999999999, 'sd': 0.37}",0.30000000000000004,2,0.36245107650756836,1,"(1, 3)",458,1,False,False,False,False,False,False
459,0,"{'mean': 0.29999999999999999, 'sd': 0.37}",-0.10000000000000009,2,0.41347193717956543,1,"(1, 3)",459,1,True,False,False,False,False,False
460,0,"{'mean': 0.29999999999999999, 'sd': 0.37}",0.5,3,0.4688689708709717,1,"(1, 3)",460,1,False,False,False,True,False,True
461,0,"{'mean': 0.29999999999999999, 'sd': 0.37}",0.7,3,0.3635249137878418,1,"(1, 3)",461,1,True,False,False,True,False,True
462,0,"{'mean': 0.29999999999999999, 'sd': 0.37}",0.30000000000000004,2,0.36814093589782715,1,"(0, 2)",462,1,False,False,False,True,False,True
463,0,"{'mean': 0.29999999999999999, 'sd': 0.37}",0.30000000000000004,3,0.44515013694763184,1,"(0, 3)",463,1,False,False,False,True,False,True
464,0,"{'mean': 0.29999999999999999, 'sd': 0.37}",0.10000000000000009,3,0.34106898307800293,1,"(1, 2)",464,1,True,False,False,False,False,False
465,0,"{'mean': 0.29999999999999999, 'sd': 0.37}",-0.10000000000000009,2,0.42046594619750977,1,"(0, 2)",465,1,False,False,False,True,False,True
466,0,"{'mean': 0.29999999999999999, 'sd': 0.37}",-0.30000000000000004,3,0.3860940933227539,1,"(1, 3)",466,1,False,False,False,True,False,True
467,0,"{'mean': 0.29999999999999999, 'sd': 0.37}",0.10000000000000009,2,0.4034910202026367,1,"(1, 3)",467,1,False,False,False,False,False,False
468,0,"{'mean': 0.29999999999999999, 'sd': 0.37}",0.5,2,0.3480339050292969,1,"(0, 3)",468,1,True,False,False,False,False,False
469,0,"{'mean': 0.29999999999999999, 'sd': 0.37}",0.5,3,0.5304021835327148,1,"(0, 3)",469,1,False,False,False,True,False,True
470,0,"{'mean': 0.29999999999999999, 'sd': 0.37}",0.5,3,0.5798249244689941,1,"(0, 3)",470,1,True,False,False,True,False,True
471,0,"{'mean': 0.29999999999999999, 'sd': 0.37}",0.30000000000000004,3,0.3334980010986328,1,"(1, 3)",471,1,True,False,False,True,False,True
472,0,"{'mean': 0.29999999999999999, 'sd': 0.37}",0.10000000000000009,3,0.3412470817565918,1,"(1, 3)",472,1,True,False,False,True,False,True
473,0,"{'mean': 0.29999999999999999, 'sd': 0.37}",-0.10000000000000009,2,0.3300478458404541,1,"(1, 2)",473,1,False,False,False,True,False,True
474,0,"{'mean': 0.29999999999999999, 'sd': 0.37}",0.5,3,0.4412541389465332,1,"(0, 2)",474,1,False,False,False,False,False,False
475,0,"{'mean': 0.29999999999999999, 'sd': 0.37}",-0.10000000000000009,2,0.7373330593109131,1,"(1, 2)",475,1,False,False,False,True,False,True
476,0,"{'mean': -0.29999999999999999, 'sd': 0.37}",-0.5,3,0.4069859981536865,0,"(0, 3)",476,0,False,True,False,True,False,False
477,0,"{'mean': -0.29999999999999999, 'sd': 0.37}",-0.5,3,0.3557610511779785,0,"(0, 3)",477,0,True,False,False,True,False,False
478,0,"{'mean': -0.29999999999999999, 'sd': 0.37}",0.30000000000000004,2,0.31331801414489746,0,"(1, 2)",478,0,False,False,False,True,False,False
479,0,"{'mean': -0.29999999999999999, 'sd': 0.37}",0.30000000000000004,2,0.4481010437011719,0,"(1, 2)",479,0,True,False,False,True,False,False
480,0,"{'mean': -0.29999999999999999, 'sd': 0.37}",-0.5,3,0.506342887878418,0,"(0, 3)",480,0,False,False,False,True,False,False
481,0,"{'mean': 0.29999999999999999, 'sd': 0.37}",0.30000000000000004,3,0.3552110195159912,1,"(1, 3)",481,1,True,True,False,True,False,True
482,0,"{'mean': 0.29999999999999999, 'sd': 0.37}",0.30000000000000004,2,0.3970761299133301,1,"(1, 2)",482,1,False,False,False,True,False,True
483,0,"{'mean': 0.29999999999999999, 'sd': 0.37}",0.30000000000000004,2,0.6626718044281006,1,"(1, 3)",483,1,True,False,False,False,False,False
484,0,"{'mean': -0.29999999999999999, 'sd': 0.37}",0.5,2,0.31931591033935547,0,"(0, 3)",484,0,True,True,False,False,False,False
485,0,"{'mean': -0.29999999999999999, 'sd': 0.37}",-0.30000000000000004,2,0.2717709541320801,0,"(1, 2)",485,0,True,False,False,True,False,False
486,0,"{'mean': -0.29999999999999999, 'sd': 0.37}",-0.30000000000000004,2,0.3128180503845215,0,"(0, 2)",486,0,True,False,False,True,False,False
487,0,"{'mean': 0.29999999999999999, 'sd': 0.37}",0.5,3,0.38469481468200684,1,"(0, 3)",487,1,False,True,False,True,False,True
488,0,"{'mean': 0.29999999999999999, 'sd': 0.37}",-0.30000000000000004,3,0.3222050666809082,1,"(0, 3)",488,1,True,False,False,True,False,True
489,0,"{'mean': 0.29999999999999999, 'sd': 0.37}",0.10000000000000009,2,0.42670297622680664,1,"(0, 2)",489,1,False,False,False,True,False,True
490,0,"{'mean': 0.29999999999999999, 'sd': 0.37}",-0.10000000000000009,3,0.5633478164672852,1,"(1, 3)",490,1,False,False,False,True,False,True
491,0,"{'mean': -0.29999999999999999, 'sd': 0.37}",-0.5,3,0.43434786796569824,0,"(1, 3)",491,0,True,True,False,True,False,False
492,0,"{'mean': -0.29999999999999999, 'sd': 0.37}",-0.30000000000000004,3,0.7212460041046143,0,"(1, 2)",492,0,True,False,False,False,False,False
493,0,"{'mean': -0.29999999999999999, 'sd': 0.37}",-0.30000000000000004,2,0.36852002143859863,0,"(0, 2)",493,0,False,False,False,True,False,False
494,0,"{'mean': -0.29999999999999999, 'sd': 0.37}",-0.10000000000000009,2,0.7798480987548828,0,"(0, 2)",494,0,True,False,False,True,False,False
495,0,"{'mean': -0.29999999999999999, 'sd': 0.37}",-0.10000000000000009,3,0.30598020553588867,0,"(1, 2)",495,0,False,False,False,False,False,False
496,0,"{'mean': -0.29999999999999999, 'sd': 0.37}",-0.7000000000000001,3,0.8861699104309082,0,"(1, 3)",496,0,True,False,False,True,False,False
497,0,"{'mean': -0.29999999999999999, 'sd': 0.37}",-0.30000000000000004,2,1.229140043258667,0,"(0, 2)",497,0,False,False,False,True,False,False
498,0,"{'mean': -0.29999999999999999, 'sd': 0.37}",-0.7000000000000001,2,0.5391061305999756,0,"(0, 2)",498,0,True,False,False,True,False,False
499,0,"{'mean': -0.29999999999999999, 'sd': 0.37}",-0.5,2,0.3090810775756836,0,"(1, 2)",499,0,True,False,False,True,False,False
500,0,"{'mean': 0.29999999999999999, 'sd': 0.37}",0.10000000000000009,3,0.361936092376709,1,"(0, 3)",500,1,False,True,False,True,False,True
501,0,"{'mean': 0.29999999999999999, 'sd': 0.37}",0.30000000000000004,3,0.3007349967956543,1,"(0, 2)",501,1,True,False,False,False,False,False
502,0,"{'mean': 0.29999999999999999, 'sd': 0.37}",0.5,2,0.4310760498046875,1,"(1, 2)",502,1,False,False,False,True,False,True
503,0,"{'mean': 0.29999999999999999, 'sd': 0.37}",0.10000000000000009,2,0.43095898628234863,1,"(1, 2)",503,1,True,False,False,True,False,True
504,0,"{'mean': 0.29999999999999999, 'sd': 0.37}",0.8999999999999999,3,0.6213390827178955,1,"(0, 3)",504,1,False,False,False,True,False,True
505,0,"{'mean': 0.29999999999999999, 'sd': 0.37}",0.30000000000000004,2,0.5662059783935547,1,"(0, 2)",505,1,False,False,False,True,False,True
506,0,"{'mean': 0.29999999999999999, 'sd': 0.37}",0.10000000000000009,3,0.47031497955322266,1,"(0, 3)",506,1,False,False,False,True,False,True
507,0,"{'mean': 0.29999999999999999, 'sd': 0.37}",-0.10000000000000009,3,0.5659928321838379,1,"(0, 3)",507,1,True,False,False,True,False,True
508,0,"{'mean': 0.29999999999999999, 'sd': 0.37}",-0.30000000000000004,2,0.47690510749816895,1,"(0, 2)",508,1,False,False,False,True,False,True
509,0,"{'mean': 0.29999999999999999, 'sd': 0.37}",0.30000000000000004,2,0.4284648895263672,1,"(1, 2)",509,1,True,False,False,True,False,True
510,0,"{'mean': 0.29999999999999999, 'sd': 0.37}",0.30000000000000004,2,0.39804601669311523,1,"(1, 2)",510,1,True,False,False,True,False,True
511,0,"{'mean': 0.29999999999999999, 'sd': 0.37}",1.0,2,0.4398939609527588,1,"(0, 2)",511,1,True,False,False,True,False,True
512,0,"{'mean': 0.29999999999999999, 'sd': 0.37}",0.7,2,0.28273510932922363,1,"(1, 2)",512,1,True,False,False,True,False,True
513,0,"{'mean': 0.29999999999999999, 'sd': 0.37}",0.10000000000000009,3,0.46610498428344727,1,"(0, 3)",513,1,False,False,False,True,False,True
514,0,"{'mean': 0.29999999999999999, 'sd': 0.37}",0.7,2,0.3712189197540283,1,"(0, 2)",514,1,False,False,False,True,False,True
515,0,"{'mean': 0.29999999999999999, 'sd': 0.37}",0.5,2,0.2933921813964844,1,"(0, 2)",515,1,True,False,False,True,False,True
516,0,"{'mean': 0.29999999999999999, 'sd': 0.37}",0.7,2,0.34012317657470703,1,"(0, 2)",516,1,True,False,False,True,False,True
517,0,"{'mean': 0.29999999999999999, 'sd': 0.37}",0.7,2,0.32443785667419434,1,"(0, 2)",517,1,True,False,False,True,False,True
518,0,"{'mean': 0.29999999999999999, 'sd': 0.37}",0.7,3,0.423382043838501,1,"(1, 3)",518,1,False,False,False,True,False,True
519,0,"{'mean': 0.29999999999999999, 'sd': 0.37}",0.30000000000000004,2,0.423206090927124,1,"(0, 2)",519,1,False,False,False,True,False,True
520,0,"{'mean': 0.29999999999999999, 'sd': 0.37}",-0.30000000000000004,3,0.44727182388305664,1,"(0, 3)",520,1,False,False,False,True,False,True
521,0,"{'mean': 0.29999999999999999, 'sd': 0.37}",0.5,2,0.37923312187194824,1,"(1, 2)",521,1,False,False,False,True,False,True
522,0,"{'mean': 0.29999999999999999, 'sd': 0.37}",-0.5,2,0.33231401443481445,1,"(0, 2)",522,1,True,False,False,True,False,True
523,0,"{'mean': -0.29999999999999999, 'sd': 0.37}",0.30000000000000004,2,0.37033700942993164,0,"(1, 2)",523,0,True,True,False,True,False,False
524,0,"{'mean': -0.29999999999999999, 'sd': 0.37}",-0.5,2,0.3974418640136719,0,"(0, 2)",524,0,True,False,False,True,False,False
525,0,"{'mean': -0.29999999999999999, 'sd': 0.37}",-0.30000000000000004,3,0.4455840587615967,0,"(1, 3)",525,0,False,False,False,True,False,False
526,0,"{'mean': -0.29999999999999999, 'sd': 0.37}",-0.10000000000000009,2,0.39148998260498047,0,"(0, 3)",526,0,False,False,False,False,False,False
527,0,"{'mean': -0.29999999999999999, 'sd': 0.37}",0.10000000000000009,2,0.30704498291015625,0,"(0, 2)",527,0,True,False,False,True,False,False
528,0,"{'mean': 0.29999999999999999, 'sd': 0.37}",0.8999999999999999,3,0.5898511409759521,1,"(1, 3)",528,1,False,True,False,True,False,True
529,0,"{'mean': 0.29999999999999999, 'sd': 0.37}",-0.5,2,0.4498579502105713,1,"(0, 2)",529,1,False,False,False,True,False,True
530,0,"{'mean': 0.29999999999999999, 'sd': 0.37}",0.8999999999999999,3,0.7857110500335693,1,"(1, 2)",530,1,False,False,False,False,False,False
531,0,"{'mean': 0.29999999999999999, 'sd': 0.37}",-0.5,3,0.34242987632751465,1,"(0, 2)",531,1,True,False,False,False,False,False
532,0,"{'mean': 0.29999999999999999, 'sd': 0.37}",0.10000000000000009,2,0.3341190814971924,1,"(0, 3)",532,1,False,False,False,False,False,False
533,0,"{'mean': 0.29999999999999999, 'sd': 0.37}",0.10000000000000009,3,0.5362939834594727,1,"(1, 3)",533,1,False,False,False,True,False,True
534,0,"{'mean': 0.29999999999999999, 'sd': 0.37}",0.30000000000000004,3,0.5931849479675293,1,"(1, 3)",534,1,True,False,False,True,False,True
535,0,"{'mean': 0.29999999999999999, 'sd': 0.37}",0.7,2,0.4279310703277588,1,"(0, 2)",535,1,False,False,False,True,False,True
536,0,"{'mean': 0.29999999999999999, 'sd': 0.37}",0.10000000000000009,3,0.5383050441741943,1,"(1, 3)",536,1,False,False,False,True,False,True
537,0,"{'mean': -0.29999999999999999, 'sd': 0.37}",-0.9000000000000001,2,0.4760158061981201,0,"(1, 3)",537,0,False,True,False,False,False,False
538,0,"{'mean': -0.29999999999999999, 'sd': 0.37}",-0.5,2,0.618614912033081,0,"(1, 2)",538,0,True,False,False,True,False,False
539,0,"{'mean': -0.29999999999999999, 'sd': 0.37}",-0.5,3,0.5293869972229004,0,"(1, 3)",539,0,False,False,False,True,False,False
540,0,"{'mean': -0.29999999999999999, 'sd': 0.37}",0.10000000000000009,3,0.7801220417022705,0,"(1, 2)",540,0,True,False,False,False,False,False
541,0,"{'mean': -0.29999999999999999, 'sd': 0.37}",-0.10000000000000009,2,0.6855490207672119,0,"(1, 2)",541,0,False,False,False,True,False,False
542,0,"{'mean': -0.29999999999999999, 'sd': 0.37}",-0.7000000000000001,2,0.8175990581512451,0,"(1, 2)",542,0,True,False,False,True,False,False
543,0,"{'mean': -0.29999999999999999, 'sd': 0.37}",-1.0,2,0.6181380748748779,0,"(1, 2)",543,0,True,False,False,True,False,False
544,0,"{'mean': -0.29999999999999999, 'sd': 0.37}",-0.7000000000000001,2,0.4154081344604492,0,"(0, 2)",544,0,True,False,False,True,False,False
545,0,"{'mean': -0.29999999999999999, 'sd': 0.37}",-0.30000000000000004,2,0.34464311599731445,0,"(1, 2)",545,0,True,False,False,True,False,False
546,0,"{'mean': -0.29999999999999999, 'sd': 0.37}",-0.5,3,0.46630287170410156,0,"(0, 3)",546,0,False,False,False,True,False,False
547,0,"{'mean': -0.29999999999999999, 'sd': 0.37}",-0.5,2,0.5314199924468994,0,"(0, 2)",547,0,False,False,False,True,False,False
548,0,"{'mean': -0.29999999999999999, 'sd': 0.37}",-0.7000000000000001,2,0.41068315505981445,0,"(1, 2)",548,0,True,False,False,True,False,False
549,0,"{'mean': -0.29999999999999999, 'sd': 0.37}",-0.5,3,0.6073780059814453,0,"(0, 3)",549,0,False,False,False,True,False,False
550,0,"{'mean': -0.29999999999999999, 'sd': 0.37}",-0.5,3,0.2821080684661865,0,"(0, 3)",550,0,True,False,False,True,False,False
551,0,"{'mean': -0.29999999999999999, 'sd': 0.37}",-0.5,2,0.44659996032714844,0,"(1, 2)",551,0,False,False,False,True,False,False
552,0,"{'mean': -0.29999999999999999, 'sd': 0.37}",0.30000000000000004,2,0.46062803268432617,0,"(1, 2)",552,0,True,False,False,True,False,False
553,0,"{'mean': -0.29999999999999999, 'sd': 0.37}",-1.0,2,0.3712639808654785,0,"(1, 2)",553,0,True,False,False,True,False,False
554,0,"{'mean': -0.29999999999999999, 'sd': 0.37}",-0.30000000000000004,3,0.4262359142303467,0,"(0, 3)",554,0,False,False,False,True,False,False
555,0,"{'mean': -0.29999999999999999, 'sd': 0.37}",-0.7000000000000001,2,0.33049702644348145,0,"(1, 3)",555,0,False,False,False,False,False,False
556,0,"{'mean': -0.29999999999999999, 'sd': 0.37}",-0.9000000000000001,2,0.6226480007171631,0,"(0, 2)",556,0,True,False,False,True,False,False
557,0,"{'mean': 0.29999999999999999, 'sd': 0.37}",0.7,2,0.4446408748626709,1,"(0, 2)",557,1,True,True,False,True,False,True
558,0,"{'mean': 0.29999999999999999, 'sd': 0.37}",0.7,2,0.4528310298919678,1,"(0, 3)",558,1,True,False,False,False,False,False
559,0,"{'mean': 0.29999999999999999, 'sd': 0.37}",0.10000000000000009,2,0.35622692108154297,1,"(0, 3)",559,1,True,False,False,False,False,False
560,0,"{'mean': 0.29999999999999999, 'sd': 0.37}",-0.10000000000000009,2,0.4430711269378662,1,"(0, 2)",560,1,True,False,False,True,False,True
561,0,"{'mean': -0.29999999999999999, 'sd': 0.37}",-0.10000000000000009,2,0.337630033493042,0,"(1, 3)",561,0,True,True,False,False,False,False
562,0,"{'mean': -0.29999999999999999, 'sd': 0.37}",-0.30000000000000004,2,0.4051477909088135,0,"(0, 2)",562,0,True,False,False,True,False,False
563,0,"{'mean': 0.29999999999999999, 'sd': 0.37}",1.0,2,0.41056013107299805,1,"(1, 2)",563,1,True,True,False,True,False,True
564,0,"{'mean': 0.29999999999999999, 'sd': 0.37}",0.10000000000000009,3,0.44386792182922363,1,"(1, 3)",564,1,False,False,False,True,False,True
565,0,"{'mean': 0.29999999999999999, 'sd': 0.37}",0.10000000000000009,3,0.2825770378112793,1,"(1, 3)",565,1,True,False,False,True,False,True
566,0,"{'mean': 0.29999999999999999, 'sd': 0.37}",-0.30000000000000004,3,0.26998400688171387,1,"(0, 3)",566,1,True,False,False,True,False,True
567,0,"{'mean': 0.29999999999999999, 'sd': 0.37}",-0.30000000000000004,3,0.25133514404296875,1,"(0, 3)",567,1,True,False,False,True,False,True
568,0,"{'mean': 0.29999999999999999, 'sd': 0.37}",0.30000000000000004,3,0.382997989654541,1,"(0, 3)",568,1,True,False,False,True,False,True
569,0,"{'mean': 0.29999999999999999, 'sd': 0.37}",0.7,3,0.34925293922424316,1,"(0, 3)",569,1,True,False,False,True,False,True
570,0,"{'mean': 0.29999999999999999, 'sd': 0.37}",1.0,3,0.3881840705871582,1,"(1, 3)",570,1,True,False,False,True,False,True
571,0,"{'mean': 0.29999999999999999, 'sd': 0.37}",0.5,3,0.34110307693481445,1,"(0, 3)",571,1,True,False,False,True,False,True
572,0,"{'mean': 0.29999999999999999, 'sd': 0.37}",-0.10000000000000009,2,0.38565683364868164,1,"(1, 2)",572,1,False,False,False,True,False,True
573,0,"{'mean': -0.29999999999999999, 'sd': 0.37}",-0.7000000000000001,2,0.3612639904022217,0,"(1, 2)",573,0,True,True,False,True,False,False
574,0,"{'mean': -0.29999999999999999, 'sd': 0.37}",-0.5,3,0.5183398723602295,0,"(1, 3)",574,0,False,False,False,True,False,False
575,0,"{'mean': 0.29999999999999999, 'sd': 0.37}",0.30000000000000004,2,0.3475048542022705,1,"(0, 2)",575,1,False,True,False,True,False,True
576,0,"{'mean': -0.29999999999999999, 'sd': 0.37}",-0.10000000000000009,2,0.37903404235839844,0,"(1, 2)",576,0,True,True,False,True,False,False
577,0,"{'mean': -0.29999999999999999, 'sd': 0.37}",-0.7000000000000001,3,0.464724063873291,0,"(1, 3)",577,0,False,False,False,True,False,False
578,0,"{'mean': -0.29999999999999999, 'sd': 0.37}",-0.7000000000000001,3,0.4574558734893799,0,"(1, 3)",578,0,True,False,False,True,False,False
579,0,"{'mean': -0.29999999999999999, 'sd': 0.37}",0.10000000000000009,2,0.3766000270843506,0,"(0, 2)",579,0,False,False,False,True,False,False
580,0,"{'mean': -0.29999999999999999, 'sd': 0.37}",0.10000000000000009,3,0.48153090476989746,0,"(0, 3)",580,0,False,False,False,True,False,False
581,0,"{'mean': -0.29999999999999999, 'sd': 0.37}",0.5,2,0.37607502937316895,0,"(0, 2)",581,0,False,False,False,True,False,False
582,0,"{'mean': 0.29999999999999999, 'sd': 0.37}",1.0,3,0.3619530200958252,1,"(1, 3)",582,1,False,True,False,True,False,True
583,0,"{'mean': 0.29999999999999999, 'sd': 0.37}",0.30000000000000004,2,0.25749802589416504,1,"(1, 2)",583,1,False,False,False,True,False,True
584,0,"{'mean': 0.29999999999999999, 'sd': 0.37}",0.30000000000000004,3,0.36389994621276855,1,"(0, 3)",584,1,False,False,False,True,False,True
585,0,"{'mean': 0.29999999999999999, 'sd': 0.37}",0.7,2,0.4866650104522705,1,"(0, 3)",585,1,False,False,False,False,False,False
586,0,"{'mean': 0.29999999999999999, 'sd': 0.37}",0.5,2,0.5708961486816406,1,"(1, 2)",586,1,True,False,False,True,False,True
587,0,"{'mean': 0.29999999999999999, 'sd': 0.37}",0.10000000000000009,3,1.2040860652923584,1,"(0, 3)",587,1,False,False,False,True,False,True
588,0,"{'mean': 0.29999999999999999, 'sd': 0.37}",0.30000000000000004,2,0.34886813163757324,1,"(1, 2)",588,1,False,False,False,True,False,True
589,0,"{'mean': 0.29999999999999999, 'sd': 0.37}",0.5,3,0.3619680404663086,1,"(0, 3)",589,1,False,False,False,True,False,True
590,0,"{'mean': 0.29999999999999999, 'sd': 0.37}",-0.10000000000000009,3,0.40206003189086914,1,"(1, 3)",590,1,True,False,False,True,False,True
591,0,"{'mean': 0.29999999999999999, 'sd': 0.37}",-0.7000000000000001,3,0.34842395782470703,1,"(0, 3)",591,1,True,False,False,True,False,True
592,0,"{'mean': 0.29999999999999999, 'sd': 0.37}",-0.30000000000000004,2,0.3486909866333008,1,"(0, 2)",592,1,False,False,False,True,False,True
593,0,"{'mean': 0.29999999999999999, 'sd': 0.37}",-0.10000000000000009,2,0.25464487075805664,1,"(1, 2)",593,1,True,False,False,True,False,True
594,0,"{'mean': 0.29999999999999999, 'sd': 0.37}",0.7,2,0.39016294479370117,1,"(1, 3)",594,1,True,False,False,False,False,False
595,0,"{'mean': 0.29999999999999999, 'sd': 0.37}",0.8999999999999999,3,0.536020040512085,1,"(1, 3)",595,1,False,False,False,True,False,True
596,0,"{'mean': 0.29999999999999999, 'sd': 0.37}",0.7,3,0.32279300689697266,1,"(1, 3)",596,1,True,False,False,True,False,True
597,0,"{'mean': 0.29999999999999999, 'sd': 0.37}",0.7,3,0.27962517738342285,1,"(0, 3)",597,1,True,False,False,True,False,True
598,0,"{'mean': 0.29999999999999999, 'sd': 0.37}",-0.10000000000000009,2,0.4249298572540283,1,"(0, 2)",598,1,False,False,False,True,False,True
599,0,"{'mean': -0.29999999999999999, 'sd': 0.37}",-0.10000000000000009,2,0.399461030960083,0,"(0, 2)",599,0,True,True,False,True,False,False
600,0,"{'mean': -0.29999999999999999, 'sd': 0.37}",0.30000000000000004,2,0.29659605026245117,0,"(1, 2)",600,0,True,False,False,True,False,False
601,0,"{'mean': -0.29999999999999999, 'sd': 0.37}",-0.5,2,0.29236698150634766,0,"(1, 2)",601,0,True,False,False,True,False,False
602,0,"{'mean': -0.29999999999999999, 'sd': 0.37}",-0.30000000000000004,3,0.43390893936157227,0,"(1, 3)",602,0,False,False,False,True,False,False
603,0,"{'mean': -0.29999999999999999, 'sd': 0.37}",-0.30000000000000004,3,0.3757140636444092,0,"(1, 3)",603,0,True,False,False,True,False,False
604,0,"{'mean': -0.29999999999999999, 'sd': 0.37}",-0.10000000000000009,3,0.429534912109375,0,"(1, 3)",604,0,True,False,False,True,False,False
605,0,"{'mean': -0.29999999999999999, 'sd': 0.37}",-0.5,2,0.3269309997558594,0,"(0, 2)",605,0,False,False,False,True,False,False
606,0,"{'mean': -0.29999999999999999, 'sd': 0.37}",-0.30000000000000004,3,0.34831786155700684,0,"(1, 2)",606,0,False,False,False,False,False,False
607,0,"{'mean': -0.29999999999999999, 'sd': 0.37}",0.30000000000000004,2,0.4409008026123047,0,"(1, 2)",607,0,False,False,False,True,False,False
608,0,"{'mean': -0.29999999999999999, 'sd': 0.37}",-0.7000000000000001,2,0.3512258529663086,0,"(1, 3)",608,0,True,False,False,False,False,False
609,0,"{'mean': -0.29999999999999999, 'sd': 0.37}",-0.30000000000000004,3,0.4074079990386963,0,"(1, 3)",609,0,False,False,False,True,False,False
610,0,"{'mean': -0.29999999999999999, 'sd': 0.37}",0.30000000000000004,3,0.3004739284515381,0,"(1, 3)",610,0,True,False,False,True,False,False
611,0,"{'mean': -0.29999999999999999, 'sd': 0.37}",0.30000000000000004,2,0.44412803649902344,0,"(0, 2)",611,0,False,False,False,True,False,False
612,0,"{'mean': -0.29999999999999999, 'sd': 0.37}",-0.30000000000000004,3,0.34659695625305176,0,"(1, 3)",612,0,False,False,False,True,False,False
613,0,"{'mean': -0.29999999999999999, 'sd': 0.37}",-0.5,3,0.3197290897369385,0,"(0, 3)",613,0,True,False,False,True,False,False
614,0,"{'mean': -0.29999999999999999, 'sd': 0.37}",-0.5,3,0.3270440101623535,0,"(1, 3)",614,0,True,False,False,True,False,False
615,0,"{'mean': -0.29999999999999999, 'sd': 0.37}",-0.30000000000000004,3,0.48697900772094727,0,"(1, 3)",615,0,True,False,False,True,False,False
616,0,"{'mean': -0.29999999999999999, 'sd': 0.37}",-0.30000000000000004,3,0.24222302436828613,0,"(1, 3)",616,0,True,False,False,True,False,False
617,0,"{'mean': 0.29999999999999999, 'sd': 0.37}",0.30000000000000004,3,0.3020460605621338,1,"(0, 3)",617,1,True,True,False,True,False,True
618,0,"{'mean': 0.29999999999999999, 'sd': 0.37}",0.7,2,0.3927650451660156,1,"(0, 2)",618,1,False,False,False,True,False,True
619,0,"{'mean': 0.29999999999999999, 'sd': 0.37}",0.5,3,0.35048604011535645,1,"(1, 2)",619,1,False,False,False,False,False,False
620,0,"{'mean': 0.29999999999999999, 'sd': 0.37}",0.5,2,0.344249963760376,1,"(1, 2)",620,1,False,False,False,True,False,True
621,0,"{'mean': 0.29999999999999999, 'sd': 0.37}",-0.5,3,0.2903401851654053,1,"(0, 3)",621,1,False,False,False,True,False,True
622,0,"{'mean': 0.29999999999999999, 'sd': 0.37}",0.5,2,0.29827189445495605,1,"(0, 2)",622,1,False,False,False,True,False,True
623,0,"{'mean': -0.29999999999999999, 'sd': 0.37}",0.7,3,0.42868614196777344,0,"(1, 3)",623,0,False,True,False,True,False,False
624,0,"{'mean': -0.29999999999999999, 'sd': 0.37}",0.10000000000000009,3,0.3743138313293457,0,"(1, 3)",624,0,True,False,False,True,False,False
625,0,"{'mean': 0.29999999999999999, 'sd': 0.37}",0.5,2,0.366361141204834,1,"(0, 2)",625,1,False,True,False,True,False,True
626,0,"{'mean': 0.29999999999999999, 'sd': 0.37}",0.7,3,0.40082406997680664,1,"(1, 3)",626,1,False,False,False,True,False,True
627,0,"{'mean': 0.29999999999999999, 'sd': 0.37}",0.5,2,0.38446688652038574,1,"(1, 2)",627,1,False,False,False,True,False,True
628,0,"{'mean': 0.29999999999999999, 'sd': 0.37}",0.5,3,0.29569196701049805,1,"(1, 2)",628,1,False,False,False,False,False,False
629,0,"{'mean': -0.29999999999999999, 'sd': 0.37}",-0.30000000000000004,2,0.5207009315490723,0,"(0, 3)",629,0,False,True,False,False,False,False
630,0,"{'mean': -0.29999999999999999, 'sd': 0.37}",0.30000000000000004,3,0.505774974822998,0,"(1, 2)",630,0,False,False,False,False,False,False
631,0,"{'mean': -0.29999999999999999, 'sd': 0.37}",-0.10000000000000009,3,0.465717077255249,0,"(1, 3)",631,0,True,False,False,True,False,False
632,0,"{'mean': -0.29999999999999999, 'sd': 0.37}",-0.10000000000000009,3,0.35726189613342285,0,"(1, 3)",632,0,True,False,False,True,False,False
633,0,"{'mean': -0.29999999999999999, 'sd': 0.37}",-0.30000000000000004,2,0.3167459964752197,0,"(0, 2)",633,0,False,False,False,True,False,False
634,0,"{'mean': -0.29999999999999999, 'sd': 0.37}",0.10000000000000009,2,0.3857889175415039,0,"(1, 3)",634,0,True,False,False,False,False,False
635,0,"{'mean': -0.29999999999999999, 'sd': 0.37}",-0.10000000000000009,3,0.7046630382537842,0,"(0, 3)",635,0,False,False,False,True,False,False
636,0,"{'mean': -0.29999999999999999, 'sd': 0.37}",0.30000000000000004,3,0.5324881076812744,0,"(0, 3)",636,0,True,False,False,True,False,False
637,0,"{'mean': -0.29999999999999999, 'sd': 0.37}",-0.9000000000000001,2,0.30629515647888184,0,"(0, 3)",637,0,False,False,False,False,False,False
638,0,"{'mean': -0.29999999999999999, 'sd': 0.37}",-0.9000000000000001,3,0.37120509147644043,0,"(0, 3)",638,0,False,False,False,True,False,False
639,0,"{'mean': -0.29999999999999999, 'sd': 0.37}",0.10000000000000009,2,0.36180686950683594,0,"(0, 2)",639,0,False,False,False,True,False,False
640,0,"{'mean': -0.29999999999999999, 'sd': 0.37}",-0.7000000000000001,2,0.6082420349121094,0,"(0, 2)",640,0,True,False,False,True,False,False
641,0,"{'mean': -0.29999999999999999, 'sd': 0.37}",-0.5,2,0.34659814834594727,0,"(0, 3)",641,0,True,False,False,False,False,False
642,0,"{'mean': -0.29999999999999999, 'sd': 0.37}",-0.10000000000000009,3,0.4497261047363281,0,"(1, 3)",642,0,False,False,False,True,False,False
643,0,"{'mean': -0.29999999999999999, 'sd': 0.37}",-0.7000000000000001,2,0.41132497787475586,0,"(1, 2)",643,0,False,False,False,True,False,False
644,0,"{'mean': -0.29999999999999999, 'sd': 0.37}",0.10000000000000009,2,0.3935220241546631,0,"(1, 3)",644,0,True,False,False,False,False,False
645,0,"{'mean': -0.29999999999999999, 'sd': 0.37}",0.10000000000000009,3,0.3958120346069336,0,"(0, 3)",645,0,False,False,False,True,False,False
646,0,"{'mean': -0.29999999999999999, 'sd': 0.37}",-0.30000000000000004,2,0.42992305755615234,0,"(1, 2)",646,0,False,False,False,True,False,False
647,0,"{'mean': -0.29999999999999999, 'sd': 0.37}",0.5,2,0.3862299919128418,0,"(1, 2)",647,0,True,False,False,True,False,False
648,0,"{'mean': -0.29999999999999999, 'sd': 0.37}",-0.9000000000000001,2,0.3076660633087158,0,"(1, 2)",648,0,True,False,False,True,False,False
649,0,"{'mean': -0.29999999999999999, 'sd': 0.37}",0.30000000000000004,2,0.2904469966888428,0,"(0, 2)",649,0,True,False,False,True,False,False
650,0,"{'mean': -0.29999999999999999, 'sd': 0.37}",-0.7000000000000001,2,0.3195159435272217,0,"(1, 3)",650,0,True,False,False,False,False,False
651,0,"{'mean': -0.29999999999999999, 'sd': 0.37}",0.10000000000000009,2,0.6871662139892578,0,"(0, 3)",651,0,True,False,False,False,False,False
653,0,"{'mean': -0.29999999999999999, 'sd': 0.37}",-0.10000000000000009,3,0.7342581748962402,0,"(0, 2)",653,0,False,False,False,False,False,False
654,0,"{'mean': -0.29999999999999999, 'sd': 0.37}",-0.30000000000000004,0,0.3236558437347412,0,"(0, 3)",654,0,False,False,True,False,True,True
655,0,"{'mean': -0.29999999999999999, 'sd': 0.37}",-0.5,0,0.4129140377044678,0,"(1, 3)",655,0,True,False,False,False,True,False
656,0,"{'mean': 0.29999999999999999, 'sd': 0.37}",0.30000000000000004,3,0.42067503929138184,1,"(0, 2)",656,1,False,True,False,False,False,False
657,0,"{'mean': 0.29999999999999999, 'sd': 0.37}",-0.10000000000000009,0,0.453139066696167,1,"(0, 3)",657,1,False,False,True,False,True,False
658,0,"{'mean': 0.29999999999999999, 'sd': 0.37}",-0.10000000000000009,2,0.27976012229919434,1,"(1, 3)",658,1,False,False,False,False,True,False
659,0,"{'mean': 0.29999999999999999, 'sd': 0.37}",0.5,3,0.20447397232055664,1,"(0, 2)",659,1,False,False,False,False,False,False
660,0,"{'mean': 0.29999999999999999, 'sd': 0.37}",0.8999999999999999,3,0.27648305892944336,1,"(0, 2)",660,1,True,False,False,False,False,False
661,0,"{'mean': 0.29999999999999999, 'sd': 0.37}",0.10000000000000009,3,0.2607078552246094,1,"(1, 3)",661,1,True,False,False,True,False,True
662,0,"{'mean': 0.29999999999999999, 'sd': 0.37}",0.7,3,0.3583519458770752,1,"(0, 3)",662,1,True,False,False,True,False,True
663,0,"{'mean': 0.29999999999999999, 'sd': 0.37}",-0.30000000000000004,3,0.37967491149902344,1,"(1, 3)",663,1,True,False,False,True,False,True
664,0,"{'mean': 0.29999999999999999, 'sd': 0.37}",-0.10000000000000009,2,0.46933698654174805,1,"(0, 2)",664,1,False,False,False,True,False,True
665,0,"{'mean': 0.29999999999999999, 'sd': 0.37}",0.7,2,0.6081409454345703,1,"(0, 2)",665,1,True,False,False,True,False,True
666,0,"{'mean': 0.29999999999999999, 'sd': 0.37}",0.5,3,0.5298280715942383,1,"(0, 3)",666,1,False,False,False,True,False,True
667,0,"{'mean': 0.29999999999999999, 'sd': 0.37}",0.30000000000000004,3,0.30103302001953125,1,"(1, 3)",667,1,True,False,False,True,False,True
668,0,"{'mean': 0.29999999999999999, 'sd': 0.37}",0.30000000000000004,3,0.3091909885406494,1,"(1, 3)",668,1,True,False,False,True,False,True
