trial_count,FBDuration,c_dis,context,response,rt,state,stim,trial_count,ts,rep_resp,switch,con_shape,con_orient,subj_switch,correct
2,0,"{'mean': -0.29999999999999999, 'sd': 0.37}",-0.30000000000000004,3,1.1181609630584717,0,"(0, 2)",2,1,False,True,False,False,True,False
3,0,"{'mean': -0.29999999999999999, 'sd': 0.37}",-0.10000000000000009,3,0.5660858154296875,0,"(0, 3)",3,1,True,False,False,True,False,True
4,0,"{'mean': -0.29999999999999999, 'sd': 0.37}",-0.30000000000000004,3,0.5906198024749756,0,"(0, 2)",4,1,True,False,False,False,False,False
5,0,"{'mean': -0.29999999999999999, 'sd': 0.37}",-0.10000000000000009,3,0.4582650661468506,0,"(0, 3)",5,1,True,False,False,True,False,True
6,0,"{'mean': -0.29999999999999999, 'sd': 0.37}",-0.10000000000000009,3,0.9150490760803223,0,"(0, 2)",6,1,True,False,False,False,False,False
7,0,"{'mean': -0.29999999999999999, 'sd': 0.37}",-0.30000000000000004,2,0.7365829944610596,0,"(1, 3)",7,1,False,False,False,False,False,False
8,0,"{'mean': -0.29999999999999999, 'sd': 0.37}",-0.5,2,0.40499281883239746,0,"(1, 3)",8,1,True,False,False,False,False,False
9,0,"{'mean': -0.29999999999999999, 'sd': 0.37}",-0.5,3,0.555596113204956,0,"(0, 2)",9,1,False,False,False,False,False,False
10,0,"{'mean': -0.29999999999999999, 'sd': 0.37}",-0.5,2,0.6434841156005859,0,"(1, 2)",10,1,False,False,False,True,False,True
11,0,"{'mean': 0.29999999999999999, 'sd': 0.37}",0.5,1,0.49753308296203613,1,"(1, 3)",11,0,False,True,True,False,True,True
12,0,"{'mean': 0.29999999999999999, 'sd': 0.37}",0.5,0,0.6389729976654053,1,"(0, 3)",12,0,False,False,True,False,False,True
13,0,"{'mean': 0.29999999999999999, 'sd': 0.37}",0.30000000000000004,1,0.5026578903198242,1,"(1, 3)",13,0,False,False,True,False,False,True
14,0,"{'mean': 0.29999999999999999, 'sd': 0.37}",0.30000000000000004,1,0.4898250102996826,1,"(1, 3)",14,0,True,False,True,False,False,True
15,0,"{'mean': 0.29999999999999999, 'sd': 0.37}",-0.30000000000000004,2,1.1668791770935059,1,"(1, 2)",15,0,False,False,False,True,True,False
16,0,"{'mean': 0.29999999999999999, 'sd': 0.37}",0.30000000000000004,0,0.6771218776702881,1,"(0, 2)",16,0,False,False,True,False,True,True
17,0,"{'mean': 0.29999999999999999, 'sd': 0.37}",-0.10000000000000009,0,0.7885160446166992,1,"(0, 2)",17,0,True,False,True,False,False,True
18,0,"{'mean': 0.29999999999999999, 'sd': 0.37}",-0.10000000000000009,3,0.5830259323120117,1,"(0, 3)",18,0,False,False,False,True,True,False
19,0,"{'mean': 0.29999999999999999, 'sd': 0.37}",0.5,0,0.9768788814544678,1,"(0, 3)",19,0,False,False,True,False,True,True
20,0,"{'mean': 0.29999999999999999, 'sd': 0.37}",0.30000000000000004,1,0.530764102935791,1,"(1, 3)",20,0,False,False,True,False,False,True
21,0,"{'mean': 0.29999999999999999, 'sd': 0.37}",0.8999999999999999,0,0.45613598823547363,1,"(0, 3)",21,0,False,False,True,False,False,True
22,0,"{'mean': 0.29999999999999999, 'sd': 0.37}",0.5,0,0.5225119590759277,1,"(0, 2)",22,0,True,False,True,False,False,True
23,0,"{'mean': 0.29999999999999999, 'sd': 0.37}",0.30000000000000004,0,0.44325900077819824,1,"(0, 2)",23,0,True,False,True,False,False,True
24,0,"{'mean': 0.29999999999999999, 'sd': 0.37}",0.8999999999999999,0,0.41924309730529785,1,"(0, 3)",24,0,True,False,True,False,False,True
25,0,"{'mean': 0.29999999999999999, 'sd': 0.37}",0.5,1,0.8783669471740723,1,"(1, 3)",25,0,False,False,True,False,False,True
26,0,"{'mean': 0.29999999999999999, 'sd': 0.37}",0.7,0,0.43231892585754395,1,"(0, 3)",26,0,False,False,True,False,False,True
27,0,"{'mean': 0.29999999999999999, 'sd': 0.37}",0.7,1,0.36855292320251465,1,"(1, 3)",27,0,False,False,True,False,False,True
28,0,"{'mean': 0.29999999999999999, 'sd': 0.37}",0.5,1,0.42741990089416504,1,"(1, 2)",28,0,True,False,True,False,False,True
29,0,"{'mean': 0.29999999999999999, 'sd': 0.37}",0.7,1,0.3440358638763428,1,"(1, 3)",29,0,True,False,True,False,False,True
30,0,"{'mean': 0.29999999999999999, 'sd': 0.37}",-0.10000000000000009,3,0.63525390625,1,"(0, 2)",30,0,False,False,False,False,True,False
31,0,"{'mean': 0.29999999999999999, 'sd': 0.37}",0.5,0,0.5162279605865479,1,"(0, 3)",31,0,False,False,True,False,True,True
32,0,"{'mean': 0.29999999999999999, 'sd': 0.37}",0.7,0,0.529911994934082,1,"(0, 3)",32,0,True,False,True,False,False,True
33,0,"{'mean': 0.29999999999999999, 'sd': 0.37}",0.30000000000000004,1,0.6072900295257568,1,"(1, 2)",33,0,False,False,True,False,False,True
34,0,"{'mean': -0.29999999999999999, 'sd': 0.37}",-0.7000000000000001,3,0.49855613708496094,0,"(0, 2)",34,1,False,True,False,False,True,False
35,0,"{'mean': -0.29999999999999999, 'sd': 0.37}",-0.30000000000000004,3,0.5963640213012695,0,"(0, 2)",35,1,True,False,False,False,False,False
36,0,"{'mean': -0.29999999999999999, 'sd': 0.37}",-1.0,2,0.7392778396606445,0,"(1, 2)",36,1,False,False,False,True,False,True
37,0,"{'mean': 0.29999999999999999, 'sd': 0.37}",-0.10000000000000009,2,0.6162128448486328,1,"(1, 2)",37,0,True,True,False,True,False,False
38,0,"{'mean': 0.29999999999999999, 'sd': 0.37}",-0.10000000000000009,3,0.49550795555114746,1,"(0, 2)",38,0,False,False,False,False,False,False
39,0,"{'mean': 0.29999999999999999, 'sd': 0.37}",1.0,0,0.8186869621276855,1,"(0, 2)",39,0,False,False,True,False,True,True
40,0,"{'mean': 0.29999999999999999, 'sd': 0.37}",0.30000000000000004,0,0.6721169948577881,1,"(0, 3)",40,0,True,False,True,False,False,True
41,0,"{'mean': 0.29999999999999999, 'sd': 0.37}",0.30000000000000004,0,0.9620199203491211,1,"(0, 2)",41,0,True,False,True,False,False,True
42,0,"{'mean': 0.29999999999999999, 'sd': 0.37}",0.10000000000000009,1,0.9059000015258789,1,"(1, 3)",42,0,False,False,True,False,False,True
43,0,"{'mean': 0.29999999999999999, 'sd': 0.37}",0.5,0,0.5802099704742432,1,"(0, 3)",43,0,False,False,True,False,False,True
44,0,"{'mean': 0.29999999999999999, 'sd': 0.37}",0.30000000000000004,0,0.5652871131896973,1,"(0, 2)",44,0,True,False,True,False,False,True
45,0,"{'mean': -0.29999999999999999, 'sd': 0.37}",-0.9000000000000001,2,1.0939738750457764,0,"(1, 3)",45,1,False,True,False,False,True,False
46,0,"{'mean': -0.29999999999999999, 'sd': 0.37}",-0.9000000000000001,3,0.601809024810791,0,"(0, 3)",46,1,False,False,False,True,False,True
47,0,"{'mean': -0.29999999999999999, 'sd': 0.37}",-0.10000000000000009,0,1.0249059200286865,0,"(0, 3)",47,1,False,False,True,False,True,False
48,0,"{'mean': -0.29999999999999999, 'sd': 0.37}",-0.30000000000000004,0,0.5955150127410889,0,"(0, 2)",48,1,True,False,True,False,False,False
49,0,"{'mean': -0.29999999999999999, 'sd': 0.37}",0.10000000000000009,0,0.4990658760070801,0,"(0, 2)",49,1,True,False,True,False,False,False
50,0,"{'mean': 0.29999999999999999, 'sd': 0.37}",0.10000000000000009,1,0.5706119537353516,1,"(1, 2)",50,0,False,True,True,False,False,True
51,0,"{'mean': -0.29999999999999999, 'sd': 0.37}",-0.30000000000000004,1,1.3405580520629883,0,"(1, 3)",51,1,True,True,True,False,False,False
52,0,"{'mean': -0.29999999999999999, 'sd': 0.37}",0.10000000000000009,2,0.5091798305511475,0,"(1, 2)",52,1,False,False,False,True,True,True
53,0,"{'mean': -0.29999999999999999, 'sd': 0.37}",-0.7000000000000001,3,0.6367042064666748,0,"(0, 2)",53,1,False,False,False,False,False,False
54,0,"{'mean': -0.29999999999999999, 'sd': 0.37}",-0.7000000000000001,3,0.44248318672180176,0,"(0, 2)",54,1,True,False,False,False,False,False
55,0,"{'mean': -0.29999999999999999, 'sd': 0.37}",0.10000000000000009,1,0.5702269077301025,0,"(1, 3)",55,1,False,False,True,False,True,False
56,0,"{'mean': -0.29999999999999999, 'sd': 0.37}",-0.9000000000000001,2,0.618149995803833,0,"(1, 2)",56,1,False,False,False,True,True,True
57,0,"{'mean': -0.29999999999999999, 'sd': 0.37}",-0.9000000000000001,2,0.5611388683319092,0,"(1, 2)",57,1,True,False,False,True,False,True
58,0,"{'mean': -0.29999999999999999, 'sd': 0.37}",-0.30000000000000004,0,0.6072719097137451,0,"(0, 3)",58,1,False,False,True,False,True,False
59,0,"{'mean': 0.29999999999999999, 'sd': 0.37}",0.7,1,0.563917875289917,1,"(1, 2)",59,0,False,True,True,False,False,True
60,0,"{'mean': 0.29999999999999999, 'sd': 0.37}",-0.10000000000000009,3,0.9531371593475342,1,"(0, 2)",60,0,False,False,False,False,True,False
61,0,"{'mean': -0.29999999999999999, 'sd': 0.37}",0.10000000000000009,0,0.6933679580688477,0,"(0, 2)",61,1,False,True,True,False,True,False
62,0,"{'mean': -0.29999999999999999, 'sd': 0.37}",0.10000000000000009,0,0.4833221435546875,0,"(0, 3)",62,1,True,False,True,False,False,False
63,0,"{'mean': -0.29999999999999999, 'sd': 0.37}",-0.5,1,0.6430530548095703,0,"(1, 3)",63,1,False,False,True,False,False,False
64,0,"{'mean': -0.29999999999999999, 'sd': 0.37}",-0.7000000000000001,2,1.2103300094604492,0,"(1, 3)",64,1,False,False,False,False,True,False
65,0,"{'mean': 0.29999999999999999, 'sd': 0.37}",0.30000000000000004,1,1.0899758338928223,1,"(1, 2)",65,0,False,True,True,False,True,True
66,0,"{'mean': 0.29999999999999999, 'sd': 0.37}",-0.30000000000000004,2,0.538261890411377,1,"(1, 3)",66,0,False,False,False,False,True,False
67,0,"{'mean': 0.29999999999999999, 'sd': 0.37}",-0.10000000000000009,0,0.7570362091064453,1,"(0, 3)",67,0,False,False,True,False,True,True
68,0,"{'mean': 0.29999999999999999, 'sd': 0.37}",0.7,0,0.8222379684448242,1,"(0, 2)",68,0,True,False,True,False,False,True
69,0,"{'mean': 0.29999999999999999, 'sd': 0.37}",0.10000000000000009,3,0.5498299598693848,1,"(0, 2)",69,0,False,False,False,False,True,False
70,0,"{'mean': 0.29999999999999999, 'sd': 0.37}",0.7,0,0.5173571109771729,1,"(0, 2)",70,0,False,False,True,False,True,True
71,0,"{'mean': -0.29999999999999999, 'sd': 0.37}",-0.30000000000000004,3,0.5121738910675049,0,"(0, 2)",71,1,False,True,False,False,True,False
72,0,"{'mean': -0.29999999999999999, 'sd': 0.37}",-0.5,2,0.6002399921417236,0,"(1, 3)",72,1,False,False,False,False,False,False
73,0,"{'mean': -0.29999999999999999, 'sd': 0.37}",-0.9000000000000001,2,0.4164562225341797,0,"(1, 3)",73,1,True,False,False,False,False,False
74,0,"{'mean': -0.29999999999999999, 'sd': 0.37}",0.7,1,0.48137807846069336,0,"(1, 3)",74,1,False,False,True,False,True,False
75,0,"{'mean': -0.29999999999999999, 'sd': 0.37}",-0.30000000000000004,2,0.5058550834655762,0,"(1, 3)",75,1,False,False,False,False,True,False
76,0,"{'mean': -0.29999999999999999, 'sd': 0.37}",-0.7000000000000001,3,0.6621439456939697,0,"(0, 3)",76,1,False,False,False,True,False,True
77,0,"{'mean': -0.29999999999999999, 'sd': 0.37}",-0.10000000000000009,1,0.5517940521240234,0,"(1, 2)",77,1,False,False,True,False,True,False
78,0,"{'mean': -0.29999999999999999, 'sd': 0.37}",0.5,0,0.6160311698913574,0,"(0, 2)",78,1,False,False,True,False,False,False
79,0,"{'mean': -0.29999999999999999, 'sd': 0.37}",-0.30000000000000004,2,0.6347649097442627,0,"(1, 2)",79,1,False,False,False,True,True,True
80,0,"{'mean': -0.29999999999999999, 'sd': 0.37}",-0.9000000000000001,3,0.8626501560211182,0,"(0, 3)",80,1,False,False,False,True,False,True
81,0,"{'mean': -0.29999999999999999, 'sd': 0.37}",0.10000000000000009,1,0.6790041923522949,0,"(1, 3)",81,1,False,False,True,False,True,False
82,0,"{'mean': -0.29999999999999999, 'sd': 0.37}",-0.5,2,0.9662108421325684,0,"(1, 3)",82,1,False,False,False,False,True,False
83,0,"{'mean': -0.29999999999999999, 'sd': 0.37}",0.8999999999999999,1,0.7593629360198975,0,"(1, 2)",83,1,False,False,True,False,True,False
84,0,"{'mean': -0.29999999999999999, 'sd': 0.37}",-0.7000000000000001,3,0.4284188747406006,0,"(0, 3)",84,1,False,False,False,True,True,True
85,0,"{'mean': -0.29999999999999999, 'sd': 0.37}",0.10000000000000009,1,0.47811007499694824,0,"(1, 3)",85,1,False,False,True,False,True,False
86,0,"{'mean': -0.29999999999999999, 'sd': 0.37}",-0.30000000000000004,2,0.343325138092041,0,"(1, 2)",86,1,False,False,False,True,True,True
87,0,"{'mean': -0.29999999999999999, 'sd': 0.37}",-0.9000000000000001,3,0.4891829490661621,0,"(0, 3)",87,1,False,False,False,True,False,True
88,0,"{'mean': -0.29999999999999999, 'sd': 0.37}",-0.5,3,0.7163829803466797,0,"(0, 2)",88,1,True,False,False,False,False,False
89,0,"{'mean': -0.29999999999999999, 'sd': 0.37}",-0.30000000000000004,1,0.5543279647827148,0,"(1, 3)",89,1,False,False,True,False,True,False
90,0,"{'mean': -0.29999999999999999, 'sd': 0.37}",0.10000000000000009,1,0.5943698883056641,0,"(1, 3)",90,1,True,False,True,False,False,False
91,0,"{'mean': -0.29999999999999999, 'sd': 0.37}",-0.7000000000000001,3,0.45656800270080566,0,"(0, 2)",91,1,False,False,False,False,True,False
92,0,"{'mean': -0.29999999999999999, 'sd': 0.37}",-0.5,2,0.9788811206817627,0,"(1, 3)",92,1,False,False,False,False,False,False
93,0,"{'mean': -0.29999999999999999, 'sd': 0.37}",-0.10000000000000009,1,0.5641169548034668,0,"(1, 2)",93,1,False,False,True,False,True,False
94,0,"{'mean': -0.29999999999999999, 'sd': 0.37}",0.10000000000000009,0,0.6923360824584961,0,"(0, 2)",94,1,False,False,True,False,False,False
95,0,"{'mean': -0.29999999999999999, 'sd': 0.37}",-0.7000000000000001,2,0.9113998413085938,0,"(1, 3)",95,1,False,False,False,False,True,False
96,0,"{'mean': -0.29999999999999999, 'sd': 0.37}",0.10000000000000009,0,0.7900111675262451,0,"(0, 2)",96,1,False,False,True,False,True,False
97,0,"{'mean': -0.29999999999999999, 'sd': 0.37}",-0.30000000000000004,3,0.6181540489196777,0,"(0, 3)",97,1,False,False,False,True,True,True
98,0,"{'mean': 0.29999999999999999, 'sd': 0.37}",0.30000000000000004,1,0.6978309154510498,1,"(1, 3)",98,0,False,True,True,False,True,True
99,0,"{'mean': -0.29999999999999999, 'sd': 0.37}",-0.5,2,0.8374500274658203,0,"(1, 3)",99,1,False,True,False,False,True,False
100,0,"{'mean': -0.29999999999999999, 'sd': 0.37}",-0.30000000000000004,3,0.5491080284118652,0,"(0, 2)",100,1,False,False,False,False,False,False
101,0,"{'mean': -0.29999999999999999, 'sd': 0.37}",-0.30000000000000004,2,0.7112538814544678,0,"(1, 2)",101,1,False,False,False,True,False,True
102,0,"{'mean': -0.29999999999999999, 'sd': 0.37}",-0.10000000000000009,3,0.7602431774139404,0,"(0, 3)",102,1,False,False,False,True,False,True
103,0,"{'mean': -0.29999999999999999, 'sd': 0.37}",-0.30000000000000004,2,1.4226548671722412,0,"(1, 3)",103,1,False,False,False,False,False,False
104,0,"{'mean': 0.29999999999999999, 'sd': 0.37}",0.10000000000000009,2,0.5211310386657715,1,"(1, 3)",104,0,True,True,False,False,False,False
105,0,"{'mean': 0.29999999999999999, 'sd': 0.37}",-0.10000000000000009,3,0.5773720741271973,1,"(0, 3)",105,0,False,False,False,True,False,False
106,0,"{'mean': 0.29999999999999999, 'sd': 0.37}",-0.10000000000000009,3,0.5148499011993408,1,"(0, 3)",106,0,True,False,False,True,False,False
107,0,"{'mean': 0.29999999999999999, 'sd': 0.37}",0.30000000000000004,0,0.6691689491271973,1,"(0, 2)",107,0,False,False,True,False,True,True
108,0,"{'mean': 0.29999999999999999, 'sd': 0.37}",0.5,1,0.34894394874572754,1,"(1, 3)",108,0,False,False,True,False,False,True
109,0,"{'mean': 0.29999999999999999, 'sd': 0.37}",1.0,1,0.6568801403045654,1,"(1, 3)",109,0,True,False,True,False,False,True
110,0,"{'mean': 0.29999999999999999, 'sd': 0.37}",0.5,0,0.33702683448791504,1,"(0, 2)",110,0,False,False,True,False,False,True
111,0,"{'mean': 0.29999999999999999, 'sd': 0.37}",0.5,1,0.4171609878540039,1,"(1, 2)",111,0,False,False,True,False,False,True
112,0,"{'mean': -0.29999999999999999, 'sd': 0.37}",-0.7000000000000001,2,0.7807340621948242,0,"(1, 2)",112,1,False,True,False,True,True,True
113,0,"{'mean': -0.29999999999999999, 'sd': 0.37}",-0.7000000000000001,3,0.5176210403442383,0,"(0, 3)",113,1,False,False,False,True,False,True
114,0,"{'mean': -0.29999999999999999, 'sd': 0.37}",-1.0,3,0.45215702056884766,0,"(0, 2)",114,1,True,False,False,False,False,False
115,0,"{'mean': -0.29999999999999999, 'sd': 0.37}",-0.10000000000000009,3,0.6257939338684082,0,"(0, 2)",115,1,True,False,False,False,False,False
116,0,"{'mean': -0.29999999999999999, 'sd': 0.37}",-0.5,3,0.5398252010345459,0,"(0, 3)",116,1,True,False,False,True,False,True
117,0,"{'mean': -0.29999999999999999, 'sd': 0.37}",-0.30000000000000004,3,0.8428168296813965,0,"(0, 3)",117,1,True,False,False,True,False,True
118,0,"{'mean': -0.29999999999999999, 'sd': 0.37}",-0.30000000000000004,1,0.5421299934387207,0,"(1, 2)",118,1,False,False,True,False,True,False
119,0,"{'mean': -0.29999999999999999, 'sd': 0.37}",-0.9000000000000001,3,0.495236873626709,0,"(0, 2)",119,1,False,False,False,False,True,False
120,0,"{'mean': -0.29999999999999999, 'sd': 0.37}",-0.30000000000000004,2,0.7984030246734619,0,"(1, 2)",120,1,False,False,False,True,False,True
121,0,"{'mean': -0.29999999999999999, 'sd': 0.37}",-0.5,3,0.6147921085357666,0,"(0, 3)",121,1,False,False,False,True,False,True
122,0,"{'mean': -0.29999999999999999, 'sd': 0.37}",-0.10000000000000009,3,0.712101936340332,0,"(0, 2)",122,1,True,False,False,False,False,False
123,0,"{'mean': -0.29999999999999999, 'sd': 0.37}",-0.5,2,0.60906982421875,0,"(1, 3)",123,1,False,False,False,False,False,False
124,0,"{'mean': -0.29999999999999999, 'sd': 0.37}",-0.10000000000000009,0,0.867671012878418,0,"(0, 3)",124,1,False,False,True,False,True,False
125,0,"{'mean': -0.29999999999999999, 'sd': 0.37}",0.30000000000000004,1,0.5085921287536621,0,"(1, 2)",125,1,False,False,True,False,False,False
126,0,"{'mean': -0.29999999999999999, 'sd': 0.37}",0.30000000000000004,0,0.9274048805236816,0,"(0, 2)",126,1,False,False,True,False,False,False
127,0,"{'mean': -0.29999999999999999, 'sd': 0.37}",-0.5,2,1.0937998294830322,0,"(1, 3)",127,1,False,False,False,False,True,False
128,0,"{'mean': -0.29999999999999999, 'sd': 0.37}",-0.10000000000000009,2,0.6893200874328613,0,"(1, 2)",128,1,True,False,False,True,False,True
129,0,"{'mean': -0.29999999999999999, 'sd': 0.37}",-0.7000000000000001,2,0.5558109283447266,0,"(1, 2)",129,1,True,False,False,True,False,True
130,0,"{'mean': -0.29999999999999999, 'sd': 0.37}",-0.9000000000000001,3,0.626384973526001,0,"(0, 2)",130,1,False,False,False,False,False,False
131,0,"{'mean': -0.29999999999999999, 'sd': 0.37}",-0.10000000000000009,3,1.2531859874725342,0,"(0, 3)",131,1,True,False,False,True,False,True
132,0,"{'mean': 0.29999999999999999, 'sd': 0.37}",0.30000000000000004,0,0.6641380786895752,1,"(0, 3)",132,0,False,True,True,False,True,True
133,0,"{'mean': 0.29999999999999999, 'sd': 0.37}",0.5,0,0.6400001049041748,1,"(0, 3)",133,0,True,False,True,False,False,True
134,0,"{'mean': -0.29999999999999999, 'sd': 0.37}",-0.10000000000000009,2,0.8609039783477783,0,"(1, 2)",134,1,False,True,False,True,True,True
135,0,"{'mean': -0.29999999999999999, 'sd': 0.37}",-0.7000000000000001,2,0.49556493759155273,0,"(1, 2)",135,1,True,False,False,True,False,True
136,0,"{'mean': -0.29999999999999999, 'sd': 0.37}",-0.7000000000000001,2,0.3911008834838867,0,"(1, 2)",136,1,True,False,False,True,False,True
137,0,"{'mean': -0.29999999999999999, 'sd': 0.37}",-0.10000000000000009,2,0.38551807403564453,0,"(1, 2)",137,1,True,False,False,True,False,True
138,0,"{'mean': -0.29999999999999999, 'sd': 0.37}",-0.5,2,0.9822280406951904,0,"(1, 3)",138,1,True,False,False,False,False,False
140,0,"{'mean': -0.29999999999999999, 'sd': 0.37}",0.5,0,0.6414799690246582,0,"(0, 2)",140,1,False,False,True,False,True,False
141,0,"{'mean': -0.29999999999999999, 'sd': 0.37}",-0.9000000000000001,3,0.6734950542449951,0,"(0, 3)",141,1,False,False,False,True,True,True
142,0,"{'mean': -0.29999999999999999, 'sd': 0.37}",-0.30000000000000004,3,0.6111938953399658,0,"(0, 2)",142,1,True,False,False,False,False,False
143,0,"{'mean': 0.29999999999999999, 'sd': 0.37}",0.10000000000000009,1,0.4460110664367676,1,"(1, 3)",143,0,False,True,True,False,True,True
144,0,"{'mean': 0.29999999999999999, 'sd': 0.37}",1.0,0,0.5138061046600342,1,"(0, 3)",144,0,False,False,True,False,False,True
145,0,"{'mean': 0.29999999999999999, 'sd': 0.37}",-0.30000000000000004,3,0.6854028701782227,1,"(0, 3)",145,0,False,False,False,True,True,False
146,0,"{'mean': 0.29999999999999999, 'sd': 0.37}",-0.30000000000000004,2,0.406710147857666,1,"(1, 3)",146,0,False,False,False,False,False,False
147,0,"{'mean': 0.29999999999999999, 'sd': 0.37}",-0.10000000000000009,1,0.715911865234375,1,"(1, 3)",147,0,False,False,True,False,True,True
148,0,"{'mean': 0.29999999999999999, 'sd': 0.37}",-0.10000000000000009,1,0.35082292556762695,1,"(1, 3)",148,0,True,False,True,False,False,True
149,0,"{'mean': 0.29999999999999999, 'sd': 0.37}",0.30000000000000004,1,0.3363630771636963,1,"(1, 3)",149,0,True,False,True,False,False,True
150,0,"{'mean': 0.29999999999999999, 'sd': 0.37}",-0.10000000000000009,2,0.41517090797424316,1,"(0, 3)",150,0,False,False,False,False,True,False
151,0,"{'mean': 0.29999999999999999, 'sd': 0.37}",0.5,1,0.7757530212402344,1,"(1, 2)",151,0,False,False,True,False,True,True
152,0,"{'mean': 0.29999999999999999, 'sd': 0.37}",0.5,1,0.34998488426208496,1,"(1, 2)",152,0,True,False,True,False,False,True
153,0,"{'mean': 0.29999999999999999, 'sd': 0.37}",0.8999999999999999,1,0.4843919277191162,1,"(1, 2)",153,0,True,False,True,False,False,True
154,0,"{'mean': 0.29999999999999999, 'sd': 0.37}",0.30000000000000004,0,0.5090310573577881,1,"(0, 3)",154,0,False,False,True,False,False,True
155,0,"{'mean': 0.29999999999999999, 'sd': 0.37}",0.30000000000000004,1,0.3389260768890381,1,"(1, 3)",155,0,False,False,True,False,False,True
156,0,"{'mean': -0.29999999999999999, 'sd': 0.37}",-0.5,2,0.43801379203796387,0,"(1, 2)",156,1,False,True,False,True,True,True
157,0,"{'mean': 0.29999999999999999, 'sd': 0.37}",0.10000000000000009,0,0.45186591148376465,1,"(0, 3)",157,0,False,True,True,False,True,True
158,0,"{'mean': 0.29999999999999999, 'sd': 0.37}",0.30000000000000004,0,0.5203208923339844,1,"(0, 3)",158,0,True,False,True,False,False,True
159,0,"{'mean': 0.29999999999999999, 'sd': 0.37}",0.7,1,0.3682088851928711,1,"(1, 3)",159,0,False,False,True,False,False,True
160,0,"{'mean': 0.29999999999999999, 'sd': 0.37}",0.10000000000000009,3,0.7608609199523926,1,"(0, 2)",160,0,False,False,False,False,True,False
161,0,"{'mean': 0.29999999999999999, 'sd': 0.37}",0.8999999999999999,0,0.4710400104522705,1,"(0, 3)",161,0,False,False,True,False,True,True
162,0,"{'mean': 0.29999999999999999, 'sd': 0.37}",-0.30000000000000004,2,0.4923210144042969,1,"(1, 2)",162,0,False,False,False,True,True,False
163,0,"{'mean': -0.29999999999999999, 'sd': 0.37}",-0.10000000000000009,3,0.605694055557251,0,"(0, 3)",163,1,False,True,False,True,False,True
164,0,"{'mean': -0.29999999999999999, 'sd': 0.37}",-0.5,3,0.471966028213501,0,"(0, 3)",164,1,True,False,False,True,False,True
165,0,"{'mean': -0.29999999999999999, 'sd': 0.37}",-0.7000000000000001,3,0.3850829601287842,0,"(0, 3)",165,1,True,False,False,True,False,True
166,0,"{'mean': -0.29999999999999999, 'sd': 0.37}",-0.7000000000000001,2,0.4904489517211914,0,"(1, 3)",166,1,False,False,False,False,False,False
167,0,"{'mean': -0.29999999999999999, 'sd': 0.37}",-0.5,2,0.44181203842163086,0,"(1, 2)",167,1,True,False,False,True,False,True
168,0,"{'mean': -0.29999999999999999, 'sd': 0.37}",0.30000000000000004,1,0.5194950103759766,0,"(1, 2)",168,1,False,False,True,False,True,False
169,0,"{'mean': -0.29999999999999999, 'sd': 0.37}",0.10000000000000009,3,0.6420650482177734,0,"(0, 2)",169,1,False,False,False,False,True,False
170,0,"{'mean': -0.29999999999999999, 'sd': 0.37}",-0.10000000000000009,1,0.5715808868408203,0,"(1, 3)",170,1,False,False,True,False,True,False
171,0,"{'mean': -0.29999999999999999, 'sd': 0.37}",-1.0,2,0.639042854309082,0,"(1, 3)",171,1,False,False,False,False,True,False
172,0,"{'mean': -0.29999999999999999, 'sd': 0.37}",-0.5,3,0.5122020244598389,0,"(0, 2)",172,1,False,False,False,False,False,False
173,0,"{'mean': -0.29999999999999999, 'sd': 0.37}",-0.9000000000000001,3,0.41939616203308105,0,"(1, 2)",173,1,True,False,False,False,False,False
174,0,"{'mean': -0.29999999999999999, 'sd': 0.37}",-0.10000000000000009,3,0.6346719264984131,0,"(0, 3)",174,1,True,False,False,True,False,True
175,0,"{'mean': -0.29999999999999999, 'sd': 0.37}",-0.7000000000000001,3,0.5756361484527588,0,"(0, 2)",175,1,True,False,False,False,False,False
176,0,"{'mean': -0.29999999999999999, 'sd': 0.37}",-0.5,2,0.3213019371032715,0,"(1, 2)",176,1,False,False,False,True,False,True
177,0,"{'mean': -0.29999999999999999, 'sd': 0.37}",-0.30000000000000004,3,0.4466879367828369,0,"(0, 3)",177,1,False,False,False,True,False,True
178,0,"{'mean': -0.29999999999999999, 'sd': 0.37}",-0.5,2,0.5083918571472168,0,"(1, 3)",178,1,False,False,False,False,False,False
179,0,"{'mean': -0.29999999999999999, 'sd': 0.37}",-0.7000000000000001,3,0.43253087997436523,0,"(0, 2)",179,1,False,False,False,False,False,False
180,0,"{'mean': -0.29999999999999999, 'sd': 0.37}",-0.10000000000000009,2,1.0269980430603027,0,"(1, 3)",180,1,False,False,False,False,False,False
181,0,"{'mean': -0.29999999999999999, 'sd': 0.37}",-0.30000000000000004,1,0.4781179428100586,0,"(1, 3)",181,1,False,False,True,False,True,False
182,0,"{'mean': 0.29999999999999999, 'sd': 0.37}",-0.10000000000000009,2,0.6904890537261963,1,"(1, 2)",182,0,False,True,False,True,True,False
183,0,"{'mean': 0.29999999999999999, 'sd': 0.37}",0.10000000000000009,3,0.5877599716186523,1,"(0, 2)",183,0,False,False,False,False,False,False
184,0,"{'mean': 0.29999999999999999, 'sd': 0.37}",0.30000000000000004,1,0.4919869899749756,1,"(1, 3)",184,0,False,False,True,False,True,True
185,0,"{'mean': 0.29999999999999999, 'sd': 0.37}",0.5,0,0.5390918254852295,1,"(0, 3)",185,0,False,False,True,False,False,True
186,0,"{'mean': -0.29999999999999999, 'sd': 0.37}",0.10000000000000009,2,0.6041319370269775,0,"(1, 2)",186,1,False,True,False,True,True,True
187,0,"{'mean': -0.29999999999999999, 'sd': 0.37}",0.30000000000000004,2,0.43089795112609863,0,"(1, 2)",187,1,True,False,False,True,False,True
188,0,"{'mean': -0.29999999999999999, 'sd': 0.37}",-0.5,1,0.6887049674987793,0,"(1, 3)",188,1,False,False,True,False,True,False
189,0,"{'mean': 0.29999999999999999, 'sd': 0.37}",-0.10000000000000009,2,0.5376849174499512,1,"(1, 3)",189,0,False,True,False,False,True,False
190,0,"{'mean': -0.29999999999999999, 'sd': 0.37}",-0.30000000000000004,2,0.5789570808410645,0,"(1, 3)",190,1,True,True,False,False,False,False
191,0,"{'mean': -0.29999999999999999, 'sd': 0.37}",-0.30000000000000004,3,0.4844789505004883,0,"(0, 2)",191,1,False,False,False,False,False,False
192,0,"{'mean': -0.29999999999999999, 'sd': 0.37}",-0.7000000000000001,3,0.4694709777832031,0,"(0, 3)",192,1,True,False,False,True,False,True
193,0,"{'mean': -0.29999999999999999, 'sd': 0.37}",-0.30000000000000004,2,0.44819021224975586,0,"(1, 2)",193,1,False,False,False,True,False,True
194,0,"{'mean': -0.29999999999999999, 'sd': 0.37}",-0.7000000000000001,3,0.5093798637390137,0,"(0, 3)",194,1,False,False,False,True,False,True
195,0,"{'mean': -0.29999999999999999, 'sd': 0.37}",-0.30000000000000004,2,0.44552087783813477,0,"(1, 2)",195,1,False,False,False,True,False,True
196,0,"{'mean': -0.29999999999999999, 'sd': 0.37}",-0.30000000000000004,3,0.4999659061431885,0,"(0, 3)",196,1,False,False,False,True,False,True
197,0,"{'mean': -0.29999999999999999, 'sd': 0.37}",-0.9000000000000001,3,0.5107998847961426,0,"(0, 2)",197,1,True,False,False,False,False,False
198,0,"{'mean': 0.29999999999999999, 'sd': 0.37}",-0.30000000000000004,2,0.4835529327392578,1,"(1, 2)",198,0,False,True,False,True,False,False
199,0,"{'mean': 0.29999999999999999, 'sd': 0.37}",0.8999999999999999,0,0.4431581497192383,1,"(0, 3)",199,0,False,False,True,False,True,True
200,0,"{'mean': -0.29999999999999999, 'sd': 0.37}",-0.10000000000000009,1,0.39440298080444336,0,"(1, 3)",200,1,False,True,True,False,False,False
201,0,"{'mean': 0.29999999999999999, 'sd': 0.37}",0.5,0,0.4548959732055664,1,"(0, 3)",201,0,False,True,True,False,False,True
202,0,"{'mean': 0.29999999999999999, 'sd': 0.37}",0.30000000000000004,0,0.6665899753570557,1,"(0, 2)",202,0,True,False,True,False,False,True
203,0,"{'mean': -0.29999999999999999, 'sd': 0.37}",-0.5,2,0.8729000091552734,0,"(1, 3)",203,1,False,True,False,False,True,False
204,0,"{'mean': -0.29999999999999999, 'sd': 0.37}",-0.10000000000000009,2,0.4671800136566162,0,"(1, 2)",204,1,True,False,False,True,False,True
205,0,"{'mean': -0.29999999999999999, 'sd': 0.37}",-0.5,2,0.40128517150878906,0,"(1, 3)",205,1,True,False,False,False,False,False
206,0,"{'mean': -0.29999999999999999, 'sd': 0.37}",-0.10000000000000009,1,0.38506412506103516,0,"(1, 3)",206,1,False,False,True,False,True,False
207,0,"{'mean': -0.29999999999999999, 'sd': 0.37}",-0.10000000000000009,1,0.5706329345703125,0,"(1, 3)",207,1,True,False,True,False,False,False
208,0,"{'mean': -0.29999999999999999, 'sd': 0.37}",-0.10000000000000009,2,0.6046779155731201,0,"(1, 2)",208,1,False,False,False,True,True,True
209,0,"{'mean': -0.29999999999999999, 'sd': 0.37}",-0.5,2,0.5305418968200684,0,"(1, 3)",209,1,True,False,False,False,False,False
210,0,"{'mean': -0.29999999999999999, 'sd': 0.37}",-0.9000000000000001,3,0.5038821697235107,0,"(0, 3)",210,1,False,False,False,True,False,True
211,0,"{'mean': -0.29999999999999999, 'sd': 0.37}",-0.5,3,0.4061100482940674,0,"(0, 3)",211,1,True,False,False,True,False,True
212,0,"{'mean': -0.29999999999999999, 'sd': 0.37}",-0.30000000000000004,3,0.47295093536376953,0,"(0, 2)",212,1,True,False,False,False,False,False
213,0,"{'mean': 0.29999999999999999, 'sd': 0.37}",-0.10000000000000009,3,0.43382692337036133,1,"(0, 2)",213,0,True,True,False,False,False,False
214,0,"{'mean': 0.29999999999999999, 'sd': 0.37}",0.8999999999999999,1,0.4490840435028076,1,"(1, 3)",214,0,False,False,True,False,True,True
215,0,"{'mean': 0.29999999999999999, 'sd': 0.37}",0.7,1,0.46791601181030273,1,"(1, 3)",215,0,True,False,True,False,False,True
216,0,"{'mean': 0.29999999999999999, 'sd': 0.37}",0.30000000000000004,3,0.6945199966430664,1,"(0, 2)",216,0,False,False,False,False,True,False
217,0,"{'mean': 0.29999999999999999, 'sd': 0.37}",0.10000000000000009,0,0.7448129653930664,1,"(0, 2)",217,0,False,False,True,False,True,True
218,0,"{'mean': 0.29999999999999999, 'sd': 0.37}",0.5,1,0.6584758758544922,1,"(1, 2)",218,0,False,False,True,False,False,True
219,0,"{'mean': -0.29999999999999999, 'sd': 0.37}",-0.30000000000000004,3,0.5156090259552002,0,"(0, 2)",219,1,False,True,False,False,True,False
220,0,"{'mean': -0.29999999999999999, 'sd': 0.37}",-0.30000000000000004,2,0.6338419914245605,0,"(1, 3)",220,1,False,False,False,False,False,False
221,0,"{'mean': -0.29999999999999999, 'sd': 0.37}",-0.10000000000000009,2,0.8031840324401855,0,"(1, 3)",221,1,True,False,False,False,False,False
222,0,"{'mean': -0.29999999999999999, 'sd': 0.37}",-0.10000000000000009,3,0.5248339176177979,0,"(0, 2)",222,1,False,False,False,False,False,False
223,0,"{'mean': 0.29999999999999999, 'sd': 0.37}",-0.5,3,0.518535852432251,1,"(0, 2)",223,0,True,True,False,False,False,False
224,0,"{'mean': 0.29999999999999999, 'sd': 0.37}",0.10000000000000009,1,0.39139604568481445,1,"(1, 2)",224,0,False,False,True,False,True,True
225,0,"{'mean': 0.29999999999999999, 'sd': 0.37}",0.30000000000000004,1,0.3876640796661377,1,"(1, 3)",225,0,True,False,True,False,False,True
226,0,"{'mean': 0.29999999999999999, 'sd': 0.37}",-0.10000000000000009,3,0.45191407203674316,1,"(0, 2)",226,0,False,False,False,False,True,False
227,0,"{'mean': 0.29999999999999999, 'sd': 0.37}",0.7,0,0.6379878520965576,1,"(0, 3)",227,0,False,False,True,False,True,True
228,0,"{'mean': 0.29999999999999999, 'sd': 0.37}",0.30000000000000004,1,0.6132049560546875,1,"(1, 3)",228,0,False,False,True,False,False,True
229,0,"{'mean': 0.29999999999999999, 'sd': 0.37}",0.10000000000000009,2,0.35033106803894043,1,"(1, 2)",229,0,False,False,False,True,True,False
230,0,"{'mean': 0.29999999999999999, 'sd': 0.37}",0.5,1,0.33359193801879883,1,"(1, 2)",230,0,False,False,True,False,True,True
231,0,"{'mean': 0.29999999999999999, 'sd': 0.37}",-0.10000000000000009,2,0.3829460144042969,1,"(1, 3)",231,0,False,False,False,False,True,False
232,0,"{'mean': 0.29999999999999999, 'sd': 0.37}",0.5,1,0.4715421199798584,1,"(1, 3)",232,0,False,False,True,False,True,True
233,0,"{'mean': 0.29999999999999999, 'sd': 0.37}",0.30000000000000004,0,0.6779229640960693,1,"(0, 2)",233,0,False,False,True,False,False,True
234,0,"{'mean': 0.29999999999999999, 'sd': 0.37}",0.10000000000000009,3,0.5600509643554688,1,"(0, 3)",234,0,False,False,False,True,True,False
235,0,"{'mean': 0.29999999999999999, 'sd': 0.37}",0.7,0,0.5277409553527832,1,"(0, 3)",235,0,False,False,True,False,True,True
236,0,"{'mean': 0.29999999999999999, 'sd': 0.37}",0.30000000000000004,0,0.5146660804748535,1,"(0, 3)",236,0,True,False,True,False,False,True
237,0,"{'mean': 0.29999999999999999, 'sd': 0.37}",0.5,0,0.48421692848205566,1,"(0, 3)",237,0,True,False,True,False,False,True
238,0,"{'mean': 0.29999999999999999, 'sd': 0.37}",0.10000000000000009,0,0.5009801387786865,1,"(0, 3)",238,0,True,False,True,False,False,True
239,0,"{'mean': 0.29999999999999999, 'sd': 0.37}",-0.30000000000000004,2,0.6846621036529541,1,"(1, 3)",239,0,False,False,False,False,True,False
240,0,"{'mean': 0.29999999999999999, 'sd': 0.37}",-0.30000000000000004,3,0.7232949733734131,1,"(0, 3)",240,0,False,False,False,True,False,False
241,0,"{'mean': 0.29999999999999999, 'sd': 0.37}",0.10000000000000009,2,0.6616649627685547,1,"(1, 2)",241,0,False,False,False,True,False,False
242,0,"{'mean': 0.29999999999999999, 'sd': 0.37}",0.10000000000000009,1,0.37725400924682617,1,"(1, 3)",242,0,False,False,True,False,True,True
243,0,"{'mean': -0.29999999999999999, 'sd': 0.37}",0.10000000000000009,2,0.3814370632171631,0,"(1, 2)",243,1,False,True,False,True,True,True
244,0,"{'mean': -0.29999999999999999, 'sd': 0.37}",-0.5,1,0.44626307487487793,0,"(1, 3)",244,1,False,False,True,False,True,False
245,0,"{'mean': -0.29999999999999999, 'sd': 0.37}",-0.10000000000000009,1,0.7372541427612305,0,"(1, 3)",245,1,True,False,True,False,False,False
246,0,"{'mean': -0.29999999999999999, 'sd': 0.37}",-0.30000000000000004,2,0.36783814430236816,0,"(1, 2)",246,1,False,False,False,True,True,True
247,0,"{'mean': -0.29999999999999999, 'sd': 0.37}",-0.10000000000000009,3,0.551124095916748,0,"(0, 2)",247,1,False,False,False,False,False,False
248,0,"{'mean': -0.29999999999999999, 'sd': 0.37}",-1.0,2,0.9701859951019287,0,"(1, 3)",248,1,False,False,False,False,False,False
249,0,"{'mean': -0.29999999999999999, 'sd': 0.37}",-0.30000000000000004,3,0.5338680744171143,0,"(0, 2)",249,1,False,False,False,False,False,False
250,0,"{'mean': -0.29999999999999999, 'sd': 0.37}",-0.30000000000000004,2,0.47298693656921387,0,"(1, 2)",250,1,False,False,False,True,False,True
251,0,"{'mean': -0.29999999999999999, 'sd': 0.37}",-0.7000000000000001,3,0.4507298469543457,0,"(0, 3)",251,1,False,False,False,True,False,True
252,0,"{'mean': -0.29999999999999999, 'sd': 0.37}",-0.7000000000000001,3,0.5138039588928223,0,"(0, 2)",252,1,True,False,False,False,False,False
253,0,"{'mean': -0.29999999999999999, 'sd': 0.37}",-0.10000000000000009,3,0.5522620677947998,0,"(0, 3)",253,1,True,False,False,True,False,True
254,0,"{'mean': -0.29999999999999999, 'sd': 0.37}",-0.5,2,0.63395094871521,0,"(1, 3)",254,1,False,False,False,False,False,False
255,0,"{'mean': -0.29999999999999999, 'sd': 0.37}",0.10000000000000009,1,0.34885621070861816,0,"(1, 3)",255,1,False,False,True,False,True,False
256,0,"{'mean': -0.29999999999999999, 'sd': 0.37}",-0.5,2,0.8131511211395264,0,"(0, 3)",256,1,False,False,False,False,True,False
257,0,"{'mean': -0.29999999999999999, 'sd': 0.37}",0.8999999999999999,1,0.710345983505249,0,"(1, 3)",257,1,False,False,True,False,True,False
258,0,"{'mean': -0.29999999999999999, 'sd': 0.37}",-0.5,2,0.623831033706665,0,"(1, 2)",258,1,False,False,False,True,True,True
259,0,"{'mean': -0.29999999999999999, 'sd': 0.37}",-0.30000000000000004,2,0.4204070568084717,0,"(1, 3)",259,1,True,False,False,False,False,False
260,0,"{'mean': -0.29999999999999999, 'sd': 0.37}",-0.30000000000000004,3,0.5514218807220459,0,"(0, 3)",260,1,False,False,False,True,False,True
261,0,"{'mean': -0.29999999999999999, 'sd': 0.37}",-0.30000000000000004,2,0.4729430675506592,0,"(1, 3)",261,1,False,False,False,False,False,False
262,0,"{'mean': -0.29999999999999999, 'sd': 0.37}",-0.5,2,0.46446895599365234,0,"(1, 2)",262,1,True,False,False,True,False,True
263,0,"{'mean': -0.29999999999999999, 'sd': 0.37}",-0.5,2,0.401094913482666,0,"(1, 2)",263,1,True,False,False,True,False,True
264,0,"{'mean': 0.29999999999999999, 'sd': 0.37}",-0.10000000000000009,3,0.5005688667297363,1,"(0, 3)",264,0,False,True,False,True,False,False
265,0,"{'mean': 0.29999999999999999, 'sd': 0.37}",0.10000000000000009,3,0.5415780544281006,1,"(0, 3)",265,0,True,False,False,True,False,False
266,0,"{'mean': 0.29999999999999999, 'sd': 0.37}",0.5,2,0.48816609382629395,1,"(1, 2)",266,0,False,False,False,True,False,False
267,0,"{'mean': 0.29999999999999999, 'sd': 0.37}",0.30000000000000004,3,0.564643144607544,1,"(0, 2)",267,0,False,False,False,False,False,False
268,0,"{'mean': 0.29999999999999999, 'sd': 0.37}",0.30000000000000004,1,0.29241299629211426,1,"(1, 3)",268,0,False,False,True,False,True,True
269,0,"{'mean': 0.29999999999999999, 'sd': 0.37}",0.30000000000000004,1,0.4201819896697998,1,"(1, 3)",269,0,True,False,True,False,False,True
270,0,"{'mean': 0.29999999999999999, 'sd': 0.37}",0.30000000000000004,3,0.5733740329742432,1,"(0, 2)",270,0,False,False,False,False,True,False
271,0,"{'mean': 0.29999999999999999, 'sd': 0.37}",1.0,0,0.7302751541137695,1,"(0, 2)",271,0,False,False,True,False,True,True
272,0,"{'mean': 0.29999999999999999, 'sd': 0.37}",0.10000000000000009,1,0.5440700054168701,1,"(1, 2)",272,0,False,False,True,False,False,True
273,0,"{'mean': 0.29999999999999999, 'sd': 0.37}",1.0,0,0.4631328582763672,1,"(0, 3)",273,0,False,False,True,False,False,True
274,0,"{'mean': 0.29999999999999999, 'sd': 0.37}",0.8999999999999999,1,0.48354601860046387,1,"(1, 3)",274,0,False,False,True,False,False,True
275,0,"{'mean': 0.29999999999999999, 'sd': 0.37}",-0.30000000000000004,3,0.7332000732421875,1,"(0, 2)",275,0,False,False,False,False,True,False
276,0,"{'mean': 0.29999999999999999, 'sd': 0.37}",0.7,1,0.5379188060760498,1,"(1, 2)",276,0,False,False,True,False,True,True
277,0,"{'mean': 0.29999999999999999, 'sd': 0.37}",-0.10000000000000009,3,0.5997111797332764,1,"(0, 3)",277,0,False,False,False,True,True,False
278,0,"{'mean': 0.29999999999999999, 'sd': 0.37}",0.7,1,0.5050311088562012,1,"(1, 2)",278,0,False,False,True,False,True,True
279,0,"{'mean': 0.29999999999999999, 'sd': 0.37}",-0.10000000000000009,2,0.4630861282348633,1,"(1, 3)",279,0,False,False,False,False,True,False
280,0,"{'mean': 0.29999999999999999, 'sd': 0.37}",0.30000000000000004,0,0.5327579975128174,1,"(0, 3)",280,0,False,False,True,False,True,True
281,0,"{'mean': 0.29999999999999999, 'sd': 0.37}",0.10000000000000009,1,0.4532589912414551,1,"(1, 2)",281,0,False,False,True,False,False,True
282,0,"{'mean': 0.29999999999999999, 'sd': 0.37}",0.10000000000000009,0,0.6453499794006348,1,"(0, 3)",282,0,False,False,True,False,False,True
283,0,"{'mean': 0.29999999999999999, 'sd': 0.37}",0.10000000000000009,3,0.7064008712768555,1,"(0, 3)",283,0,False,False,False,True,True,False
284,0,"{'mean': 0.29999999999999999, 'sd': 0.37}",1.0,0,0.6147480010986328,1,"(0, 2)",284,0,False,False,True,False,True,True
285,0,"{'mean': 0.29999999999999999, 'sd': 0.37}",0.30000000000000004,2,0.5890159606933594,1,"(1, 2)",285,0,False,False,False,True,True,False
286,0,"{'mean': 0.29999999999999999, 'sd': 0.37}",0.7,1,0.7107288837432861,1,"(1, 2)",286,0,False,False,True,False,True,True
287,0,"{'mean': 0.29999999999999999, 'sd': 0.37}",0.30000000000000004,2,1.068856954574585,1,"(1, 2)",287,0,False,False,False,True,True,False
288,0,"{'mean': 0.29999999999999999, 'sd': 0.37}",0.10000000000000009,1,0.5185019969940186,1,"(1, 3)",288,0,False,False,True,False,True,True
289,0,"{'mean': 0.29999999999999999, 'sd': 0.37}",0.5,1,0.45769810676574707,1,"(1, 3)",289,0,True,False,True,False,False,True
290,0,"{'mean': 0.29999999999999999, 'sd': 0.37}",0.10000000000000009,2,0.5999059677124023,1,"(1, 2)",290,0,False,False,False,True,True,False
291,0,"{'mean': -0.29999999999999999, 'sd': 0.37}",0.30000000000000004,0,0.8538920879364014,0,"(0, 3)",291,1,False,True,True,False,True,False
292,0,"{'mean': -0.29999999999999999, 'sd': 0.37}",0.10000000000000009,2,0.812373161315918,0,"(1, 2)",292,1,False,False,False,True,True,True
293,0,"{'mean': -0.29999999999999999, 'sd': 0.37}",0.30000000000000004,2,0.4700641632080078,0,"(1, 2)",293,1,True,False,False,True,False,True
294,0,"{'mean': -0.29999999999999999, 'sd': 0.37}",-0.10000000000000009,3,0.5317609310150146,0,"(0, 3)",294,1,False,False,False,True,False,True
295,0,"{'mean': -0.29999999999999999, 'sd': 0.37}",-0.30000000000000004,3,0.4494588375091553,0,"(0, 3)",295,1,True,False,False,True,False,True
296,0,"{'mean': -0.29999999999999999, 'sd': 0.37}",-0.5,2,0.5058860778808594,0,"(1, 3)",296,1,False,False,False,False,False,False
297,0,"{'mean': -0.29999999999999999, 'sd': 0.37}",0.10000000000000009,2,0.7945919036865234,0,"(1, 2)",297,1,True,False,False,True,False,True
298,0,"{'mean': -0.29999999999999999, 'sd': 0.37}",-0.10000000000000009,2,0.4514939785003662,0,"(1, 2)",298,1,True,False,False,True,False,True
299,0,"{'mean': -0.29999999999999999, 'sd': 0.37}",-0.30000000000000004,3,0.2884371280670166,0,"(0, 3)",299,1,False,False,False,True,False,True
300,0,"{'mean': -0.29999999999999999, 'sd': 0.37}",-0.10000000000000009,2,0.5669128894805908,0,"(1, 2)",300,1,False,False,False,True,False,True
301,0,"{'mean': 0.29999999999999999, 'sd': 0.37}",0.30000000000000004,1,0.6143770217895508,1,"(1, 3)",301,0,False,True,True,False,True,True
302,0,"{'mean': 0.29999999999999999, 'sd': 0.37}",0.10000000000000009,0,0.5628080368041992,1,"(0, 3)",302,0,False,False,True,False,False,True
303,0,"{'mean': -0.29999999999999999, 'sd': 0.37}",0.10000000000000009,1,0.5341899394989014,0,"(0, 3)",303,1,False,True,False,False,True,False
304,0,"{'mean': 0.29999999999999999, 'sd': 0.37}",-0.5,2,1.0596959590911865,1,"(1, 3)",304,0,False,True,False,False,False,False
305,0,"{'mean': 0.29999999999999999, 'sd': 0.37}",0.30000000000000004,3,0.92539381980896,1,"(0, 2)",305,0,False,False,False,False,False,False
306,0,"{'mean': 0.29999999999999999, 'sd': 0.37}",0.7,1,0.5847420692443848,1,"(1, 3)",306,0,False,False,True,False,True,True
307,0,"{'mean': -0.29999999999999999, 'sd': 0.37}",-0.9000000000000001,3,0.5101161003112793,0,"(0, 3)",307,1,False,True,False,True,True,True
308,0,"{'mean': -0.29999999999999999, 'sd': 0.37}",-0.10000000000000009,3,0.5315542221069336,0,"(0, 2)",308,1,True,False,False,False,False,False
309,0,"{'mean': -0.29999999999999999, 'sd': 0.37}",-0.30000000000000004,1,0.5064568519592285,0,"(1, 3)",309,1,False,False,True,False,True,False
310,0,"{'mean': -0.29999999999999999, 'sd': 0.37}",-0.5,2,0.46138501167297363,0,"(1, 2)",310,1,False,False,False,True,True,True
311,0,"{'mean': -0.29999999999999999, 'sd': 0.37}",-0.5,3,0.43015503883361816,0,"(0, 2)",311,1,False,False,False,False,False,False
312,0,"{'mean': -0.29999999999999999, 'sd': 0.37}",-0.10000000000000009,2,0.5633881092071533,0,"(1, 2)",312,1,False,False,False,True,False,True
313,0,"{'mean': -0.29999999999999999, 'sd': 0.37}",-0.5,2,0.961665153503418,0,"(1, 3)",313,1,True,False,False,False,False,False
314,0,"{'mean': -0.29999999999999999, 'sd': 0.37}",-0.5,3,0.9750781059265137,0,"(0, 3)",314,1,False,False,False,True,False,True
315,0,"{'mean': 0.29999999999999999, 'sd': 0.37}",1.0,0,0.5369889736175537,1,"(0, 3)",315,0,False,True,True,False,True,True
316,0,"{'mean': 0.29999999999999999, 'sd': 0.37}",0.7,1,0.4432060718536377,1,"(1, 2)",316,0,False,False,True,False,False,True
317,0,"{'mean': 0.29999999999999999, 'sd': 0.37}",0.5,1,0.4612739086151123,1,"(1, 3)",317,0,True,False,True,False,False,True
318,0,"{'mean': 0.29999999999999999, 'sd': 0.37}",0.7,0,0.49254822731018066,1,"(0, 3)",318,0,False,False,True,False,False,True
319,0,"{'mean': 0.29999999999999999, 'sd': 0.37}",0.30000000000000004,2,0.7192530632019043,1,"(0, 2)",319,0,False,False,False,True,True,False
320,0,"{'mean': 0.29999999999999999, 'sd': 0.37}",-0.30000000000000004,2,0.5401861667633057,1,"(1, 2)",320,0,True,False,False,True,False,False
321,0,"{'mean': 0.29999999999999999, 'sd': 0.37}",-0.30000000000000004,2,0.4708259105682373,1,"(1, 2)",321,0,True,False,False,True,False,False
322,0,"{'mean': 0.29999999999999999, 'sd': 0.37}",0.10000000000000009,3,0.4459190368652344,1,"(0, 2)",322,0,False,False,False,False,False,False
323,0,"{'mean': 0.29999999999999999, 'sd': 0.37}",0.10000000000000009,2,0.47067904472351074,1,"(1, 2)",323,0,False,False,False,True,False,False
324,0,"{'mean': 0.29999999999999999, 'sd': 0.37}",0.5,0,1.080622911453247,1,"(0, 2)",324,0,False,False,True,False,True,True
325,0,"{'mean': 0.29999999999999999, 'sd': 0.37}",0.7,1,0.43140292167663574,1,"(1, 3)",325,0,False,False,True,False,False,True
326,0,"{'mean': 0.29999999999999999, 'sd': 0.37}",0.5,0,0.4894700050354004,1,"(0, 3)",326,0,False,False,True,False,False,True
327,0,"{'mean': 0.29999999999999999, 'sd': 0.37}",-0.10000000000000009,2,0.6902961730957031,1,"(1, 3)",327,0,False,False,False,False,True,False
328,0,"{'mean': 0.29999999999999999, 'sd': 0.37}",-0.10000000000000009,3,0.5366990566253662,1,"(0, 3)",328,0,False,False,False,True,False,False
329,0,"{'mean': 0.29999999999999999, 'sd': 0.37}",0.5,0,0.46054720878601074,1,"(0, 2)",329,0,False,False,True,False,True,True
330,0,"{'mean': 0.29999999999999999, 'sd': 0.37}",0.8999999999999999,0,0.9432129859924316,1,"(0, 3)",330,0,True,False,True,False,False,True
331,0,"{'mean': 0.29999999999999999, 'sd': 0.37}",-0.10000000000000009,1,0.569861888885498,1,"(1, 3)",331,0,False,False,True,False,False,True
332,0,"{'mean': 0.29999999999999999, 'sd': 0.37}",0.10000000000000009,0,0.46831417083740234,1,"(0, 2)",332,0,False,False,True,False,False,True
333,0,"{'mean': 0.29999999999999999, 'sd': 0.37}",-0.30000000000000004,1,0.617089033126831,1,"(1, 3)",333,0,False,False,True,False,False,True
334,0,"{'mean': 0.29999999999999999, 'sd': 0.37}",0.30000000000000004,3,0.8523290157318115,1,"(0, 3)",334,0,False,False,False,True,True,False
335,0,"{'mean': 0.29999999999999999, 'sd': 0.37}",0.10000000000000009,1,0.9655890464782715,1,"(1, 3)",335,0,False,False,True,False,True,True
336,0,"{'mean': 0.29999999999999999, 'sd': 0.37}",0.8999999999999999,0,0.39082884788513184,1,"(0, 3)",336,0,False,False,True,False,False,True
337,0,"{'mean': 0.29999999999999999, 'sd': 0.37}",0.7,0,0.44152116775512695,1,"(0, 2)",337,0,True,False,True,False,False,True
338,0,"{'mean': 0.29999999999999999, 'sd': 0.37}",-0.10000000000000009,2,0.6333260536193848,1,"(0, 3)",338,0,False,False,False,False,True,False
339,0,"{'mean': 0.29999999999999999, 'sd': 0.37}",0.7,1,0.45815086364746094,1,"(1, 2)",339,0,False,False,True,False,True,True
340,0,"{'mean': 0.29999999999999999, 'sd': 0.37}",0.30000000000000004,0,0.5587210655212402,1,"(0, 3)",340,0,False,False,True,False,False,True
341,0,"{'mean': 0.29999999999999999, 'sd': 0.37}",-0.5,2,0.565669059753418,1,"(1, 2)",341,0,False,False,False,True,True,False
342,0,"{'mean': -0.29999999999999999, 'sd': 0.37}",0.10000000000000009,3,0.4951510429382324,0,"(0, 3)",342,1,False,True,False,True,False,True
343,0,"{'mean': -0.29999999999999999, 'sd': 0.37}",-0.5,2,0.5857889652252197,0,"(1, 3)",343,1,False,False,False,False,False,False
344,0,"{'mean': -0.29999999999999999, 'sd': 0.37}",-0.7000000000000001,2,0.43246912956237793,0,"(1, 2)",344,1,True,False,False,True,False,True
345,0,"{'mean': -0.29999999999999999, 'sd': 0.37}",0.10000000000000009,1,0.7057640552520752,0,"(1, 3)",345,1,False,False,True,False,True,False
346,0,"{'mean': 0.29999999999999999, 'sd': 0.37}",-0.5,2,0.49744582176208496,1,"(1, 2)",346,0,False,True,False,True,True,False
347,0,"{'mean': 0.29999999999999999, 'sd': 0.37}",0.5,1,0.7029328346252441,1,"(1, 2)",347,0,False,False,True,False,True,True
348,0,"{'mean': 0.29999999999999999, 'sd': 0.37}",0.8999999999999999,0,0.46410703659057617,1,"(0, 2)",348,0,False,False,True,False,False,True
349,0,"{'mean': 0.29999999999999999, 'sd': 0.37}",0.5,1,0.44645094871520996,1,"(1, 2)",349,0,False,False,True,False,False,True
350,0,"{'mean': 0.29999999999999999, 'sd': 0.37}",0.30000000000000004,0,0.4053189754486084,1,"(0, 2)",350,0,False,False,True,False,False,True
351,0,"{'mean': 0.29999999999999999, 'sd': 0.37}",-0.10000000000000009,3,0.5896601676940918,1,"(0, 3)",351,0,False,False,False,True,True,False
352,0,"{'mean': 0.29999999999999999, 'sd': 0.37}",-0.5,3,0.6774289608001709,1,"(0, 3)",352,0,True,False,False,True,False,False
353,0,"{'mean': 0.29999999999999999, 'sd': 0.37}",0.5,0,1.0614259243011475,1,"(0, 3)",353,0,False,False,True,False,True,True
354,0,"{'mean': 0.29999999999999999, 'sd': 0.37}",0.5,1,0.4725821018218994,1,"(1, 2)",354,0,False,False,True,False,False,True
355,0,"{'mean': 0.29999999999999999, 'sd': 0.37}",0.7,1,0.4076550006866455,1,"(1, 2)",355,0,True,False,True,False,False,True
356,0,"{'mean': 0.29999999999999999, 'sd': 0.37}",0.10000000000000009,2,0.5663490295410156,1,"(1, 2)",356,0,False,False,False,True,True,False
357,0,"{'mean': 0.29999999999999999, 'sd': 0.37}",0.10000000000000009,2,0.3550589084625244,1,"(1, 2)",357,0,True,False,False,True,False,False
358,0,"{'mean': 0.29999999999999999, 'sd': 0.37}",-0.10000000000000009,2,0.5319178104400635,1,"(1, 3)",358,0,True,False,False,False,False,False
359,0,"{'mean': -0.29999999999999999, 'sd': 0.37}",0.30000000000000004,0,0.4907560348510742,0,"(0, 2)",359,1,False,True,True,False,True,False
360,0,"{'mean': -0.29999999999999999, 'sd': 0.37}",-0.9000000000000001,3,0.5372741222381592,0,"(1, 3)",360,1,False,False,False,True,True,True
361,0,"{'mean': 0.29999999999999999, 'sd': 0.37}",0.30000000000000004,0,0.9691441059112549,1,"(0, 3)",361,0,False,True,True,False,True,True
362,0,"{'mean': 0.29999999999999999, 'sd': 0.37}",0.30000000000000004,1,0.8712599277496338,1,"(1, 3)",362,0,False,False,True,False,False,True
363,0,"{'mean': 0.29999999999999999, 'sd': 0.37}",0.7,1,0.5043189525604248,1,"(1, 3)",363,0,True,False,True,False,False,True
364,0,"{'mean': 0.29999999999999999, 'sd': 0.37}",0.7,1,0.3235180377960205,1,"(1, 3)",364,0,True,False,True,False,False,True
365,0,"{'mean': 0.29999999999999999, 'sd': 0.37}",-0.30000000000000004,3,0.7216742038726807,1,"(0, 3)",365,0,False,False,False,True,True,False
366,0,"{'mean': -0.29999999999999999, 'sd': 0.37}",0.30000000000000004,1,0.46062207221984863,0,"(1, 2)",366,1,False,True,True,False,True,False
367,0,"{'mean': -0.29999999999999999, 'sd': 0.37}",-0.7000000000000001,2,0.6199190616607666,0,"(1, 3)",367,1,False,False,False,False,True,False
368,0,"{'mean': -0.29999999999999999, 'sd': 0.37}",-0.30000000000000004,0,0.6871929168701172,0,"(0, 2)",368,1,False,False,True,False,True,False
369,0,"{'mean': -0.29999999999999999, 'sd': 0.37}",-0.10000000000000009,3,0.3767201900482178,0,"(0, 3)",369,1,False,False,False,True,True,True
370,0,"{'mean': 0.29999999999999999, 'sd': 0.37}",0.10000000000000009,0,0.5328991413116455,1,"(0, 2)",370,0,False,True,True,False,True,True
371,0,"{'mean': -0.29999999999999999, 'sd': 0.37}",-0.30000000000000004,3,0.40003395080566406,0,"(0, 3)",371,1,False,True,False,True,True,True
372,0,"{'mean': 0.29999999999999999, 'sd': 0.37}",-0.30000000000000004,3,0.44666481018066406,1,"(0, 3)",372,0,True,True,False,True,False,False
373,0,"{'mean': 0.29999999999999999, 'sd': 0.37}",0.10000000000000009,1,0.42298293113708496,1,"(1, 2)",373,0,False,False,True,False,True,True
374,0,"{'mean': 0.29999999999999999, 'sd': 0.37}",-0.5,3,0.474290132522583,1,"(0, 3)",374,0,False,False,False,True,True,False
375,0,"{'mean': -0.29999999999999999, 'sd': 0.37}",-0.7000000000000001,3,0.5145230293273926,0,"(0, 2)",375,1,True,True,False,False,False,False
376,0,"{'mean': -0.29999999999999999, 'sd': 0.37}",-0.5,1,0.6208269596099854,0,"(1, 3)",376,1,False,False,True,False,True,False
377,0,"{'mean': -0.29999999999999999, 'sd': 0.37}",-0.30000000000000004,2,0.43508195877075195,0,"(1, 2)",377,1,False,False,False,True,True,True
378,0,"{'mean': -0.29999999999999999, 'sd': 0.37}",-0.7000000000000001,3,0.5482361316680908,0,"(0, 2)",378,1,False,False,False,False,False,False
379,0,"{'mean': -0.29999999999999999, 'sd': 0.37}",-0.10000000000000009,2,0.4952380657196045,0,"(1, 2)",379,1,False,False,False,True,False,True
380,0,"{'mean': -0.29999999999999999, 'sd': 0.37}",-0.10000000000000009,1,0.6780641078948975,0,"(1, 3)",380,1,False,False,True,False,True,False
381,0,"{'mean': -0.29999999999999999, 'sd': 0.37}",0.7,0,0.48908090591430664,0,"(0, 2)",381,1,False,False,True,False,False,False
382,0,"{'mean': -0.29999999999999999, 'sd': 0.37}",-0.5,3,0.7198050022125244,0,"(0, 2)",382,1,False,False,False,False,True,False
383,0,"{'mean': -0.29999999999999999, 'sd': 0.37}",0.10000000000000009,3,0.7502391338348389,0,"(0, 2)",383,1,True,False,False,False,False,False
384,0,"{'mean': -0.29999999999999999, 'sd': 0.37}",-0.7000000000000001,3,0.5115280151367188,0,"(0, 2)",384,1,True,False,False,False,False,False
385,0,"{'mean': -0.29999999999999999, 'sd': 0.37}",0.10000000000000009,0,0.8433339595794678,0,"(0, 2)",385,1,False,False,True,False,True,False
386,0,"{'mean': 0.29999999999999999, 'sd': 0.37}",0.5,1,0.7579989433288574,1,"(1, 2)",386,0,False,True,True,False,False,True
387,0,"{'mean': 0.29999999999999999, 'sd': 0.37}",0.30000000000000004,2,0.5978319644927979,1,"(1, 2)",387,0,False,False,False,True,True,False
388,0,"{'mean': 0.29999999999999999, 'sd': 0.37}",-0.30000000000000004,2,0.9264199733734131,1,"(1, 3)",388,0,True,False,False,False,False,False
389,0,"{'mean': 0.29999999999999999, 'sd': 0.37}",0.7,1,0.6663780212402344,1,"(1, 2)",389,0,False,False,True,False,True,True
390,0,"{'mean': 0.29999999999999999, 'sd': 0.37}",0.10000000000000009,1,0.4924020767211914,1,"(1, 2)",390,0,True,False,True,False,False,True
391,0,"{'mean': 0.29999999999999999, 'sd': 0.37}",0.5,1,0.5406718254089355,1,"(1, 3)",391,0,True,False,True,False,False,True
392,0,"{'mean': 0.29999999999999999, 'sd': 0.37}",0.8999999999999999,0,0.43049001693725586,1,"(0, 3)",392,0,False,False,True,False,False,True
393,0,"{'mean': 0.29999999999999999, 'sd': 0.37}",0.5,1,0.5272610187530518,1,"(1, 2)",393,0,False,False,True,False,False,True
394,0,"{'mean': 0.29999999999999999, 'sd': 0.37}",0.5,0,0.45955896377563477,1,"(0, 2)",394,0,False,False,True,False,False,True
395,0,"{'mean': 0.29999999999999999, 'sd': 0.37}",0.30000000000000004,1,0.811068058013916,1,"(1, 3)",395,0,False,False,True,False,False,True
396,0,"{'mean': 0.29999999999999999, 'sd': 0.37}",0.30000000000000004,0,0.5357840061187744,1,"(0, 3)",396,0,False,False,True,False,False,True
397,0,"{'mean': 0.29999999999999999, 'sd': 0.37}",0.10000000000000009,1,0.9510719776153564,1,"(1, 3)",397,0,False,False,True,False,False,True
398,0,"{'mean': 0.29999999999999999, 'sd': 0.37}",0.30000000000000004,0,0.5189850330352783,1,"(0, 2)",398,0,False,False,True,False,False,True
399,0,"{'mean': 0.29999999999999999, 'sd': 0.37}",-0.10000000000000009,1,0.7429931163787842,1,"(1, 3)",399,0,False,False,True,False,False,True
400,0,"{'mean': 0.29999999999999999, 'sd': 0.37}",-0.30000000000000004,0,0.7287077903747559,1,"(0, 3)",400,0,False,False,True,False,False,True
401,0,"{'mean': 0.29999999999999999, 'sd': 0.37}",1.0,1,1.2887070178985596,1,"(1, 2)",401,0,False,False,True,False,False,True
402,0,"{'mean': 0.29999999999999999, 'sd': 0.37}",-0.10000000000000009,0,0.914438009262085,1,"(0, 3)",402,0,False,False,True,False,False,True
403,0,"{'mean': 0.29999999999999999, 'sd': 0.37}",0.7,0,0.6635441780090332,1,"(0, 2)",403,0,True,False,True,False,False,True
404,0,"{'mean': 0.29999999999999999, 'sd': 0.37}",0.7,1,0.5957579612731934,1,"(1, 2)",404,0,False,False,True,False,False,True
405,0,"{'mean': 0.29999999999999999, 'sd': 0.37}",0.5,0,0.5615429878234863,1,"(0, 3)",405,0,False,False,True,False,False,True
406,0,"{'mean': -0.29999999999999999, 'sd': 0.37}",-0.5,3,0.5628390312194824,0,"(0, 2)",406,1,False,True,False,False,True,False
407,0,"{'mean': -0.29999999999999999, 'sd': 0.37}",-0.10000000000000009,3,0.6013247966766357,0,"(0, 2)",407,1,True,False,False,False,False,False
408,0,"{'mean': -0.29999999999999999, 'sd': 0.37}",-0.7000000000000001,2,0.6016829013824463,0,"(1, 2)",408,1,False,False,False,True,False,True
409,0,"{'mean': -0.29999999999999999, 'sd': 0.37}",-0.10000000000000009,3,0.49004578590393066,0,"(0, 2)",409,1,False,False,False,False,False,False
410,0,"{'mean': -0.29999999999999999, 'sd': 0.37}",-0.30000000000000004,2,0.8338639736175537,0,"(1, 3)",410,1,False,False,False,False,False,False
411,0,"{'mean': -0.29999999999999999, 'sd': 0.37}",-0.30000000000000004,3,0.5583698749542236,0,"(0, 3)",411,1,False,False,False,True,False,True
412,0,"{'mean': -0.29999999999999999, 'sd': 0.37}",-0.30000000000000004,3,0.44319820404052734,0,"(0, 2)",412,1,True,False,False,False,False,False
413,0,"{'mean': -0.29999999999999999, 'sd': 0.37}",-0.10000000000000009,3,0.5715451240539551,0,"(0, 2)",413,1,True,False,False,False,False,False
414,0,"{'mean': -0.29999999999999999, 'sd': 0.37}",-0.30000000000000004,3,0.970304012298584,0,"(0, 2)",414,1,True,False,False,False,False,False
415,0,"{'mean': -0.29999999999999999, 'sd': 0.37}",-0.10000000000000009,3,1.0987210273742676,0,"(0, 3)",415,1,True,False,False,True,False,True
416,0,"{'mean': 0.29999999999999999, 'sd': 0.37}",0.10000000000000009,0,0.9060838222503662,1,"(0, 2)",416,0,False,True,True,False,True,True
417,0,"{'mean': -0.29999999999999999, 'sd': 0.37}",-0.7000000000000001,2,0.6175439357757568,0,"(1, 2)",417,1,False,True,False,True,True,True
418,0,"{'mean': -0.29999999999999999, 'sd': 0.37}",-0.30000000000000004,2,0.6033759117126465,0,"(1, 2)",418,1,True,False,False,True,False,True
419,0,"{'mean': -0.29999999999999999, 'sd': 0.37}",-0.10000000000000009,3,0.4728538990020752,0,"(0, 2)",419,1,False,False,False,False,False,False
420,0,"{'mean': -0.29999999999999999, 'sd': 0.37}",-0.10000000000000009,2,1.1599559783935547,0,"(1, 2)",420,1,False,False,False,True,False,True
421,0,"{'mean': 0.29999999999999999, 'sd': 0.37}",0.30000000000000004,1,0.9584348201751709,1,"(1, 2)",421,0,False,True,True,False,True,True
422,0,"{'mean': 0.29999999999999999, 'sd': 0.37}",-0.10000000000000009,3,0.478518009185791,1,"(0, 2)",422,0,False,False,False,False,True,False
423,0,"{'mean': 0.29999999999999999, 'sd': 0.37}",0.10000000000000009,2,0.4990379810333252,1,"(1, 2)",423,0,False,False,False,True,False,False
424,0,"{'mean': 0.29999999999999999, 'sd': 0.37}",0.30000000000000004,0,0.7334239482879639,1,"(0, 3)",424,0,False,False,True,False,True,True
425,0,"{'mean': 0.29999999999999999, 'sd': 0.37}",0.8999999999999999,0,0.510498046875,1,"(0, 3)",425,0,True,False,True,False,False,True
426,0,"{'mean': 0.29999999999999999, 'sd': 0.37}",-0.10000000000000009,2,0.5934319496154785,1,"(1, 2)",426,0,False,False,False,True,True,False
427,0,"{'mean': -0.29999999999999999, 'sd': 0.37}",0.30000000000000004,1,0.4282059669494629,0,"(1, 3)",427,1,False,True,True,False,True,False
428,0,"{'mean': -0.29999999999999999, 'sd': 0.37}",-0.30000000000000004,2,0.4345719814300537,0,"(0, 2)",428,1,False,False,False,True,True,True
429,0,"{'mean': -0.29999999999999999, 'sd': 0.37}",-0.30000000000000004,2,0.6120901107788086,0,"(1, 2)",429,1,True,False,False,True,False,True
430,0,"{'mean': -0.29999999999999999, 'sd': 0.37}",-0.7000000000000001,2,0.4784049987792969,0,"(1, 2)",430,1,True,False,False,True,False,True
431,0,"{'mean': -0.29999999999999999, 'sd': 0.37}",-0.9000000000000001,2,0.39974308013916016,0,"(1, 2)",431,1,True,False,False,True,False,True
432,0,"{'mean': -0.29999999999999999, 'sd': 0.37}",-0.30000000000000004,2,0.4047691822052002,0,"(1, 2)",432,1,True,False,False,True,False,True
433,0,"{'mean': -0.29999999999999999, 'sd': 0.37}",-0.5,3,0.5014359951019287,0,"(0, 2)",433,1,False,False,False,False,False,False
434,0,"{'mean': -0.29999999999999999, 'sd': 0.37}",-0.30000000000000004,2,0.5048348903656006,0,"(1, 3)",434,1,False,False,False,False,False,False
435,0,"{'mean': -0.29999999999999999, 'sd': 0.37}",-0.7000000000000001,3,0.4362459182739258,0,"(0, 2)",435,1,False,False,False,False,False,False
436,0,"{'mean': -0.29999999999999999, 'sd': 0.37}",-0.7000000000000001,2,0.5933148860931396,0,"(1, 3)",436,1,False,False,False,False,False,False
437,0,"{'mean': -0.29999999999999999, 'sd': 0.37}",-0.7000000000000001,3,0.8779308795928955,0,"(0, 2)",437,1,False,False,False,False,False,False
438,0,"{'mean': -0.29999999999999999, 'sd': 0.37}",-0.10000000000000009,1,0.817436933517456,0,"(1, 3)",438,1,False,False,True,False,True,False
439,0,"{'mean': -0.29999999999999999, 'sd': 0.37}",-0.30000000000000004,3,1.1848819255828857,0,"(0, 3)",439,1,False,False,False,True,True,True
440,0,"{'mean': -0.29999999999999999, 'sd': 0.37}",-0.7000000000000001,2,0.5254218578338623,0,"(1, 2)",440,1,False,False,False,True,False,True
441,0,"{'mean': -0.29999999999999999, 'sd': 0.37}",0.30000000000000004,0,0.5361940860748291,0,"(0, 2)",441,1,False,False,True,False,True,False
442,0,"{'mean': -0.29999999999999999, 'sd': 0.37}",-0.7000000000000001,2,0.7245399951934814,0,"(1, 2)",442,1,False,False,False,True,True,True
443,0,"{'mean': -0.29999999999999999, 'sd': 0.37}",-0.9000000000000001,2,0.9192380905151367,0,"(1, 3)",443,1,True,False,False,False,False,False
444,0,"{'mean': -0.29999999999999999, 'sd': 0.37}",-0.10000000000000009,3,1.3516440391540527,0,"(0, 2)",444,1,False,False,False,False,False,False
445,0,"{'mean': -0.29999999999999999, 'sd': 0.37}",-0.5,2,0.6867401599884033,0,"(1, 2)",445,1,False,False,False,True,False,True
446,0,"{'mean': -0.29999999999999999, 'sd': 0.37}",-1.0,2,0.5267219543457031,0,"(1, 2)",446,1,True,False,False,True,False,True
447,0,"{'mean': -0.29999999999999999, 'sd': 0.37}",-0.7000000000000001,3,0.7406940460205078,0,"(0, 3)",447,1,False,False,False,True,False,True
448,0,"{'mean': -0.29999999999999999, 'sd': 0.37}",0.30000000000000004,3,0.8790690898895264,0,"(0, 2)",448,1,True,False,False,False,False,False
449,0,"{'mean': -0.29999999999999999, 'sd': 0.37}",0.10000000000000009,1,0.6878890991210938,0,"(1, 3)",449,1,False,False,True,False,True,False
450,0,"{'mean': -0.29999999999999999, 'sd': 0.37}",-0.10000000000000009,1,0.5752730369567871,0,"(1, 3)",450,1,True,False,True,False,False,False
451,0,"{'mean': -0.29999999999999999, 'sd': 0.37}",-0.30000000000000004,0,0.713386058807373,0,"(0, 2)",451,1,False,False,True,False,False,False
452,0,"{'mean': -0.29999999999999999, 'sd': 0.37}",-0.7000000000000001,3,0.7054500579833984,0,"(0, 2)",452,1,False,False,False,False,True,False
453,0,"{'mean': -0.29999999999999999, 'sd': 0.37}",-0.10000000000000009,1,0.5619509220123291,0,"(1, 3)",453,1,False,False,True,False,True,False
454,0,"{'mean': 0.29999999999999999, 'sd': 0.37}",0.8999999999999999,2,1.1243488788604736,1,"(1, 2)",454,0,False,True,False,True,True,False
455,0,"{'mean': 0.29999999999999999, 'sd': 0.37}",-0.30000000000000004,0,1.352653980255127,1,"(0, 2)",455,0,False,False,True,False,True,True
456,0,"{'mean': 0.29999999999999999, 'sd': 0.37}",0.10000000000000009,2,0.5921769142150879,1,"(1, 2)",456,0,False,False,False,True,True,False
457,0,"{'mean': 0.29999999999999999, 'sd': 0.37}",0.10000000000000009,0,0.6790211200714111,1,"(0, 3)",457,0,False,False,True,False,True,True
458,0,"{'mean': -0.29999999999999999, 'sd': 0.37}",0.10000000000000009,0,0.7057058811187744,0,"(0, 2)",458,1,True,True,True,False,False,False
459,0,"{'mean': -0.29999999999999999, 'sd': 0.37}",-0.30000000000000004,3,0.7641201019287109,0,"(0, 3)",459,1,False,False,False,True,True,True
460,0,"{'mean': -0.29999999999999999, 'sd': 0.37}",-0.7000000000000001,3,0.4689481258392334,0,"(0, 3)",460,1,True,False,False,True,False,True
461,0,"{'mean': -0.29999999999999999, 'sd': 0.37}",-0.5,3,0.7793810367584229,0,"(0, 2)",461,1,True,False,False,False,False,False
462,0,"{'mean': -0.29999999999999999, 'sd': 0.37}",-0.10000000000000009,3,0.587486982345581,0,"(0, 3)",462,1,True,False,False,True,False,True
463,0,"{'mean': -0.29999999999999999, 'sd': 0.37}",-0.9000000000000001,3,0.41118717193603516,0,"(0, 3)",463,1,True,False,False,True,False,True
464,0,"{'mean': -0.29999999999999999, 'sd': 0.37}",-0.30000000000000004,2,0.5810739994049072,0,"(1, 2)",464,1,False,False,False,True,False,True
465,0,"{'mean': -0.29999999999999999, 'sd': 0.37}",-0.5,1,0.5636651515960693,0,"(1, 3)",465,1,False,False,True,False,True,False
466,0,"{'mean': -0.29999999999999999, 'sd': 0.37}",-0.30000000000000004,3,0.5690770149230957,0,"(0, 2)",466,1,False,False,False,False,True,False
467,0,"{'mean': -0.29999999999999999, 'sd': 0.37}",-0.30000000000000004,2,0.8724229335784912,0,"(1, 3)",467,1,False,False,False,False,False,False
468,0,"{'mean': -0.29999999999999999, 'sd': 0.37}",0.10000000000000009,1,1.3656730651855469,0,"(1, 3)",468,1,False,False,True,False,True,False
469,0,"{'mean': -0.29999999999999999, 'sd': 0.37}",0.5,0,0.5681581497192383,0,"(0, 2)",469,1,False,False,True,False,False,False
470,0,"{'mean': -0.29999999999999999, 'sd': 0.37}",-0.5,2,0.5786380767822266,0,"(1, 2)",470,1,False,False,False,True,True,True
471,0,"{'mean': -0.29999999999999999, 'sd': 0.37}",-0.9000000000000001,2,0.6118791103363037,0,"(1, 2)",471,1,True,False,False,True,False,True
472,0,"{'mean': 0.29999999999999999, 'sd': 0.37}",0.30000000000000004,0,0.9665889739990234,1,"(0, 2)",472,0,False,True,True,False,True,True
473,0,"{'mean': 0.29999999999999999, 'sd': 0.37}",0.30000000000000004,2,0.8514480590820312,1,"(1, 2)",473,0,False,False,False,True,True,False
474,0,"{'mean': 0.29999999999999999, 'sd': 0.37}",-0.10000000000000009,3,1.2602629661560059,1,"(0, 3)",474,0,False,False,False,True,False,False
475,0,"{'mean': 0.29999999999999999, 'sd': 0.37}",0.30000000000000004,0,0.6210410594940186,1,"(0, 3)",475,0,False,False,True,False,True,True
476,0,"{'mean': 0.29999999999999999, 'sd': 0.37}",0.10000000000000009,1,0.5355398654937744,1,"(1, 3)",476,0,False,False,True,False,False,True
477,0,"{'mean': 0.29999999999999999, 'sd': 0.37}",0.10000000000000009,3,0.775317907333374,1,"(0, 2)",477,0,False,False,False,False,True,False
478,0,"{'mean': 0.29999999999999999, 'sd': 0.37}",0.5,0,0.783656120300293,1,"(0, 2)",478,0,False,False,True,False,True,True
479,0,"{'mean': 0.29999999999999999, 'sd': 0.37}",0.30000000000000004,1,0.5859260559082031,1,"(1, 3)",479,0,False,False,True,False,False,True
480,0,"{'mean': 0.29999999999999999, 'sd': 0.37}",0.5,0,0.45872998237609863,1,"(0, 2)",480,0,False,False,True,False,False,True
481,0,"{'mean': 0.29999999999999999, 'sd': 0.37}",-0.10000000000000009,2,0.6175248622894287,1,"(1, 3)",481,0,False,False,False,False,True,False
482,0,"{'mean': 0.29999999999999999, 'sd': 0.37}",0.30000000000000004,0,0.5791120529174805,1,"(0, 3)",482,0,False,False,True,False,True,True
483,0,"{'mean': 0.29999999999999999, 'sd': 0.37}",0.7,1,0.5133981704711914,1,"(1, 3)",483,0,False,False,True,False,False,True
484,0,"{'mean': 0.29999999999999999, 'sd': 0.37}",0.7,1,0.7548770904541016,1,"(1, 2)",484,0,True,False,True,False,False,True
485,0,"{'mean': 0.29999999999999999, 'sd': 0.37}",0.7,0,0.4929959774017334,1,"(0, 2)",485,0,False,False,True,False,False,True
486,0,"{'mean': 0.29999999999999999, 'sd': 0.37}",0.10000000000000009,3,1.0602531433105469,1,"(0, 2)",486,0,False,False,False,False,True,False
487,0,"{'mean': 0.29999999999999999, 'sd': 0.37}",0.10000000000000009,1,0.5863339900970459,1,"(1, 3)",487,0,False,False,True,False,True,True
488,0,"{'mean': 0.29999999999999999, 'sd': 0.37}",0.7,1,0.5093398094177246,1,"(1, 3)",488,0,True,False,True,False,False,True
489,0,"{'mean': 0.29999999999999999, 'sd': 0.37}",0.10000000000000009,0,0.520521879196167,1,"(0, 2)",489,0,False,False,True,False,False,True
490,0,"{'mean': 0.29999999999999999, 'sd': 0.37}",0.7,1,0.5199940204620361,1,"(1, 3)",490,0,False,False,True,False,False,True
491,0,"{'mean': 0.29999999999999999, 'sd': 0.37}",0.30000000000000004,2,0.7685329914093018,1,"(1, 2)",491,0,False,False,False,True,True,False
492,0,"{'mean': -0.29999999999999999, 'sd': 0.37}",-0.10000000000000009,0,0.8820929527282715,0,"(0, 2)",492,1,False,True,True,False,True,False
493,0,"{'mean': -0.29999999999999999, 'sd': 0.37}",-0.10000000000000009,2,0.5486690998077393,0,"(1, 2)",493,1,False,False,False,True,True,True
494,0,"{'mean': -0.29999999999999999, 'sd': 0.37}",-0.9000000000000001,2,0.9189620018005371,0,"(1, 3)",494,1,True,False,False,False,False,False
495,0,"{'mean': -0.29999999999999999, 'sd': 0.37}",-0.30000000000000004,3,0.5265810489654541,0,"(0, 3)",495,1,False,False,False,True,False,True
496,0,"{'mean': -0.29999999999999999, 'sd': 0.37}",0.10000000000000009,3,0.77435302734375,0,"(0, 2)",496,1,True,False,False,False,False,False
497,0,"{'mean': -0.29999999999999999, 'sd': 0.37}",-0.5,3,0.643125057220459,0,"(0, 2)",497,1,True,False,False,False,False,False
498,0,"{'mean': -0.29999999999999999, 'sd': 0.37}",-0.9000000000000001,3,0.5814311504364014,0,"(0, 2)",498,1,True,False,False,False,False,False
499,0,"{'mean': -0.29999999999999999, 'sd': 0.37}",-0.5,3,0.5712981224060059,0,"(0, 3)",499,1,True,False,False,True,False,True
500,0,"{'mean': -0.29999999999999999, 'sd': 0.37}",-0.7000000000000001,2,0.5979161262512207,0,"(1, 2)",500,1,False,False,False,True,False,True
501,0,"{'mean': -0.29999999999999999, 'sd': 0.37}",-0.30000000000000004,3,0.5845468044281006,0,"(0, 2)",501,1,False,False,False,False,False,False
502,0,"{'mean': -0.29999999999999999, 'sd': 0.37}",-0.5,2,0.3976559638977051,0,"(1, 2)",502,1,False,False,False,True,False,True
503,0,"{'mean': -0.29999999999999999, 'sd': 0.37}",0.30000000000000004,1,1.1349880695343018,0,"(1, 2)",503,1,False,False,True,False,True,False
504,0,"{'mean': -0.29999999999999999, 'sd': 0.37}",-0.10000000000000009,3,1.2822329998016357,0,"(0, 3)",504,1,False,False,False,True,True,True
505,0,"{'mean': -0.29999999999999999, 'sd': 0.37}",-0.9000000000000001,2,0.5935719013214111,0,"(1, 2)",505,1,False,False,False,True,False,True
506,0,"{'mean': -0.29999999999999999, 'sd': 0.37}",-0.10000000000000009,3,0.33336305618286133,0,"(0, 3)",506,1,False,False,False,True,False,True
507,0,"{'mean': -0.29999999999999999, 'sd': 0.37}",-0.7000000000000001,2,0.6043751239776611,0,"(1, 3)",507,1,False,False,False,False,False,False
508,0,"{'mean': -0.29999999999999999, 'sd': 0.37}",-0.10000000000000009,3,0.47883105278015137,0,"(0, 3)",508,1,False,False,False,True,False,True
509,0,"{'mean': -0.29999999999999999, 'sd': 0.37}",-0.30000000000000004,3,0.7590329647064209,0,"(0, 3)",509,1,True,False,False,True,False,True
510,0,"{'mean': -0.29999999999999999, 'sd': 0.37}",-0.30000000000000004,2,0.9577169418334961,0,"(1, 3)",510,1,False,False,False,False,False,False
511,0,"{'mean': -0.29999999999999999, 'sd': 0.37}",-0.5,3,0.45981907844543457,0,"(0, 3)",511,1,False,False,False,True,False,True
512,0,"{'mean': -0.29999999999999999, 'sd': 0.37}",0.10000000000000009,0,0.6408810615539551,0,"(0, 2)",512,1,False,False,True,False,True,False
513,0,"{'mean': -0.29999999999999999, 'sd': 0.37}",-0.30000000000000004,3,0.5851149559020996,0,"(0, 2)",513,1,False,False,False,False,True,False
514,0,"{'mean': -0.29999999999999999, 'sd': 0.37}",-0.30000000000000004,0,0.5547800064086914,0,"(0, 3)",514,1,False,False,True,False,True,False
515,0,"{'mean': -0.29999999999999999, 'sd': 0.37}",-0.30000000000000004,0,0.5158588886260986,0,"(0, 2)",515,1,True,False,True,False,False,False
516,0,"{'mean': -0.29999999999999999, 'sd': 0.37}",0.10000000000000009,1,0.6443338394165039,0,"(1, 3)",516,1,False,False,True,False,False,False
517,0,"{'mean': -0.29999999999999999, 'sd': 0.37}",0.30000000000000004,2,0.8771159648895264,0,"(1, 2)",517,1,False,False,False,True,True,True
518,0,"{'mean': -0.29999999999999999, 'sd': 0.37}",-0.7000000000000001,3,0.5602250099182129,0,"(0, 2)",518,1,False,False,False,False,False,False
519,0,"{'mean': 0.29999999999999999, 'sd': 0.37}",0.30000000000000004,0,0.49353599548339844,1,"(0, 3)",519,0,False,True,True,False,True,True
520,0,"{'mean': -0.29999999999999999, 'sd': 0.37}",-0.30000000000000004,3,0.7355339527130127,0,"(0, 3)",520,1,False,True,False,True,True,True
521,0,"{'mean': 0.29999999999999999, 'sd': 0.37}",0.10000000000000009,1,0.45619893074035645,1,"(1, 3)",521,0,False,True,True,False,True,True
522,0,"{'mean': 0.29999999999999999, 'sd': 0.37}",0.8999999999999999,0,0.6804690361022949,1,"(0, 3)",522,0,False,False,True,False,False,True
523,0,"{'mean': 0.29999999999999999, 'sd': 0.37}",0.5,0,0.8410570621490479,1,"(0, 3)",523,0,True,False,True,False,False,True
524,0,"{'mean': 0.29999999999999999, 'sd': 0.37}",0.30000000000000004,0,0.4360470771789551,1,"(0, 3)",524,0,True,False,True,False,False,True
525,0,"{'mean': -0.29999999999999999, 'sd': 0.37}",0.30000000000000004,0,0.40346693992614746,0,"(0, 3)",525,1,True,True,True,False,False,False
526,0,"{'mean': -0.29999999999999999, 'sd': 0.37}",-0.9000000000000001,2,0.6873419284820557,0,"(1, 3)",526,1,False,False,False,False,True,False
527,0,"{'mean': -0.29999999999999999, 'sd': 0.37}",-0.30000000000000004,2,0.5093209743499756,0,"(0, 2)",527,1,True,False,False,True,False,True
528,0,"{'mean': -0.29999999999999999, 'sd': 0.37}",-1.0,3,0.3868989944458008,0,"(0, 3)",528,1,False,False,False,True,False,True
529,0,"{'mean': -0.29999999999999999, 'sd': 0.37}",-0.10000000000000009,1,0.7086160182952881,0,"(1, 3)",529,1,False,False,True,False,True,False
530,0,"{'mean': -0.29999999999999999, 'sd': 0.37}",-0.9000000000000001,2,1.0773670673370361,0,"(1, 3)",530,1,False,False,False,False,True,False
531,0,"{'mean': -0.29999999999999999, 'sd': 0.37}",-0.30000000000000004,2,0.727349042892456,0,"(1, 2)",531,1,True,False,False,True,False,True
532,0,"{'mean': -0.29999999999999999, 'sd': 0.37}",-0.5,3,0.29547905921936035,0,"(0, 3)",532,1,False,False,False,True,False,True
533,0,"{'mean': -0.29999999999999999, 'sd': 0.37}",-0.5,2,0.3617238998413086,0,"(1, 2)",533,1,False,False,False,True,False,True
534,0,"{'mean': -0.29999999999999999, 'sd': 0.37}",0.10000000000000009,2,0.647719144821167,0,"(1, 2)",534,1,True,False,False,True,False,True
535,0,"{'mean': -0.29999999999999999, 'sd': 0.37}",-0.10000000000000009,3,0.4473757743835449,0,"(0, 2)",535,1,False,False,False,False,False,False
536,0,"{'mean': -0.29999999999999999, 'sd': 0.37}",-0.30000000000000004,3,0.40366196632385254,0,"(0, 2)",536,1,True,False,False,False,False,False
537,0,"{'mean': -0.29999999999999999, 'sd': 0.37}",-0.5,2,0.6702311038970947,0,"(1, 3)",537,1,False,False,False,False,False,False
538,0,"{'mean': -0.29999999999999999, 'sd': 0.37}",-0.10000000000000009,0,0.8970909118652344,0,"(0, 3)",538,1,False,False,True,False,True,False
539,0,"{'mean': -0.29999999999999999, 'sd': 0.37}",-0.10000000000000009,0,0.8547470569610596,0,"(0, 2)",539,1,True,False,True,False,False,False
540,0,"{'mean': -0.29999999999999999, 'sd': 0.37}",0.10000000000000009,2,0.9526631832122803,0,"(1, 2)",540,1,False,False,False,True,True,True
541,0,"{'mean': -0.29999999999999999, 'sd': 0.37}",-0.9000000000000001,3,0.4719090461730957,0,"(0, 2)",541,1,False,False,False,False,False,False
542,0,"{'mean': -0.29999999999999999, 'sd': 0.37}",-0.30000000000000004,2,0.7960851192474365,0,"(1, 2)",542,1,False,False,False,True,False,True
543,0,"{'mean': -0.29999999999999999, 'sd': 0.37}",-0.5,2,0.9119699001312256,0,"(1, 3)",543,1,True,False,False,False,False,False
544,0,"{'mean': 0.29999999999999999, 'sd': 0.37}",0.10000000000000009,2,0.46631598472595215,1,"(1, 2)",544,0,True,True,False,True,False,False
545,0,"{'mean': 0.29999999999999999, 'sd': 0.37}",0.8999999999999999,1,0.9044599533081055,1,"(1, 2)",545,0,False,False,True,False,True,True
546,0,"{'mean': 0.29999999999999999, 'sd': 0.37}",-0.30000000000000004,2,0.5270130634307861,1,"(1, 3)",546,0,False,False,False,False,True,False
547,0,"{'mean': 0.29999999999999999, 'sd': 0.37}",0.7,0,0.6461429595947266,1,"(0, 2)",547,0,False,False,True,False,True,True
548,0,"{'mean': -0.29999999999999999, 'sd': 0.37}",0.5,1,0.520164966583252,0,"(1, 3)",548,1,False,True,True,False,False,False
549,0,"{'mean': -0.29999999999999999, 'sd': 0.37}",0.10000000000000009,2,0.7582459449768066,0,"(1, 2)",549,1,False,False,False,True,True,True
550,0,"{'mean': -0.29999999999999999, 'sd': 0.37}",-0.10000000000000009,2,0.4295780658721924,0,"(1, 2)",550,1,True,False,False,True,False,True
551,0,"{'mean': -0.29999999999999999, 'sd': 0.37}",-0.10000000000000009,2,0.41046619415283203,0,"(1, 3)",551,1,True,False,False,False,False,False
552,0,"{'mean': -0.29999999999999999, 'sd': 0.37}",-0.30000000000000004,2,0.7908120155334473,0,"(1, 3)",552,1,True,False,False,False,False,False
553,0,"{'mean': -0.29999999999999999, 'sd': 0.37}",-0.5,3,0.7027430534362793,0,"(0, 2)",553,1,False,False,False,False,False,False
554,0,"{'mean': -0.29999999999999999, 'sd': 0.37}",0.10000000000000009,0,0.7478110790252686,0,"(0, 3)",554,1,False,False,True,False,True,False
555,0,"{'mean': -0.29999999999999999, 'sd': 0.37}",0.5,1,0.9993081092834473,0,"(1, 2)",555,1,False,False,True,False,False,False
556,0,"{'mean': -0.29999999999999999, 'sd': 0.37}",-1.0,3,0.6463479995727539,0,"(0, 3)",556,1,False,False,False,True,True,True
557,0,"{'mean': -0.29999999999999999, 'sd': 0.37}",-0.7000000000000001,2,0.7265241146087646,0,"(1, 2)",557,1,False,False,False,True,False,True
558,0,"{'mean': -0.29999999999999999, 'sd': 0.37}",-0.30000000000000004,3,0.538193941116333,0,"(0, 2)",558,1,False,False,False,False,False,False
559,0,"{'mean': 0.29999999999999999, 'sd': 0.37}",0.5,0,0.5039608478546143,1,"(0, 3)",559,0,False,True,True,False,True,True
560,0,"{'mean': 0.29999999999999999, 'sd': 0.37}",0.30000000000000004,1,0.3056631088256836,1,"(1, 2)",560,0,False,False,True,False,False,True
561,0,"{'mean': 0.29999999999999999, 'sd': 0.37}",0.30000000000000004,0,0.5223090648651123,1,"(0, 3)",561,0,False,False,True,False,False,True
562,0,"{'mean': 0.29999999999999999, 'sd': 0.37}",0.10000000000000009,1,0.3232760429382324,1,"(1, 3)",562,0,False,False,True,False,False,True
563,0,"{'mean': 0.29999999999999999, 'sd': 0.37}",0.7,2,0.4933328628540039,1,"(1, 2)",563,0,False,False,False,True,True,False
564,0,"{'mean': 0.29999999999999999, 'sd': 0.37}",0.7,0,0.6143600940704346,1,"(0, 2)",564,0,False,False,True,False,True,True
565,0,"{'mean': 0.29999999999999999, 'sd': 0.37}",0.10000000000000009,2,0.8679568767547607,1,"(1, 2)",565,0,False,False,False,True,True,False
566,0,"{'mean': 0.29999999999999999, 'sd': 0.37}",0.5,0,0.4768970012664795,1,"(0, 2)",566,0,False,False,True,False,True,True
567,0,"{'mean': -0.29999999999999999, 'sd': 0.37}",-0.5,3,0.48697710037231445,0,"(0, 3)",567,1,False,True,False,True,True,True
568,0,"{'mean': -0.29999999999999999, 'sd': 0.37}",-0.9000000000000001,3,0.49059200286865234,0,"(0, 2)",568,1,True,False,False,False,False,False
569,0,"{'mean': -0.29999999999999999, 'sd': 0.37}",-0.30000000000000004,2,0.551375150680542,0,"(1, 3)",569,1,False,False,False,False,False,False
570,0,"{'mean': -0.29999999999999999, 'sd': 0.37}",-0.30000000000000004,2,0.5146479606628418,0,"(1, 3)",570,1,True,False,False,False,False,False
571,0,"{'mean': 0.29999999999999999, 'sd': 0.37}",0.5,1,0.37445712089538574,1,"(1, 3)",571,0,False,True,True,False,True,True
572,0,"{'mean': 0.29999999999999999, 'sd': 0.37}",0.7,0,0.4253978729248047,1,"(0, 2)",572,0,False,False,True,False,False,True
573,0,"{'mean': 0.29999999999999999, 'sd': 0.37}",0.30000000000000004,0,0.5300660133361816,1,"(0, 2)",573,0,True,False,True,False,False,True
574,0,"{'mean': 0.29999999999999999, 'sd': 0.37}",0.10000000000000009,0,0.4851970672607422,1,"(0, 3)",574,0,True,False,True,False,False,True
575,0,"{'mean': -0.29999999999999999, 'sd': 0.37}",-0.7000000000000001,2,0.6284441947937012,0,"(1, 2)",575,1,False,True,False,True,True,True
576,0,"{'mean': -0.29999999999999999, 'sd': 0.37}",-0.30000000000000004,3,0.5012569427490234,0,"(0, 3)",576,1,False,False,False,True,False,True
577,0,"{'mean': -0.29999999999999999, 'sd': 0.37}",-0.5,2,0.41372203826904297,0,"(1, 3)",577,1,False,False,False,False,False,False
578,0,"{'mean': 0.29999999999999999, 'sd': 0.37}",0.10000000000000009,3,0.3775639533996582,1,"(0, 3)",578,0,False,True,False,True,False,False
579,0,"{'mean': 0.29999999999999999, 'sd': 0.37}",-0.10000000000000009,2,0.5558819770812988,1,"(1, 2)",579,0,False,False,False,True,False,False
580,0,"{'mean': 0.29999999999999999, 'sd': 0.37}",0.30000000000000004,1,0.5937168598175049,1,"(1, 3)",580,0,False,False,True,False,True,True
581,0,"{'mean': 0.29999999999999999, 'sd': 0.37}",0.7,1,0.6543788909912109,1,"(1, 2)",581,0,True,False,True,False,False,True
582,0,"{'mean': -0.29999999999999999, 'sd': 0.37}",-0.30000000000000004,3,0.802915096282959,0,"(0, 2)",582,1,False,True,False,False,True,False
583,0,"{'mean': -0.29999999999999999, 'sd': 0.37}",-0.10000000000000009,0,1.1052110195159912,0,"(0, 3)",583,1,False,False,True,False,True,False
584,0,"{'mean': -0.29999999999999999, 'sd': 0.37}",0.30000000000000004,0,0.8543369770050049,0,"(0, 3)",584,1,True,False,True,False,False,False
585,0,"{'mean': -0.29999999999999999, 'sd': 0.37}",-0.7000000000000001,2,0.8509550094604492,0,"(1, 3)",585,1,False,False,False,False,True,False
586,0,"{'mean': 0.29999999999999999, 'sd': 0.37}",0.5,0,0.8761131763458252,1,"(1, 2)",586,0,False,True,False,False,False,False
587,0,"{'mean': 0.29999999999999999, 'sd': 0.37}",0.30000000000000004,1,0.5862782001495361,1,"(1, 2)",587,0,False,False,True,False,True,True
588,0,"{'mean': 0.29999999999999999, 'sd': 0.37}",0.5,0,0.9484519958496094,1,"(0, 3)",588,0,False,False,True,False,False,True
589,0,"{'mean': -0.29999999999999999, 'sd': 0.37}",-0.30000000000000004,3,0.6429550647735596,0,"(0, 2)",589,1,False,True,False,False,True,False
590,0,"{'mean': 0.29999999999999999, 'sd': 0.37}",0.8999999999999999,1,0.6364729404449463,1,"(1, 3)",590,0,False,True,True,False,True,True
591,0,"{'mean': 0.29999999999999999, 'sd': 0.37}",0.7,1,0.5827200412750244,1,"(1, 2)",591,0,True,False,True,False,False,True
592,0,"{'mean': -0.29999999999999999, 'sd': 0.37}",-0.5,3,0.7015299797058105,0,"(0, 2)",592,1,False,True,False,False,True,False
593,0,"{'mean': -0.29999999999999999, 'sd': 0.37}",-0.30000000000000004,3,0.5804471969604492,0,"(0, 2)",593,1,True,False,False,False,False,False
594,0,"{'mean': -0.29999999999999999, 'sd': 0.37}",0.30000000000000004,2,0.8369009494781494,0,"(1, 2)",594,1,False,False,False,True,False,True
595,0,"{'mean': -0.29999999999999999, 'sd': 0.37}",-0.10000000000000009,3,0.5126941204071045,0,"(0, 3)",595,1,False,False,False,True,False,True
596,0,"{'mean': -0.29999999999999999, 'sd': 0.37}",-0.7000000000000001,3,0.356611967086792,0,"(0, 3)",596,1,True,False,False,True,False,True
597,0,"{'mean': -0.29999999999999999, 'sd': 0.37}",-0.5,3,0.28134703636169434,0,"(1, 3)",597,1,True,False,False,True,False,True
598,0,"{'mean': -0.29999999999999999, 'sd': 0.37}",-0.5,2,0.8798179626464844,0,"(1, 3)",598,1,False,False,False,False,False,False
599,0,"{'mean': 0.29999999999999999, 'sd': 0.37}",0.8999999999999999,0,0.5464010238647461,1,"(0, 3)",599,0,False,True,True,False,True,True
600,0,"{'mean': 0.29999999999999999, 'sd': 0.37}",0.5,0,0.4180300235748291,1,"(0, 3)",600,0,True,False,True,False,False,True
601,0,"{'mean': 0.29999999999999999, 'sd': 0.37}",0.7,0,0.32300686836242676,1,"(0, 3)",601,0,True,False,True,False,False,True
602,0,"{'mean': 0.29999999999999999, 'sd': 0.37}",0.30000000000000004,0,0.3957650661468506,1,"(0, 2)",602,0,True,False,True,False,False,True
603,0,"{'mean': 0.29999999999999999, 'sd': 0.37}",0.30000000000000004,0,0.36665987968444824,1,"(0, 2)",603,0,True,False,True,False,False,True
604,0,"{'mean': 0.29999999999999999, 'sd': 0.37}",-0.10000000000000009,2,0.6142280101776123,1,"(1, 3)",604,0,False,False,False,False,True,False
605,0,"{'mean': 0.29999999999999999, 'sd': 0.37}",0.30000000000000004,2,0.47177886962890625,1,"(0, 3)",605,0,True,False,False,False,False,False
606,0,"{'mean': -0.29999999999999999, 'sd': 0.37}",-0.30000000000000004,3,0.434406042098999,0,"(0, 3)",606,1,False,True,False,True,False,True
607,0,"{'mean': -0.29999999999999999, 'sd': 0.37}",0.30000000000000004,1,0.5249459743499756,0,"(1, 2)",607,1,False,False,True,False,True,False
608,0,"{'mean': -0.29999999999999999, 'sd': 0.37}",-0.10000000000000009,2,0.5062530040740967,0,"(1, 2)",608,1,False,False,False,True,True,True
609,0,"{'mean': -0.29999999999999999, 'sd': 0.37}",-0.10000000000000009,2,0.4533579349517822,0,"(1, 2)",609,1,True,False,False,True,False,True
610,0,"{'mean': -0.29999999999999999, 'sd': 0.37}",-0.5,2,0.42401695251464844,0,"(1, 3)",610,1,True,False,False,False,False,False
611,0,"{'mean': 0.29999999999999999, 'sd': 0.37}",0.10000000000000009,2,0.542618989944458,1,"(1, 2)",611,0,True,True,False,True,False,False
612,0,"{'mean': 0.29999999999999999, 'sd': 0.37}",0.7,0,0.47008609771728516,1,"(0, 3)",612,0,False,False,True,False,True,True
613,0,"{'mean': 0.29999999999999999, 'sd': 0.37}",0.7,0,0.38581395149230957,1,"(0, 3)",613,0,True,False,True,False,False,True
614,0,"{'mean': -0.29999999999999999, 'sd': 0.37}",-1.0,3,0.6524980068206787,0,"(0, 3)",614,1,False,True,False,True,True,True
615,0,"{'mean': -0.29999999999999999, 'sd': 0.37}",-1.0,3,0.44571399688720703,0,"(0, 2)",615,1,True,False,False,False,False,False
616,0,"{'mean': -0.29999999999999999, 'sd': 0.37}",-0.30000000000000004,2,0.5619940757751465,0,"(1, 3)",616,1,False,False,False,False,False,False
617,0,"{'mean': -0.29999999999999999, 'sd': 0.37}",-0.30000000000000004,3,0.5741360187530518,0,"(0, 2)",617,1,False,False,False,False,False,False
618,0,"{'mean': -0.29999999999999999, 'sd': 0.37}",-0.5,2,0.5884718894958496,0,"(1, 2)",618,1,False,False,False,True,False,True
619,0,"{'mean': -0.29999999999999999, 'sd': 0.37}",-0.10000000000000009,3,0.43448615074157715,0,"(0, 2)",619,1,False,False,False,False,False,False
620,0,"{'mean': -0.29999999999999999, 'sd': 0.37}",-0.30000000000000004,2,0.4539649486541748,0,"(1, 2)",620,1,False,False,False,True,False,True
621,0,"{'mean': -0.29999999999999999, 'sd': 0.37}",0.10000000000000009,1,0.7073869705200195,0,"(1, 3)",621,1,False,False,True,False,True,False
622,0,"{'mean': -0.29999999999999999, 'sd': 0.37}",-0.9000000000000001,3,0.4724709987640381,0,"(0, 2)",622,1,False,False,False,False,True,False
623,0,"{'mean': -0.29999999999999999, 'sd': 0.37}",-0.10000000000000009,2,0.6174430847167969,0,"(1, 2)",623,1,False,False,False,True,False,True
624,0,"{'mean': -0.29999999999999999, 'sd': 0.37}",-0.7000000000000001,3,0.4563131332397461,0,"(0, 2)",624,1,False,False,False,False,False,False
625,0,"{'mean': -0.29999999999999999, 'sd': 0.37}",-0.7000000000000001,2,0.5433928966522217,0,"(1, 3)",625,1,False,False,False,False,False,False
626,0,"{'mean': -0.29999999999999999, 'sd': 0.37}",-0.10000000000000009,3,0.4393491744995117,0,"(0, 2)",626,1,False,False,False,False,False,False
627,0,"{'mean': -0.29999999999999999, 'sd': 0.37}",-0.5,3,0.45090198516845703,0,"(0, 3)",627,1,True,False,False,True,False,True
628,0,"{'mean': -0.29999999999999999, 'sd': 0.37}",-0.10000000000000009,2,0.400799036026001,0,"(1, 2)",628,1,False,False,False,True,False,True
629,0,"{'mean': -0.29999999999999999, 'sd': 0.37}",-0.7000000000000001,3,0.4620530605316162,0,"(0, 3)",629,1,False,False,False,True,False,True
630,0,"{'mean': -0.29999999999999999, 'sd': 0.37}",-0.7000000000000001,3,0.43251800537109375,0,"(0, 2)",630,1,True,False,False,False,False,False
631,0,"{'mean': -0.29999999999999999, 'sd': 0.37}",-0.10000000000000009,3,0.48285794258117676,0,"(0, 3)",631,1,True,False,False,True,False,True
632,0,"{'mean': -0.29999999999999999, 'sd': 0.37}",0.7,0,0.481173038482666,0,"(0, 2)",632,1,False,False,True,False,True,False
633,0,"{'mean': -0.29999999999999999, 'sd': 0.37}",-0.30000000000000004,1,0.4359428882598877,0,"(1, 3)",633,1,False,False,True,False,False,False
634,0,"{'mean': -0.29999999999999999, 'sd': 0.37}",-0.5,2,0.4908628463745117,0,"(1, 3)",634,1,False,False,False,False,True,False
635,0,"{'mean': -0.29999999999999999, 'sd': 0.37}",-0.5,2,0.46257686614990234,0,"(1, 2)",635,1,True,False,False,True,False,True
636,0,"{'mean': -0.29999999999999999, 'sd': 0.37}",0.10000000000000009,1,0.6019110679626465,0,"(1, 3)",636,1,False,False,True,False,True,False
637,0,"{'mean': -0.29999999999999999, 'sd': 0.37}",-0.5,2,0.4471559524536133,0,"(1, 2)",637,1,False,False,False,True,True,True
638,0,"{'mean': -0.29999999999999999, 'sd': 0.37}",0.10000000000000009,1,0.6483731269836426,0,"(1, 2)",638,1,False,False,True,False,True,False
639,0,"{'mean': 0.29999999999999999, 'sd': 0.37}",0.10000000000000009,2,0.5663511753082275,1,"(1, 2)",639,0,False,True,False,True,True,False
640,0,"{'mean': 0.29999999999999999, 'sd': 0.37}",0.10000000000000009,1,0.7341558933258057,1,"(1, 3)",640,0,False,False,True,False,True,True
641,0,"{'mean': -0.29999999999999999, 'sd': 0.37}",-0.5,3,0.5806901454925537,0,"(0, 2)",641,1,False,True,False,False,True,False
642,0,"{'mean': -0.29999999999999999, 'sd': 0.37}",0.10000000000000009,3,0.6707930564880371,0,"(0, 3)",642,1,True,False,False,True,False,True
643,0,"{'mean': 0.29999999999999999, 'sd': 0.37}",0.5,1,0.5802409648895264,1,"(1, 2)",643,0,False,True,True,False,True,True
644,0,"{'mean': 0.29999999999999999, 'sd': 0.37}",-0.30000000000000004,2,0.5497159957885742,1,"(1, 2)",644,0,False,False,False,True,True,False
645,0,"{'mean': 0.29999999999999999, 'sd': 0.37}",0.5,0,0.5592100620269775,1,"(0, 2)",645,0,False,False,True,False,True,True
646,0,"{'mean': 0.29999999999999999, 'sd': 0.37}",0.30000000000000004,0,0.46651697158813477,1,"(0, 2)",646,0,True,False,True,False,False,True
647,0,"{'mean': 0.29999999999999999, 'sd': 0.37}",0.30000000000000004,0,0.44010305404663086,1,"(0, 2)",647,0,True,False,True,False,False,True
648,0,"{'mean': -0.29999999999999999, 'sd': 0.37}",-0.30000000000000004,2,0.42519497871398926,0,"(1, 3)",648,1,False,True,False,False,True,False
649,0,"{'mean': -0.29999999999999999, 'sd': 0.37}",-0.5,3,0.5736169815063477,0,"(0, 3)",649,1,False,False,False,True,False,True
650,0,"{'mean': -0.29999999999999999, 'sd': 0.37}",-1.0,3,0.5410361289978027,0,"(0, 3)",650,1,True,False,False,True,False,True
651,0,"{'mean': -0.29999999999999999, 'sd': 0.37}",-0.30000000000000004,1,0.5830409526824951,0,"(1, 2)",651,1,False,False,True,False,True,False
652,0,"{'mean': -0.29999999999999999, 'sd': 0.37}",-0.10000000000000009,3,0.606787919998169,0,"(0, 2)",652,1,False,False,False,False,True,False
653,0,"{'mean': -0.29999999999999999, 'sd': 0.37}",-0.30000000000000004,3,0.711345911026001,0,"(0, 3)",653,1,True,False,False,True,False,True
654,0,"{'mean': -0.29999999999999999, 'sd': 0.37}",0.10000000000000009,2,0.6104700565338135,0,"(1, 3)",654,1,False,False,False,False,False,False
655,0,"{'mean': -0.29999999999999999, 'sd': 0.37}",-0.10000000000000009,2,0.5076808929443359,0,"(1, 2)",655,1,True,False,False,True,False,True
656,0,"{'mean': -0.29999999999999999, 'sd': 0.37}",0.10000000000000009,3,0.562978982925415,0,"(0, 2)",656,1,False,False,False,False,False,False
657,0,"{'mean': -0.29999999999999999, 'sd': 0.37}",-0.30000000000000004,3,0.5166029930114746,0,"(0, 2)",657,1,True,False,False,False,False,False
658,0,"{'mean': -0.29999999999999999, 'sd': 0.37}",-0.10000000000000009,2,0.6542749404907227,0,"(1, 2)",658,1,False,False,False,True,False,True
659,0,"{'mean': -0.29999999999999999, 'sd': 0.37}",0.10000000000000009,2,0.6551580429077148,0,"(1, 2)",659,1,True,False,False,True,False,True
660,0,"{'mean': -0.29999999999999999, 'sd': 0.37}",-0.10000000000000009,3,0.5669260025024414,0,"(0, 3)",660,1,False,False,False,True,False,True
661,0,"{'mean': -0.29999999999999999, 'sd': 0.37}",-0.7000000000000001,2,0.6611790657043457,0,"(1, 3)",661,1,False,False,False,False,False,False
662,0,"{'mean': -0.29999999999999999, 'sd': 0.37}",-0.10000000000000009,3,1.3440918922424316,0,"(0, 2)",662,1,False,False,False,False,False,False
663,0,"{'mean': -0.29999999999999999, 'sd': 0.37}",-0.10000000000000009,0,0.5220699310302734,0,"(0, 2)",663,1,False,False,True,False,True,False
664,0,"{'mean': -0.29999999999999999, 'sd': 0.37}",-0.9000000000000001,3,0.5392749309539795,0,"(0, 3)",664,1,False,False,False,True,True,True
665,0,"{'mean': -0.29999999999999999, 'sd': 0.37}",-0.7000000000000001,2,0.35462403297424316,0,"(1, 2)",665,1,False,False,False,True,False,True
666,0,"{'mean': -0.29999999999999999, 'sd': 0.37}",-1.0,2,0.5660130977630615,0,"(1, 3)",666,1,True,False,False,False,False,False
667,0,"{'mean': 0.29999999999999999, 'sd': 0.37}",1.0,0,0.4838080406188965,1,"(0, 3)",667,0,False,True,True,False,True,True
668,0,"{'mean': 0.29999999999999999, 'sd': 0.37}",0.5,0,0.468533992767334,1,"(0, 2)",668,0,True,False,True,False,False,True
