trial_count,FBDuration,c_dis,context,response,rt,state,stim,trial_count,ts,rep_resp,switch,con_shape,con_orient,subj_switch,correct
1,0,"{'mean': 0.29999999999999999, 'sd': 0.37}",0.7,3,0.9221889972686768,1,"(1, 3)",1,1,False,False,False,True,True,True
2,0,"{'mean': 0.29999999999999999, 'sd': 0.37}",0.5,2,0.9291009902954102,1,"(0, 3)",2,1,False,False,False,False,False,False
3,0,"{'mean': 0.29999999999999999, 'sd': 0.37}",0.5,2,0.4190220832824707,1,"(1, 2)",3,1,True,False,False,True,False,True
4,0,"{'mean': 0.29999999999999999, 'sd': 0.37}",0.7,3,0.5424718856811523,1,"(0, 3)",4,1,False,False,False,True,False,True
5,0,"{'mean': 0.29999999999999999, 'sd': 0.37}",0.7,3,0.7419872283935547,1,"(0, 3)",5,1,True,False,False,True,False,True
6,0,"{'mean': 0.29999999999999999, 'sd': 0.37}",0.5,2,0.5668740272521973,1,"(0, 2)",6,1,False,False,False,True,False,True
7,0,"{'mean': 0.29999999999999999, 'sd': 0.37}",-0.10000000000000009,1,0.89717698097229,1,"(0, 2)",7,1,False,False,False,False,False,False
8,0,"{'mean': 0.29999999999999999, 'sd': 0.37}",0.10000000000000009,3,1.2522921562194824,1,"(1, 3)",8,1,False,False,False,True,False,True
9,0,"{'mean': 0.29999999999999999, 'sd': 0.37}",0.10000000000000009,3,0.9979491233825684,1,"(0, 3)",9,1,True,False,False,True,False,True
10,0,"{'mean': 0.29999999999999999, 'sd': 0.37}",0.5,2,0.4641759395599365,1,"(1, 2)",10,1,False,False,False,True,False,True
11,0,"{'mean': 0.29999999999999999, 'sd': 0.37}",-0.10000000000000009,0,1.305819034576416,1,"(1, 3)",11,1,False,False,False,False,False,False
12,0,"{'mean': -0.29999999999999999, 'sd': 0.37}",-0.5,1,0.951530933380127,0,"(1, 2)",12,0,False,True,True,False,True,True
13,0,"{'mean': -0.29999999999999999, 'sd': 0.37}",-0.9000000000000001,0,0.9121150970458984,0,"(0, 2)",13,0,False,False,True,False,False,True
14,0,"{'mean': -0.29999999999999999, 'sd': 0.37}",0.30000000000000004,3,0.8814020156860352,0,"(1, 3)",14,0,False,False,False,True,True,False
15,0,"{'mean': -0.29999999999999999, 'sd': 0.37}",-1.0,3,1.324265956878662,0,"(1, 3)",15,0,True,False,False,True,False,False
16,0,"{'mean': -0.29999999999999999, 'sd': 0.37}",-0.10000000000000009,1,1.2830660343170166,0,"(1, 3)",16,0,False,False,True,False,True,True
17,0,"{'mean': -0.29999999999999999, 'sd': 0.37}",-0.5,0,0.7292771339416504,0,"(0, 2)",17,0,False,False,True,False,False,True
18,0,"{'mean': -0.29999999999999999, 'sd': 0.37}",-0.5,1,0.6035919189453125,0,"(1, 2)",18,0,False,False,True,False,False,True
19,0,"{'mean': -0.29999999999999999, 'sd': 0.37}",-0.30000000000000004,0,0.8377618789672852,0,"(0, 2)",19,0,False,False,True,False,False,True
20,0,"{'mean': -0.29999999999999999, 'sd': 0.37}",-0.30000000000000004,0,0.5227110385894775,0,"(0, 2)",20,0,True,False,True,False,False,True
21,0,"{'mean': -0.29999999999999999, 'sd': 0.37}",-0.5,1,0.5750129222869873,0,"(1, 2)",21,0,False,False,True,False,False,True
22,0,"{'mean': -0.29999999999999999, 'sd': 0.37}",-0.5,0,1.4499340057373047,0,"(1, 3)",22,0,False,False,False,False,True,False
23,0,"{'mean': -0.29999999999999999, 'sd': 0.37}",-0.10000000000000009,1,1.3071660995483398,0,"(1, 3)",23,0,False,False,True,False,True,True
24,0,"{'mean': -0.29999999999999999, 'sd': 0.37}",0.10000000000000009,2,0.8840179443359375,0,"(1, 2)",24,0,False,False,False,True,True,False
25,0,"{'mean': -0.29999999999999999, 'sd': 0.37}",0.10000000000000009,3,0.7516601085662842,0,"(1, 3)",25,0,False,False,False,True,False,False
26,0,"{'mean': -0.29999999999999999, 'sd': 0.37}",-0.30000000000000004,0,1.1170120239257812,0,"(0, 3)",26,0,False,False,True,False,True,True
27,0,"{'mean': -0.29999999999999999, 'sd': 0.37}",-0.7000000000000001,1,0.636267900466919,0,"(1, 3)",27,0,False,False,True,False,False,True
28,0,"{'mean': -0.29999999999999999, 'sd': 0.37}",-0.10000000000000009,2,0.87477707862854,0,"(1, 2)",28,0,False,False,False,True,True,False
29,0,"{'mean': 0.29999999999999999, 'sd': 0.37}",0.5,2,0.6779439449310303,1,"(0, 2)",29,1,True,True,False,True,False,True
30,0,"{'mean': 0.29999999999999999, 'sd': 0.37}",0.30000000000000004,3,1.2030079364776611,1,"(1, 3)",30,1,False,False,False,True,False,True
31,0,"{'mean': 0.29999999999999999, 'sd': 0.37}",0.10000000000000009,2,1.0506460666656494,1,"(1, 2)",31,1,False,False,False,True,False,True
32,0,"{'mean': 0.29999999999999999, 'sd': 0.37}",0.8999999999999999,2,0.5407788753509521,1,"(1, 2)",32,1,True,False,False,True,False,True
33,0,"{'mean': 0.29999999999999999, 'sd': 0.37}",0.7,2,0.6267759799957275,1,"(0, 2)",33,1,True,False,False,True,False,True
35,0,"{'mean': 0.29999999999999999, 'sd': 0.37}",0.10000000000000009,3,0.7999951839447021,1,"(1, 3)",35,1,False,False,False,True,False,True
36,0,"{'mean': 0.29999999999999999, 'sd': 0.37}",-0.10000000000000009,0,0.9049420356750488,1,"(0, 3)",36,1,False,False,True,False,True,False
37,0,"{'mean': 0.29999999999999999, 'sd': 0.37}",0.30000000000000004,2,0.7419052124023438,1,"(0, 2)",37,1,False,False,False,True,True,True
38,0,"{'mean': 0.29999999999999999, 'sd': 0.37}",1.0,2,0.5179080963134766,1,"(1, 2)",38,1,True,False,False,True,False,True
39,0,"{'mean': 0.29999999999999999, 'sd': 0.37}",0.5,3,0.6222391128540039,1,"(1, 3)",39,1,False,False,False,True,False,True
40,0,"{'mean': 0.29999999999999999, 'sd': 0.37}",0.5,3,0.8134109973907471,1,"(0, 3)",40,1,True,False,False,True,False,True
41,0,"{'mean': 0.29999999999999999, 'sd': 0.37}",-0.5,1,1.1787030696868896,1,"(1, 2)",41,1,False,False,True,False,True,False
42,0,"{'mean': 0.29999999999999999, 'sd': 0.37}",0.10000000000000009,3,1.2364609241485596,1,"(1, 3)",42,1,False,False,False,True,True,True
43,0,"{'mean': -0.29999999999999999, 'sd': 0.37}",0.10000000000000009,2,0.5476398468017578,0,"(1, 2)",43,0,False,True,False,True,False,False
44,0,"{'mean': -0.29999999999999999, 'sd': 0.37}",-0.7000000000000001,1,1.0475029945373535,0,"(1, 3)",44,0,False,False,True,False,True,True
45,0,"{'mean': -0.29999999999999999, 'sd': 0.37}",-0.5,0,0.47110795974731445,0,"(0, 3)",45,0,False,False,True,False,False,True
46,0,"{'mean': -0.29999999999999999, 'sd': 0.37}",-0.7000000000000001,1,0.7822380065917969,0,"(1, 3)",46,0,False,False,True,False,False,True
47,0,"{'mean': 0.29999999999999999, 'sd': 0.37}",-0.10000000000000009,0,0.7286479473114014,1,"(0, 3)",47,1,False,True,True,False,False,False
48,0,"{'mean': 0.29999999999999999, 'sd': 0.37}",0.8999999999999999,2,1.0310211181640625,1,"(1, 2)",48,1,False,False,False,True,True,True
49,0,"{'mean': 0.29999999999999999, 'sd': 0.37}",0.8999999999999999,2,0.42139387130737305,1,"(1, 2)",49,1,True,False,False,True,False,True
50,0,"{'mean': 0.29999999999999999, 'sd': 0.37}",1.0,3,0.9180409908294678,1,"(1, 3)",50,1,False,False,False,True,False,True
51,0,"{'mean': 0.29999999999999999, 'sd': 0.37}",0.7,3,1.2041969299316406,1,"(1, 3)",51,1,True,False,False,True,False,True
52,0,"{'mean': 0.29999999999999999, 'sd': 0.37}",0.10000000000000009,3,0.7805421352386475,1,"(0, 3)",52,1,True,False,False,True,False,True
53,0,"{'mean': 0.29999999999999999, 'sd': 0.37}",0.5,3,0.5298478603363037,1,"(1, 3)",53,1,True,False,False,True,False,True
54,0,"{'mean': 0.29999999999999999, 'sd': 0.37}",0.10000000000000009,3,0.4961848258972168,1,"(0, 3)",54,1,True,False,False,True,False,True
55,0,"{'mean': 0.29999999999999999, 'sd': 0.37}",0.10000000000000009,2,0.5702948570251465,1,"(0, 2)",55,1,False,False,False,True,False,True
56,0,"{'mean': 0.29999999999999999, 'sd': 0.37}",0.5,2,0.5408320426940918,1,"(1, 2)",56,1,True,False,False,True,False,True
57,0,"{'mean': 0.29999999999999999, 'sd': 0.37}",0.30000000000000004,2,0.44901204109191895,1,"(1, 2)",57,1,True,False,False,True,False,True
58,0,"{'mean': 0.29999999999999999, 'sd': 0.37}",0.30000000000000004,2,0.40921902656555176,1,"(1, 2)",58,1,True,False,False,True,False,True
59,0,"{'mean': 0.29999999999999999, 'sd': 0.37}",0.5,2,0.38970088958740234,1,"(1, 2)",59,1,True,False,False,True,False,True
60,0,"{'mean': 0.29999999999999999, 'sd': 0.37}",-0.30000000000000004,0,0.9184081554412842,1,"(0, 3)",60,1,False,False,True,False,True,False
61,0,"{'mean': 0.29999999999999999, 'sd': 0.37}",0.30000000000000004,0,1.2650468349456787,1,"(0, 3)",61,1,True,False,True,False,False,False
62,0,"{'mean': 0.29999999999999999, 'sd': 0.37}",0.30000000000000004,2,0.8940179347991943,1,"(1, 2)",62,1,False,False,False,True,True,True
63,0,"{'mean': 0.29999999999999999, 'sd': 0.37}",0.5,2,0.5288479328155518,1,"(1, 2)",63,1,True,False,False,True,False,True
64,0,"{'mean': 0.29999999999999999, 'sd': 0.37}",0.30000000000000004,2,0.7210979461669922,1,"(0, 2)",64,1,True,False,False,True,False,True
65,0,"{'mean': 0.29999999999999999, 'sd': 0.37}",0.5,3,0.6337580680847168,1,"(0, 3)",65,1,False,False,False,True,False,True
66,0,"{'mean': 0.29999999999999999, 'sd': 0.37}",0.5,3,0.42053699493408203,1,"(1, 3)",66,1,True,False,False,True,False,True
67,0,"{'mean': 0.29999999999999999, 'sd': 0.37}",0.5,3,0.6330430507659912,1,"(1, 3)",67,1,True,False,False,True,False,True
68,0,"{'mean': 0.29999999999999999, 'sd': 0.37}",0.7,3,0.42126893997192383,1,"(1, 3)",68,1,True,False,False,True,False,True
69,0,"{'mean': 0.29999999999999999, 'sd': 0.37}",0.10000000000000009,2,0.5808000564575195,1,"(1, 2)",69,1,False,False,False,True,False,True
71,0,"{'mean': 0.29999999999999999, 'sd': 0.37}",-0.5,1,0.7090311050415039,1,"(1, 2)",71,1,False,False,True,False,True,False
72,0,"{'mean': -0.29999999999999999, 'sd': 0.37}",-0.5,1,0.6092162132263184,0,"(1, 3)",72,0,True,True,True,False,False,True
73,0,"{'mean': -0.29999999999999999, 'sd': 0.37}",-0.7000000000000001,0,0.52152419090271,0,"(0, 3)",73,0,False,False,True,False,False,True
74,0,"{'mean': -0.29999999999999999, 'sd': 0.37}",-0.10000000000000009,1,0.6023881435394287,0,"(1, 3)",74,0,False,False,True,False,False,True
75,0,"{'mean': -0.29999999999999999, 'sd': 0.37}",0.10000000000000009,1,0.460582971572876,0,"(1, 3)",75,0,True,False,True,False,False,True
76,0,"{'mean': -0.29999999999999999, 'sd': 0.37}",0.30000000000000004,2,0.5589301586151123,0,"(0, 2)",76,0,False,False,False,True,True,False
77,0,"{'mean': -0.29999999999999999, 'sd': 0.37}",-0.7000000000000001,0,0.8068490028381348,0,"(0, 2)",77,0,False,False,True,False,True,True
78,0,"{'mean': -0.29999999999999999, 'sd': 0.37}",-0.30000000000000004,0,0.77907395362854,0,"(0, 2)",78,0,True,False,True,False,False,True
79,0,"{'mean': -0.29999999999999999, 'sd': 0.37}",-0.7000000000000001,0,0.500891923904419,0,"(0, 3)",79,0,True,False,True,False,False,True
80,0,"{'mean': -0.29999999999999999, 'sd': 0.37}",-0.10000000000000009,1,0.5574619770050049,0,"(1, 3)",80,0,False,False,True,False,False,True
81,0,"{'mean': -0.29999999999999999, 'sd': 0.37}",-0.9000000000000001,0,0.4925680160522461,0,"(0, 2)",81,0,False,False,True,False,False,True
82,0,"{'mean': -0.29999999999999999, 'sd': 0.37}",0.10000000000000009,1,0.5335400104522705,0,"(1, 2)",82,0,False,False,True,False,False,True
83,0,"{'mean': -0.29999999999999999, 'sd': 0.37}",-0.10000000000000009,1,0.6373789310455322,0,"(1, 2)",83,0,True,False,True,False,False,True
84,0,"{'mean': -0.29999999999999999, 'sd': 0.37}",-0.30000000000000004,1,0.5354630947113037,0,"(1, 3)",84,0,True,False,True,False,False,True
85,0,"{'mean': -0.29999999999999999, 'sd': 0.37}",-0.5,1,0.4318208694458008,0,"(1, 3)",85,0,True,False,True,False,False,True
86,0,"{'mean': -0.29999999999999999, 'sd': 0.37}",-0.5,1,0.4012720584869385,0,"(1, 2)",86,0,True,False,True,False,False,True
87,0,"{'mean': -0.29999999999999999, 'sd': 0.37}",-0.5,0,0.8199501037597656,0,"(0, 3)",87,0,False,False,True,False,False,True
88,0,"{'mean': -0.29999999999999999, 'sd': 0.37}",-0.5,0,0.4228248596191406,0,"(0, 3)",88,0,True,False,True,False,False,True
89,0,"{'mean': -0.29999999999999999, 'sd': 0.37}",-0.10000000000000009,1,0.921746015548706,0,"(1, 2)",89,0,False,False,True,False,False,True
90,0,"{'mean': -0.29999999999999999, 'sd': 0.37}",0.30000000000000004,3,0.7290248870849609,0,"(1, 3)",90,0,False,False,False,True,True,False
91,0,"{'mean': 0.29999999999999999, 'sd': 0.37}",0.7,3,0.7946169376373291,1,"(0, 3)",91,1,True,True,False,True,False,True
92,0,"{'mean': 0.29999999999999999, 'sd': 0.37}",0.10000000000000009,3,0.7254040241241455,1,"(1, 3)",92,1,True,False,False,True,False,True
93,0,"{'mean': 0.29999999999999999, 'sd': 0.37}",-0.10000000000000009,2,0.5736150741577148,1,"(0, 2)",93,1,False,False,False,True,False,True
94,0,"{'mean': 0.29999999999999999, 'sd': 0.37}",0.8999999999999999,3,0.5662519931793213,1,"(1, 3)",94,1,False,False,False,True,False,True
95,0,"{'mean': 0.29999999999999999, 'sd': 0.37}",0.7,3,0.7820658683776855,1,"(0, 3)",95,1,True,False,False,True,False,True
96,0,"{'mean': 0.29999999999999999, 'sd': 0.37}",0.10000000000000009,2,0.6377599239349365,1,"(0, 2)",96,1,False,False,False,True,False,True
97,0,"{'mean': 0.29999999999999999, 'sd': 0.37}",1.0,3,0.6367580890655518,1,"(1, 3)",97,1,False,False,False,True,False,True
98,0,"{'mean': 0.29999999999999999, 'sd': 0.37}",-0.5,1,1.0237700939178467,1,"(1, 2)",98,1,False,False,True,False,True,False
99,0,"{'mean': 0.29999999999999999, 'sd': 0.37}",0.30000000000000004,3,0.8036799430847168,1,"(1, 3)",99,1,False,False,False,True,True,True
100,0,"{'mean': 0.29999999999999999, 'sd': 0.37}",0.7,2,1.0223109722137451,1,"(1, 2)",100,1,False,False,False,True,False,True
102,0,"{'mean': 0.29999999999999999, 'sd': 0.37}",0.7,3,0.7402729988098145,1,"(0, 3)",102,1,False,False,False,True,False,True
103,0,"{'mean': 0.29999999999999999, 'sd': 0.37}",-0.10000000000000009,1,1.067559003829956,1,"(1, 3)",103,1,False,False,True,False,True,False
104,0,"{'mean': 0.29999999999999999, 'sd': 0.37}",0.5,3,0.7454521656036377,1,"(1, 3)",104,1,False,False,False,True,True,True
105,0,"{'mean': 0.29999999999999999, 'sd': 0.37}",0.10000000000000009,2,0.6847519874572754,1,"(1, 2)",105,1,False,False,False,True,False,True
106,0,"{'mean': 0.29999999999999999, 'sd': 0.37}",0.7,3,1.0984292030334473,1,"(0, 3)",106,1,False,False,False,True,False,True
107,0,"{'mean': 0.29999999999999999, 'sd': 0.37}",0.10000000000000009,2,0.6157770156860352,1,"(1, 2)",107,1,False,False,False,True,False,True
108,0,"{'mean': 0.29999999999999999, 'sd': 0.37}",0.5,3,0.5284550189971924,1,"(0, 3)",108,1,False,False,False,True,False,True
109,0,"{'mean': 0.29999999999999999, 'sd': 0.37}",0.30000000000000004,2,0.5604469776153564,1,"(1, 2)",109,1,False,False,False,True,False,True
110,0,"{'mean': 0.29999999999999999, 'sd': 0.37}",-0.30000000000000004,0,0.9626240730285645,1,"(0, 3)",110,1,False,False,True,False,True,False
111,0,"{'mean': 0.29999999999999999, 'sd': 0.37}",-0.10000000000000009,0,0.9475200176239014,1,"(0, 2)",111,1,True,False,True,False,False,False
112,0,"{'mean': 0.29999999999999999, 'sd': 0.37}",-0.30000000000000004,1,0.7700321674346924,1,"(1, 3)",112,1,False,False,True,False,False,False
113,0,"{'mean': 0.29999999999999999, 'sd': 0.37}",0.5,3,0.9892148971557617,1,"(1, 2)",113,1,False,False,False,False,True,False
114,0,"{'mean': 0.29999999999999999, 'sd': 0.37}",0.5,2,0.6745898723602295,1,"(0, 2)",114,1,False,False,False,True,False,True
115,0,"{'mean': 0.29999999999999999, 'sd': 0.37}",0.7,3,0.6467771530151367,1,"(0, 3)",115,1,False,False,False,True,False,True
116,0,"{'mean': 0.29999999999999999, 'sd': 0.37}",0.5,3,1.0867459774017334,1,"(0, 3)",116,1,True,False,False,True,False,True
117,0,"{'mean': 0.29999999999999999, 'sd': 0.37}",0.10000000000000009,3,0.6079490184783936,1,"(0, 3)",117,1,True,False,False,True,False,True
118,0,"{'mean': -0.29999999999999999, 'sd': 0.37}",-0.7000000000000001,1,0.7298598289489746,0,"(1, 3)",118,0,False,True,True,False,True,True
119,0,"{'mean': -0.29999999999999999, 'sd': 0.37}",0.10000000000000009,1,0.7284150123596191,0,"(1, 3)",119,0,True,False,True,False,False,True
120,0,"{'mean': -0.29999999999999999, 'sd': 0.37}",-0.30000000000000004,0,0.5171949863433838,0,"(0, 2)",120,0,False,False,True,False,False,True
121,0,"{'mean': -0.29999999999999999, 'sd': 0.37}",-0.7000000000000001,0,0.5620729923248291,0,"(0, 2)",121,0,True,False,True,False,False,True
122,0,"{'mean': -0.29999999999999999, 'sd': 0.37}",-0.30000000000000004,0,0.573387861251831,0,"(0, 3)",122,0,True,False,True,False,False,True
123,0,"{'mean': -0.29999999999999999, 'sd': 0.37}",-0.30000000000000004,0,0.36988401412963867,0,"(0, 3)",123,0,True,False,True,False,False,True
124,0,"{'mean': -0.29999999999999999, 'sd': 0.37}",-1.0,1,0.654426097869873,0,"(1, 2)",124,0,False,False,True,False,False,True
125,0,"{'mean': -0.29999999999999999, 'sd': 0.37}",0.10000000000000009,3,1.3645801544189453,0,"(0, 2)",125,0,False,False,False,False,True,False
126,0,"{'mean': -0.29999999999999999, 'sd': 0.37}",-0.30000000000000004,0,1.1493210792541504,0,"(0, 2)",126,0,False,False,True,False,True,True
127,0,"{'mean': -0.29999999999999999, 'sd': 0.37}",-0.30000000000000004,0,0.39185595512390137,0,"(0, 2)",127,0,True,False,True,False,False,True
128,0,"{'mean': -0.29999999999999999, 'sd': 0.37}",-0.30000000000000004,0,0.5399651527404785,0,"(0, 3)",128,0,True,False,True,False,False,True
129,0,"{'mean': -0.29999999999999999, 'sd': 0.37}",-0.7000000000000001,0,0.9016900062561035,0,"(0, 2)",129,0,True,False,True,False,False,True
130,0,"{'mean': -0.29999999999999999, 'sd': 0.37}",-0.5,0,1.129958152770996,0,"(0, 3)",130,0,True,False,True,False,False,True
131,0,"{'mean': -0.29999999999999999, 'sd': 0.37}",-0.10000000000000009,1,0.6831328868865967,0,"(1, 2)",131,0,False,False,True,False,False,True
132,0,"{'mean': -0.29999999999999999, 'sd': 0.37}",-0.30000000000000004,0,0.5138709545135498,0,"(0, 3)",132,0,False,False,True,False,False,True
133,0,"{'mean': -0.29999999999999999, 'sd': 0.37}",-0.7000000000000001,1,0.6887001991271973,0,"(1, 2)",133,0,False,False,True,False,False,True
134,0,"{'mean': -0.29999999999999999, 'sd': 0.37}",0.10000000000000009,2,0.8930990695953369,0,"(1, 2)",134,0,False,False,False,True,True,False
135,0,"{'mean': -0.29999999999999999, 'sd': 0.37}",-0.9000000000000001,1,0.7409369945526123,0,"(1, 2)",135,0,False,False,True,False,True,True
136,0,"{'mean': -0.29999999999999999, 'sd': 0.37}",-0.10000000000000009,1,0.7205870151519775,0,"(1, 2)",136,0,True,False,True,False,False,True
137,0,"{'mean': -0.29999999999999999, 'sd': 0.37}",-0.5,0,0.5186660289764404,0,"(0, 3)",137,0,False,False,True,False,False,True
138,0,"{'mean': -0.29999999999999999, 'sd': 0.37}",-0.7000000000000001,1,0.8093011379241943,0,"(1, 3)",138,0,False,False,True,False,False,True
139,0,"{'mean': -0.29999999999999999, 'sd': 0.37}",-0.5,0,0.34273409843444824,0,"(0, 2)",139,0,False,False,True,False,False,True
140,0,"{'mean': -0.29999999999999999, 'sd': 0.37}",-0.5,1,0.5840549468994141,0,"(1, 2)",140,0,False,False,True,False,False,True
141,0,"{'mean': -0.29999999999999999, 'sd': 0.37}",-0.5,1,0.5337619781494141,0,"(1, 3)",141,0,True,False,True,False,False,True
142,0,"{'mean': -0.29999999999999999, 'sd': 0.37}",-0.30000000000000004,1,0.4268050193786621,0,"(1, 3)",142,0,True,False,True,False,False,True
143,0,"{'mean': -0.29999999999999999, 'sd': 0.37}",-0.10000000000000009,2,0.8022060394287109,0,"(0, 2)",143,0,False,False,False,True,True,False
144,0,"{'mean': -0.29999999999999999, 'sd': 0.37}",-0.30000000000000004,0,0.7087690830230713,0,"(0, 3)",144,0,False,False,True,False,True,True
145,0,"{'mean': 0.29999999999999999, 'sd': 0.37}",0.5,2,0.5955362319946289,1,"(0, 2)",145,1,False,True,False,True,True,True
146,0,"{'mean': 0.29999999999999999, 'sd': 0.37}",0.10000000000000009,2,0.5458109378814697,1,"(0, 2)",146,1,True,False,False,True,False,True
147,0,"{'mean': 0.29999999999999999, 'sd': 0.37}",-0.10000000000000009,3,0.7220420837402344,1,"(1, 3)",147,1,False,False,False,True,False,True
148,0,"{'mean': 0.29999999999999999, 'sd': 0.37}",0.30000000000000004,3,1.0102810859680176,1,"(1, 3)",148,1,True,False,False,True,False,True
149,0,"{'mean': 0.29999999999999999, 'sd': 0.37}",1.0,2,0.5386559963226318,1,"(0, 3)",149,1,False,False,False,False,False,False
150,0,"{'mean': 0.29999999999999999, 'sd': 0.37}",0.30000000000000004,3,0.47240710258483887,1,"(1, 3)",150,1,False,False,False,True,False,True
151,0,"{'mean': 0.29999999999999999, 'sd': 0.37}",0.5,2,0.6259908676147461,1,"(1, 2)",151,1,False,False,False,True,False,True
152,0,"{'mean': 0.29999999999999999, 'sd': 0.37}",0.30000000000000004,2,0.5543420314788818,1,"(0, 2)",152,1,True,False,False,True,False,True
153,0,"{'mean': 0.29999999999999999, 'sd': 0.37}",0.10000000000000009,2,0.48856210708618164,1,"(0, 2)",153,1,True,False,False,True,False,True
154,0,"{'mean': 0.29999999999999999, 'sd': 0.37}",-0.30000000000000004,1,1.0319910049438477,1,"(1, 3)",154,1,False,False,True,False,True,False
155,0,"{'mean': 0.29999999999999999, 'sd': 0.37}",0.7,3,0.7524700164794922,1,"(0, 3)",155,1,False,False,False,True,True,True
156,0,"{'mean': 0.29999999999999999, 'sd': 0.37}",0.5,3,0.7875480651855469,1,"(0, 3)",156,1,True,False,False,True,False,True
157,0,"{'mean': 0.29999999999999999, 'sd': 0.37}",0.30000000000000004,3,0.556394100189209,1,"(1, 3)",157,1,True,False,False,True,False,True
158,0,"{'mean': 0.29999999999999999, 'sd': 0.37}",0.10000000000000009,3,0.8983139991760254,1,"(1, 3)",158,1,True,False,False,True,False,True
159,0,"{'mean': 0.29999999999999999, 'sd': 0.37}",-0.10000000000000009,3,1.0087039470672607,1,"(1, 3)",159,1,True,False,False,True,False,True
160,0,"{'mean': 0.29999999999999999, 'sd': 0.37}",0.5,2,1.205113172531128,1,"(0, 3)",160,1,False,False,False,False,False,False
161,0,"{'mean': 0.29999999999999999, 'sd': 0.37}",0.10000000000000009,3,0.8095588684082031,1,"(1, 3)",161,1,False,False,False,True,False,True
162,0,"{'mean': 0.29999999999999999, 'sd': 0.37}",0.7,3,0.6158158779144287,1,"(0, 3)",162,1,True,False,False,True,False,True
163,0,"{'mean': 0.29999999999999999, 'sd': 0.37}",1.0,2,0.4643208980560303,1,"(0, 2)",163,1,False,False,False,True,False,True
164,0,"{'mean': 0.29999999999999999, 'sd': 0.37}",0.5,3,0.9964861869812012,1,"(0, 3)",164,1,False,False,False,True,False,True
165,0,"{'mean': -0.29999999999999999, 'sd': 0.37}",-0.10000000000000009,0,1.2831618785858154,0,"(1, 2)",165,0,False,True,False,False,False,False
166,0,"{'mean': -0.29999999999999999, 'sd': 0.37}",-0.10000000000000009,1,0.6551990509033203,0,"(1, 2)",166,0,False,False,True,False,True,True
167,0,"{'mean': -0.29999999999999999, 'sd': 0.37}",0.10000000000000009,2,0.9030249118804932,0,"(0, 2)",167,0,False,False,False,True,True,False
168,0,"{'mean': -0.29999999999999999, 'sd': 0.37}",-0.7000000000000001,1,0.5687530040740967,0,"(1, 2)",168,0,False,False,True,False,True,True
169,0,"{'mean': -0.29999999999999999, 'sd': 0.37}",0.10000000000000009,2,0.9656538963317871,0,"(0, 2)",169,0,False,False,False,True,True,False
170,0,"{'mean': -0.29999999999999999, 'sd': 0.37}",0.10000000000000009,3,0.903419017791748,0,"(1, 3)",170,0,False,False,False,True,False,False
171,0,"{'mean': -0.29999999999999999, 'sd': 0.37}",-0.5,1,0.9926841259002686,0,"(1, 3)",171,0,False,False,True,False,True,True
172,0,"{'mean': -0.29999999999999999, 'sd': 0.37}",0.30000000000000004,1,0.6162400245666504,0,"(1, 3)",172,0,True,False,True,False,False,True
173,0,"{'mean': -0.29999999999999999, 'sd': 0.37}",-0.10000000000000009,2,0.8594329357147217,0,"(0, 2)",173,0,False,False,False,True,True,False
174,0,"{'mean': 0.29999999999999999, 'sd': 0.37}",0.5,2,0.5055110454559326,1,"(1, 2)",174,1,True,True,False,True,False,True
175,0,"{'mean': 0.29999999999999999, 'sd': 0.37}",0.5,3,0.86751389503479,1,"(0, 3)",175,1,False,False,False,True,False,True
176,0,"{'mean': 0.29999999999999999, 'sd': 0.37}",0.8999999999999999,2,0.9757390022277832,1,"(1, 2)",176,1,False,False,False,True,False,True
177,0,"{'mean': 0.29999999999999999, 'sd': 0.37}",0.30000000000000004,3,0.8805809020996094,1,"(1, 3)",177,1,False,False,False,True,False,True
178,0,"{'mean': 0.29999999999999999, 'sd': 0.37}",0.10000000000000009,3,0.8067641258239746,1,"(0, 3)",178,1,True,False,False,True,False,True
179,0,"{'mean': 0.29999999999999999, 'sd': 0.37}",0.5,3,0.6862430572509766,1,"(1, 3)",179,1,True,False,False,True,False,True
180,0,"{'mean': 0.29999999999999999, 'sd': 0.37}",-0.10000000000000009,0,1.126953125,1,"(0, 3)",180,1,False,False,True,False,True,False
181,0,"{'mean': 0.29999999999999999, 'sd': 0.37}",0.30000000000000004,2,0.8571949005126953,1,"(1, 2)",181,1,False,False,False,True,True,True
182,0,"{'mean': -0.29999999999999999, 'sd': 0.37}",-0.10000000000000009,1,0.9021098613739014,0,"(1, 2)",182,0,False,True,True,False,True,True
183,0,"{'mean': -0.29999999999999999, 'sd': 0.37}",-0.30000000000000004,1,0.5261149406433105,0,"(1, 3)",183,0,True,False,True,False,False,True
184,0,"{'mean': -0.29999999999999999, 'sd': 0.37}",-0.5,0,0.40157198905944824,0,"(0, 2)",184,0,False,False,True,False,False,True
185,0,"{'mean': -0.29999999999999999, 'sd': 0.37}",-0.5,1,0.6061229705810547,0,"(1, 3)",185,0,False,False,True,False,False,True
186,0,"{'mean': -0.29999999999999999, 'sd': 0.37}",-0.10000000000000009,0,0.8357329368591309,0,"(0, 3)",186,0,False,False,True,False,False,True
187,0,"{'mean': -0.29999999999999999, 'sd': 0.37}",-0.5,0,0.6656088829040527,0,"(0, 3)",187,0,True,False,True,False,False,True
188,0,"{'mean': -0.29999999999999999, 'sd': 0.37}",0.10000000000000009,2,0.801677942276001,0,"(0, 2)",188,0,False,False,False,True,True,False
189,0,"{'mean': -0.29999999999999999, 'sd': 0.37}",-0.10000000000000009,1,0.8274779319763184,0,"(1, 3)",189,0,False,False,True,False,True,True
190,0,"{'mean': -0.29999999999999999, 'sd': 0.37}",-0.10000000000000009,0,0.48962879180908203,0,"(0, 2)",190,0,False,False,True,False,False,True
191,0,"{'mean': -0.29999999999999999, 'sd': 0.37}",-0.10000000000000009,2,0.8519229888916016,0,"(0, 2)",191,0,False,False,False,True,True,False
192,0,"{'mean': -0.29999999999999999, 'sd': 0.37}",-0.5,1,0.6672859191894531,0,"(1, 3)",192,0,False,False,True,False,True,True
193,0,"{'mean': -0.29999999999999999, 'sd': 0.37}",-0.5,1,0.6927680969238281,0,"(1, 3)",193,0,True,False,True,False,False,True
194,0,"{'mean': -0.29999999999999999, 'sd': 0.37}",-0.5,1,0.5762388706207275,0,"(1, 3)",194,0,True,False,True,False,False,True
195,0,"{'mean': -0.29999999999999999, 'sd': 0.37}",0.30000000000000004,3,0.8754339218139648,0,"(0, 3)",195,0,False,False,False,True,True,False
196,0,"{'mean': -0.29999999999999999, 'sd': 0.37}",-0.7000000000000001,1,0.7239320278167725,0,"(1, 2)",196,0,False,False,True,False,True,True
197,0,"{'mean': -0.29999999999999999, 'sd': 0.37}",-0.30000000000000004,0,0.9855630397796631,0,"(0, 3)",197,0,False,False,True,False,False,True
198,0,"{'mean': -0.29999999999999999, 'sd': 0.37}",-0.30000000000000004,1,0.5619611740112305,0,"(1, 3)",198,0,False,False,True,False,False,True
199,0,"{'mean': -0.29999999999999999, 'sd': 0.37}",-1.0,1,1.179521083831787,0,"(1, 2)",199,0,True,False,True,False,False,True
200,0,"{'mean': -0.29999999999999999, 'sd': 0.37}",0.7,3,0.8374800682067871,0,"(0, 3)",200,0,False,False,False,True,True,False
201,0,"{'mean': -0.29999999999999999, 'sd': 0.37}",0.10000000000000009,2,0.5076630115509033,0,"(0, 2)",201,0,False,False,False,True,False,False
202,0,"{'mean': -0.29999999999999999, 'sd': 0.37}",-0.10000000000000009,3,0.5745120048522949,0,"(0, 3)",202,0,False,False,False,True,False,False
203,0,"{'mean': 0.29999999999999999, 'sd': 0.37}",0.5,3,0.5183439254760742,1,"(0, 3)",203,1,True,True,False,True,False,True
204,0,"{'mean': 0.29999999999999999, 'sd': 0.37}",0.7,3,0.5375721454620361,1,"(0, 3)",204,1,True,False,False,True,False,True
205,0,"{'mean': 0.29999999999999999, 'sd': 0.37}",-0.10000000000000009,1,1.0617988109588623,1,"(1, 2)",205,1,False,False,True,False,True,False
206,0,"{'mean': 0.29999999999999999, 'sd': 0.37}",0.7,2,0.7688689231872559,1,"(0, 2)",206,1,False,False,False,True,True,True
207,0,"{'mean': 0.29999999999999999, 'sd': 0.37}",0.30000000000000004,3,0.555976152420044,1,"(0, 3)",207,1,False,False,False,True,False,True
208,0,"{'mean': 0.29999999999999999, 'sd': 0.37}",0.30000000000000004,2,0.7068419456481934,1,"(0, 2)",208,1,False,False,False,True,False,True
209,0,"{'mean': -0.29999999999999999, 'sd': 0.37}",-0.7000000000000001,0,0.9390370845794678,0,"(0, 3)",209,0,False,True,True,False,True,True
210,0,"{'mean': -0.29999999999999999, 'sd': 0.37}",-0.7000000000000001,1,0.6111869812011719,0,"(1, 3)",210,0,False,False,True,False,False,True
211,0,"{'mean': -0.29999999999999999, 'sd': 0.37}",0.30000000000000004,3,1.13773512840271,0,"(0, 3)",211,0,False,False,False,True,True,False
212,0,"{'mean': -0.29999999999999999, 'sd': 0.37}",-0.7000000000000001,0,0.9864420890808105,0,"(0, 2)",212,0,False,False,True,False,True,True
214,0,"{'mean': -0.29999999999999999, 'sd': 0.37}",0.30000000000000004,3,1.237332820892334,0,"(1, 2)",214,0,False,False,False,False,True,False
215,0,"{'mean': -0.29999999999999999, 'sd': 0.37}",-0.10000000000000009,3,1.0678718090057373,0,"(1, 2)",215,0,True,False,False,False,False,False
216,0,"{'mean': -0.29999999999999999, 'sd': 0.37}",0.10000000000000009,2,0.6924831867218018,0,"(1, 2)",216,0,False,False,False,True,False,False
217,0,"{'mean': -0.29999999999999999, 'sd': 0.37}",-0.5,1,0.7813658714294434,0,"(1, 2)",217,0,False,False,True,False,True,True
218,0,"{'mean': -0.29999999999999999, 'sd': 0.37}",-0.30000000000000004,0,0.5986740589141846,0,"(0, 3)",218,0,False,False,True,False,False,True
219,0,"{'mean': -0.29999999999999999, 'sd': 0.37}",-0.5,1,0.49657392501831055,0,"(1, 3)",219,0,False,False,True,False,False,True
220,0,"{'mean': -0.29999999999999999, 'sd': 0.37}",-0.5,1,0.47438788414001465,0,"(1, 3)",220,0,True,False,True,False,False,True
221,0,"{'mean': -0.29999999999999999, 'sd': 0.37}",0.10000000000000009,2,0.8813869953155518,0,"(1, 2)",221,0,False,False,False,True,True,False
222,0,"{'mean': -0.29999999999999999, 'sd': 0.37}",-0.30000000000000004,0,0.779055118560791,0,"(0, 2)",222,0,False,False,True,False,True,True
223,0,"{'mean': -0.29999999999999999, 'sd': 0.37}",0.30000000000000004,3,0.5387179851531982,0,"(1, 3)",223,0,False,False,False,True,True,False
224,0,"{'mean': -0.29999999999999999, 'sd': 0.37}",0.10000000000000009,0,0.7376809120178223,0,"(0, 2)",224,0,False,False,True,False,True,True
225,0,"{'mean': -0.29999999999999999, 'sd': 0.37}",0.7,3,0.7125880718231201,0,"(0, 3)",225,0,False,False,False,True,True,False
226,0,"{'mean': -0.29999999999999999, 'sd': 0.37}",-0.5,1,1.0053050518035889,0,"(1, 2)",226,0,False,False,True,False,True,True
227,0,"{'mean': -0.29999999999999999, 'sd': 0.37}",-0.30000000000000004,0,0.803555965423584,0,"(0, 3)",227,0,False,False,True,False,False,True
228,0,"{'mean': -0.29999999999999999, 'sd': 0.37}",-1.0,1,1.1588220596313477,0,"(0, 2)",228,0,False,False,False,False,True,False
229,0,"{'mean': -0.29999999999999999, 'sd': 0.37}",-0.9000000000000001,0,0.5261330604553223,0,"(0, 3)",229,0,False,False,True,False,True,True
230,0,"{'mean': -0.29999999999999999, 'sd': 0.37}",-0.9000000000000001,1,0.5852069854736328,0,"(1, 3)",230,0,False,False,True,False,False,True
231,0,"{'mean': -0.29999999999999999, 'sd': 0.37}",-0.9000000000000001,1,0.7012770175933838,0,"(1, 2)",231,0,True,False,True,False,False,True
232,0,"{'mean': 0.29999999999999999, 'sd': 0.37}",0.5,3,0.6713709831237793,1,"(0, 3)",232,1,False,True,False,True,True,True
233,0,"{'mean': -0.29999999999999999, 'sd': 0.37}",0.10000000000000009,3,0.8611040115356445,0,"(1, 3)",233,0,True,True,False,True,False,False
234,0,"{'mean': -0.29999999999999999, 'sd': 0.37}",0.10000000000000009,3,0.5190138816833496,0,"(1, 3)",234,0,True,False,False,True,False,False
235,0,"{'mean': -0.29999999999999999, 'sd': 0.37}",-0.30000000000000004,0,1.0427331924438477,0,"(0, 3)",235,0,False,False,True,False,True,True
236,0,"{'mean': -0.29999999999999999, 'sd': 0.37}",-0.7000000000000001,0,0.48535704612731934,0,"(0, 3)",236,0,True,False,True,False,False,True
237,0,"{'mean': -0.29999999999999999, 'sd': 0.37}",-0.5,1,0.5585341453552246,0,"(1, 3)",237,0,False,False,True,False,False,True
238,0,"{'mean': -0.29999999999999999, 'sd': 0.37}",-0.10000000000000009,3,0.8325259685516357,0,"(0, 3)",238,0,False,False,False,True,True,False
239,0,"{'mean': -0.29999999999999999, 'sd': 0.37}",0.10000000000000009,2,0.5628809928894043,0,"(1, 2)",239,0,False,False,False,True,False,False
240,0,"{'mean': -0.29999999999999999, 'sd': 0.37}",-0.30000000000000004,1,0.9796950817108154,0,"(1, 3)",240,0,False,False,True,False,True,True
241,0,"{'mean': -0.29999999999999999, 'sd': 0.37}",-0.5,1,0.4349241256713867,0,"(0, 3)",241,0,True,False,False,False,True,False
242,0,"{'mean': -0.29999999999999999, 'sd': 0.37}",-0.30000000000000004,0,0.341825008392334,0,"(0, 3)",242,0,False,False,True,False,True,True
243,0,"{'mean': -0.29999999999999999, 'sd': 0.37}",-0.10000000000000009,3,1.1860661506652832,0,"(0, 2)",243,0,False,False,False,False,True,False
244,0,"{'mean': -0.29999999999999999, 'sd': 0.37}",-0.9000000000000001,0,0.755760908126831,0,"(0, 3)",244,0,False,False,True,False,True,True
245,0,"{'mean': -0.29999999999999999, 'sd': 0.37}",-0.10000000000000009,0,0.9246540069580078,0,"(0, 3)",245,0,True,False,True,False,False,True
246,0,"{'mean': -0.29999999999999999, 'sd': 0.37}",-0.30000000000000004,1,0.7918469905853271,0,"(1, 2)",246,0,False,False,True,False,False,True
247,0,"{'mean': -0.29999999999999999, 'sd': 0.37}",-0.30000000000000004,1,0.4529550075531006,0,"(1, 2)",247,0,True,False,True,False,False,True
248,0,"{'mean': -0.29999999999999999, 'sd': 0.37}",-0.30000000000000004,1,0.42702507972717285,0,"(1, 2)",248,0,True,False,True,False,False,True
249,0,"{'mean': -0.29999999999999999, 'sd': 0.37}",-0.10000000000000009,1,1.1480181217193604,0,"(1, 3)",249,0,True,False,True,False,False,True
250,0,"{'mean': -0.29999999999999999, 'sd': 0.37}",-0.5,1,0.6209208965301514,0,"(1, 2)",250,0,True,False,True,False,False,True
251,0,"{'mean': 0.29999999999999999, 'sd': 0.37}",0.5,2,0.948883056640625,1,"(1, 2)",251,1,False,True,False,True,True,True
252,0,"{'mean': 0.29999999999999999, 'sd': 0.37}",0.30000000000000004,3,0.6724178791046143,1,"(1, 3)",252,1,False,False,False,True,False,True
253,0,"{'mean': 0.29999999999999999, 'sd': 0.37}",0.30000000000000004,2,0.747528076171875,1,"(1, 2)",253,1,False,False,False,True,False,True
254,0,"{'mean': 0.29999999999999999, 'sd': 0.37}",0.10000000000000009,2,0.5689690113067627,1,"(0, 2)",254,1,True,False,False,True,False,True
255,0,"{'mean': -0.29999999999999999, 'sd': 0.37}",-0.5,0,0.7121100425720215,0,"(0, 3)",255,0,False,True,True,False,True,True
256,0,"{'mean': -0.29999999999999999, 'sd': 0.37}",-0.30000000000000004,1,0.6044750213623047,0,"(1, 3)",256,0,False,False,True,False,False,True
257,0,"{'mean': -0.29999999999999999, 'sd': 0.37}",-0.7000000000000001,1,0.5399219989776611,0,"(1, 3)",257,0,True,False,True,False,False,True
258,0,"{'mean': -0.29999999999999999, 'sd': 0.37}",-0.10000000000000009,1,0.8637089729309082,0,"(1, 2)",258,0,True,False,True,False,False,True
259,0,"{'mean': -0.29999999999999999, 'sd': 0.37}",-0.5,0,0.4941370487213135,0,"(0, 3)",259,0,False,False,True,False,False,True
260,0,"{'mean': -0.29999999999999999, 'sd': 0.37}",-0.30000000000000004,1,0.6521689891815186,0,"(1, 3)",260,0,False,False,True,False,False,True
261,0,"{'mean': -0.29999999999999999, 'sd': 0.37}",-0.5,0,0.47107911109924316,0,"(0, 3)",261,0,False,False,True,False,False,True
262,0,"{'mean': -0.29999999999999999, 'sd': 0.37}",-0.30000000000000004,1,1.2447609901428223,0,"(1, 2)",262,0,False,False,True,False,False,True
263,0,"{'mean': -0.29999999999999999, 'sd': 0.37}",0.10000000000000009,2,0.9750261306762695,0,"(0, 2)",263,0,False,False,False,True,True,False
264,0,"{'mean': -0.29999999999999999, 'sd': 0.37}",0.10000000000000009,3,1.2022130489349365,0,"(1, 2)",264,0,False,False,False,False,False,False
265,0,"{'mean': -0.29999999999999999, 'sd': 0.37}",-0.5,0,0.6816480159759521,0,"(0, 2)",265,0,False,False,True,False,True,True
266,0,"{'mean': -0.29999999999999999, 'sd': 0.37}",-1.0,0,0.6549370288848877,0,"(0, 2)",266,0,True,False,True,False,False,True
267,0,"{'mean': -0.29999999999999999, 'sd': 0.37}",-0.5,0,0.508059024810791,0,"(0, 2)",267,0,True,False,True,False,False,True
268,0,"{'mean': -0.29999999999999999, 'sd': 0.37}",-0.30000000000000004,0,0.4587829113006592,0,"(0, 2)",268,0,True,False,True,False,False,True
269,0,"{'mean': -0.29999999999999999, 'sd': 0.37}",-0.7000000000000001,1,0.5940179824829102,0,"(1, 2)",269,0,False,False,True,False,False,True
270,0,"{'mean': -0.29999999999999999, 'sd': 0.37}",0.30000000000000004,3,0.8894391059875488,0,"(0, 3)",270,0,False,False,False,True,True,False
271,0,"{'mean': -0.29999999999999999, 'sd': 0.37}",-0.30000000000000004,0,0.7661130428314209,0,"(0, 3)",271,0,False,False,True,False,True,True
272,0,"{'mean': -0.29999999999999999, 'sd': 0.37}",-0.7000000000000001,0,0.4731760025024414,0,"(0, 2)",272,0,True,False,True,False,False,True
273,0,"{'mean': -0.29999999999999999, 'sd': 0.37}",-0.10000000000000009,1,1.0499849319458008,0,"(1, 3)",273,0,False,False,True,False,False,True
274,0,"{'mean': -0.29999999999999999, 'sd': 0.37}",-0.7000000000000001,0,0.7882840633392334,0,"(1, 2)",274,0,False,False,False,False,True,False
275,0,"{'mean': -0.29999999999999999, 'sd': 0.37}",-0.5,1,0.5352699756622314,0,"(1, 3)",275,0,False,False,True,False,True,True
276,0,"{'mean': 0.29999999999999999, 'sd': 0.37}",0.30000000000000004,3,0.9260509014129639,1,"(1, 3)",276,1,False,True,False,True,True,True
277,0,"{'mean': 0.29999999999999999, 'sd': 0.37}",1.0,3,0.858043909072876,1,"(0, 3)",277,1,True,False,False,True,False,True
278,0,"{'mean': 0.29999999999999999, 'sd': 0.37}",-0.10000000000000009,3,1.1035730838775635,1,"(0, 3)",278,1,True,False,False,True,False,True
279,0,"{'mean': 0.29999999999999999, 'sd': 0.37}",-0.10000000000000009,2,0.9127590656280518,1,"(0, 2)",279,1,False,False,False,True,False,True
280,0,"{'mean': 0.29999999999999999, 'sd': 0.37}",0.7,3,0.6705279350280762,1,"(1, 2)",280,1,False,False,False,False,False,False
281,0,"{'mean': 0.29999999999999999, 'sd': 0.37}",0.30000000000000004,3,0.5165209770202637,1,"(0, 3)",281,1,True,False,False,True,False,True
282,0,"{'mean': 0.29999999999999999, 'sd': 0.37}",0.30000000000000004,2,0.6186740398406982,1,"(0, 2)",282,1,False,False,False,True,False,True
283,0,"{'mean': 0.29999999999999999, 'sd': 0.37}",0.8999999999999999,2,0.8194191455841064,1,"(1, 2)",283,1,True,False,False,True,False,True
284,0,"{'mean': -0.29999999999999999, 'sd': 0.37}",-0.30000000000000004,1,0.9467778205871582,0,"(1, 2)",284,0,False,True,True,False,True,True
285,0,"{'mean': -0.29999999999999999, 'sd': 0.37}",-0.10000000000000009,0,0.7522029876708984,0,"(0, 3)",285,0,False,False,True,False,False,True
286,0,"{'mean': -0.29999999999999999, 'sd': 0.37}",-0.9000000000000001,0,0.7481670379638672,0,"(0, 2)",286,0,True,False,True,False,False,True
287,0,"{'mean': -0.29999999999999999, 'sd': 0.37}",-0.30000000000000004,0,0.5569300651550293,0,"(0, 2)",287,0,True,False,True,False,False,True
288,0,"{'mean': -0.29999999999999999, 'sd': 0.37}",-0.5,1,0.5765151977539062,0,"(1, 3)",288,0,False,False,True,False,False,True
289,0,"{'mean': -0.29999999999999999, 'sd': 0.37}",-0.5,1,0.5372748374938965,0,"(1, 3)",289,0,True,False,True,False,False,True
290,0,"{'mean': 0.29999999999999999, 'sd': 0.37}",0.30000000000000004,3,0.9153778553009033,1,"(0, 3)",290,1,False,True,False,True,True,True
291,0,"{'mean': 0.29999999999999999, 'sd': 0.37}",-0.10000000000000009,2,0.9565238952636719,1,"(0, 2)",291,1,False,False,False,True,False,True
292,0,"{'mean': 0.29999999999999999, 'sd': 0.37}",0.5,2,0.47887182235717773,1,"(0, 2)",292,1,True,False,False,True,False,True
293,0,"{'mean': 0.29999999999999999, 'sd': 0.37}",0.30000000000000004,3,0.6770951747894287,1,"(1, 3)",293,1,False,False,False,True,False,True
294,0,"{'mean': 0.29999999999999999, 'sd': 0.37}",0.7,2,0.3171370029449463,1,"(0, 2)",294,1,False,False,False,True,False,True
295,0,"{'mean': -0.29999999999999999, 'sd': 0.37}",-0.5,0,1.0648791790008545,0,"(0, 3)",295,0,False,True,True,False,True,True
296,0,"{'mean': -0.29999999999999999, 'sd': 0.37}",-0.10000000000000009,1,0.803239107131958,0,"(1, 2)",296,0,False,False,True,False,False,True
297,0,"{'mean': -0.29999999999999999, 'sd': 0.37}",0.10000000000000009,3,1.1462769508361816,0,"(0, 3)",297,0,False,False,False,True,True,False
299,0,"{'mean': -0.29999999999999999, 'sd': 0.37}",-0.7000000000000001,1,0.577639102935791,0,"(1, 2)",299,0,False,False,True,False,True,True
300,0,"{'mean': -0.29999999999999999, 'sd': 0.37}",0.30000000000000004,2,0.873572826385498,0,"(0, 2)",300,0,False,False,False,True,True,False
301,0,"{'mean': -0.29999999999999999, 'sd': 0.37}",0.10000000000000009,2,0.8060870170593262,0,"(1, 2)",301,0,True,False,False,True,False,False
302,0,"{'mean': -0.29999999999999999, 'sd': 0.37}",-0.30000000000000004,1,0.8809788227081299,0,"(1, 2)",302,0,False,False,True,False,True,True
303,0,"{'mean': -0.29999999999999999, 'sd': 0.37}",-0.10000000000000009,1,0.5271198749542236,0,"(1, 2)",303,0,True,False,True,False,False,True
304,0,"{'mean': -0.29999999999999999, 'sd': 0.37}",-0.5,0,0.947437047958374,0,"(0, 2)",304,0,False,False,True,False,False,True
305,0,"{'mean': -0.29999999999999999, 'sd': 0.37}",-0.30000000000000004,0,0.415391206741333,0,"(0, 2)",305,0,True,False,True,False,False,True
306,0,"{'mean': -0.29999999999999999, 'sd': 0.37}",-0.5,0,0.5052618980407715,0,"(0, 3)",306,0,True,False,True,False,False,True
307,0,"{'mean': -0.29999999999999999, 'sd': 0.37}",-0.30000000000000004,1,0.6030690670013428,0,"(1, 2)",307,0,False,False,True,False,False,True
308,0,"{'mean': -0.29999999999999999, 'sd': 0.37}",-0.5,1,0.526115894317627,0,"(1, 2)",308,0,True,False,True,False,False,True
309,0,"{'mean': -0.29999999999999999, 'sd': 0.37}",-0.10000000000000009,0,0.6144790649414062,0,"(0, 3)",309,0,False,False,True,False,False,True
310,0,"{'mean': -0.29999999999999999, 'sd': 0.37}",-0.10000000000000009,0,0.47034502029418945,0,"(0, 3)",310,0,True,False,True,False,False,True
311,0,"{'mean': -0.29999999999999999, 'sd': 0.37}",0.30000000000000004,0,0.8240160942077637,0,"(0, 2)",311,0,True,False,True,False,False,True
312,0,"{'mean': -0.29999999999999999, 'sd': 0.37}",-0.5,1,0.8546328544616699,0,"(1, 3)",312,0,False,False,True,False,False,True
313,0,"{'mean': -0.29999999999999999, 'sd': 0.37}",-0.7000000000000001,1,0.5849378108978271,0,"(1, 3)",313,0,True,False,True,False,False,True
314,0,"{'mean': -0.29999999999999999, 'sd': 0.37}",0.30000000000000004,3,1.2238531112670898,0,"(0, 3)",314,0,False,False,False,True,True,False
315,0,"{'mean': -0.29999999999999999, 'sd': 0.37}",0.10000000000000009,3,0.8259210586547852,0,"(1, 3)",315,0,True,False,False,True,False,False
316,0,"{'mean': -0.29999999999999999, 'sd': 0.37}",0.5,2,0.401796817779541,0,"(1, 2)",316,0,False,False,False,True,False,False
317,0,"{'mean': -0.29999999999999999, 'sd': 0.37}",0.30000000000000004,2,0.34586286544799805,0,"(1, 2)",317,0,True,False,False,True,False,False
318,0,"{'mean': -0.29999999999999999, 'sd': 0.37}",-0.10000000000000009,2,0.7516508102416992,0,"(1, 2)",318,0,True,False,False,True,False,False
319,0,"{'mean': -0.29999999999999999, 'sd': 0.37}",-0.5,0,0.8575830459594727,0,"(0, 2)",319,0,False,False,True,False,True,True
320,0,"{'mean': -0.29999999999999999, 'sd': 0.37}",-0.30000000000000004,0,0.4073669910430908,0,"(0, 2)",320,0,True,False,True,False,False,True
321,0,"{'mean': 0.29999999999999999, 'sd': 0.37}",-0.10000000000000009,1,0.7166330814361572,1,"(1, 2)",321,1,False,True,True,False,False,False
322,0,"{'mean': 0.29999999999999999, 'sd': 0.37}",0.7,3,0.9884419441223145,1,"(0, 3)",322,1,False,False,False,True,True,True
323,0,"{'mean': 0.29999999999999999, 'sd': 0.37}",0.30000000000000004,3,0.47885990142822266,1,"(0, 3)",323,1,True,False,False,True,False,True
324,0,"{'mean': 0.29999999999999999, 'sd': 0.37}",-0.10000000000000009,2,0.9519720077514648,1,"(1, 2)",324,1,False,False,False,True,False,True
325,0,"{'mean': 0.29999999999999999, 'sd': 0.37}",0.30000000000000004,2,0.40602993965148926,1,"(0, 2)",325,1,True,False,False,True,False,True
326,0,"{'mean': 0.29999999999999999, 'sd': 0.37}",0.7,2,0.5566070079803467,1,"(1, 2)",326,1,True,False,False,True,False,True
327,0,"{'mean': 0.29999999999999999, 'sd': 0.37}",0.7,2,0.39031195640563965,1,"(0, 2)",327,1,True,False,False,True,False,True
328,0,"{'mean': 0.29999999999999999, 'sd': 0.37}",0.10000000000000009,3,1.0556039810180664,1,"(0, 3)",328,1,False,False,False,True,False,True
329,0,"{'mean': 0.29999999999999999, 'sd': 0.37}",0.10000000000000009,3,0.583158016204834,1,"(0, 3)",329,1,True,False,False,True,False,True
330,0,"{'mean': 0.29999999999999999, 'sd': 0.37}",0.7,3,0.6341300010681152,1,"(0, 3)",330,1,True,False,False,True,False,True
331,0,"{'mean': 0.29999999999999999, 'sd': 0.37}",-0.10000000000000009,2,0.9554359912872314,1,"(1, 2)",331,1,False,False,False,True,False,True
332,0,"{'mean': -0.29999999999999999, 'sd': 0.37}",-0.5,1,1.0451030731201172,0,"(1, 2)",332,0,False,True,True,False,True,True
333,0,"{'mean': 0.29999999999999999, 'sd': 0.37}",0.5,3,1.329657793045044,1,"(0, 3)",333,1,False,True,False,True,True,True
334,0,"{'mean': 0.29999999999999999, 'sd': 0.37}",0.30000000000000004,3,0.598146915435791,1,"(1, 3)",334,1,True,False,False,True,False,True
335,0,"{'mean': 0.29999999999999999, 'sd': 0.37}",0.10000000000000009,3,0.7769708633422852,1,"(1, 3)",335,1,True,False,False,True,False,True
336,0,"{'mean': 0.29999999999999999, 'sd': 0.37}",0.5,3,0.6602392196655273,1,"(0, 3)",336,1,True,False,False,True,False,True
337,0,"{'mean': 0.29999999999999999, 'sd': 0.37}",0.5,2,0.45679497718811035,1,"(1, 2)",337,1,False,False,False,True,False,True
338,0,"{'mean': 0.29999999999999999, 'sd': 0.37}",-0.10000000000000009,1,0.8590579032897949,1,"(1, 3)",338,1,False,False,True,False,True,False
339,0,"{'mean': 0.29999999999999999, 'sd': 0.37}",0.5,2,0.8865690231323242,1,"(1, 2)",339,1,False,False,False,True,True,True
340,0,"{'mean': -0.29999999999999999, 'sd': 0.37}",-0.30000000000000004,1,0.6886439323425293,0,"(1, 3)",340,0,False,True,True,False,True,True
341,0,"{'mean': 0.29999999999999999, 'sd': 0.37}",0.30000000000000004,2,0.6204180717468262,1,"(1, 2)",341,1,False,True,False,True,True,True
342,0,"{'mean': -0.29999999999999999, 'sd': 0.37}",-0.30000000000000004,1,0.4626920223236084,0,"(1, 3)",342,0,False,True,True,False,True,True
343,0,"{'mean': -0.29999999999999999, 'sd': 0.37}",-0.30000000000000004,0,0.7408630847930908,0,"(0, 3)",343,0,False,False,True,False,False,True
344,0,"{'mean': -0.29999999999999999, 'sd': 0.37}",-0.10000000000000009,1,1.0517687797546387,0,"(1, 2)",344,0,False,False,True,False,False,True
345,0,"{'mean': -0.29999999999999999, 'sd': 0.37}",-0.5,0,0.5393059253692627,0,"(0, 2)",345,0,False,False,True,False,False,True
346,0,"{'mean': -0.29999999999999999, 'sd': 0.37}",-0.5,1,0.5882351398468018,0,"(1, 3)",346,0,False,False,True,False,False,True
347,0,"{'mean': -0.29999999999999999, 'sd': 0.37}",-0.10000000000000009,0,0.7844431400299072,0,"(0, 2)",347,0,False,False,True,False,False,True
348,0,"{'mean': -0.29999999999999999, 'sd': 0.37}",-0.7000000000000001,0,0.8029239177703857,0,"(0, 3)",348,0,True,False,True,False,False,True
349,0,"{'mean': -0.29999999999999999, 'sd': 0.37}",-0.9000000000000001,0,0.43913698196411133,0,"(0, 3)",349,0,True,False,True,False,False,True
350,0,"{'mean': -0.29999999999999999, 'sd': 0.37}",-0.10000000000000009,0,0.6576271057128906,0,"(0, 3)",350,0,True,False,True,False,False,True
351,0,"{'mean': -0.29999999999999999, 'sd': 0.37}",-0.10000000000000009,0,0.453902006149292,0,"(0, 3)",351,0,True,False,True,False,False,True
352,0,"{'mean': -0.29999999999999999, 'sd': 0.37}",-0.30000000000000004,1,0.6655001640319824,0,"(1, 2)",352,0,False,False,True,False,False,True
353,0,"{'mean': -0.29999999999999999, 'sd': 0.37}",-0.10000000000000009,1,1.130842924118042,0,"(1, 3)",353,0,True,False,True,False,False,True
354,0,"{'mean': -0.29999999999999999, 'sd': 0.37}",-0.10000000000000009,1,0.5047030448913574,0,"(1, 2)",354,0,True,False,True,False,False,True
355,0,"{'mean': -0.29999999999999999, 'sd': 0.37}",-0.7000000000000001,1,0.7121081352233887,0,"(1, 2)",355,0,True,False,True,False,False,True
356,0,"{'mean': -0.29999999999999999, 'sd': 0.37}",-0.30000000000000004,0,1.1131250858306885,0,"(0, 3)",356,0,False,False,True,False,False,True
357,0,"{'mean': -0.29999999999999999, 'sd': 0.37}",-0.30000000000000004,0,0.49611902236938477,0,"(0, 3)",357,0,True,False,True,False,False,True
358,0,"{'mean': -0.29999999999999999, 'sd': 0.37}",-0.10000000000000009,1,0.6017580032348633,0,"(1, 3)",358,0,False,False,True,False,False,True
359,0,"{'mean': 0.29999999999999999, 'sd': 0.37}",0.30000000000000004,2,0.733281135559082,1,"(0, 2)",359,1,False,True,False,True,True,True
360,0,"{'mean': 0.29999999999999999, 'sd': 0.37}",0.7,2,0.4391288757324219,1,"(0, 2)",360,1,True,False,False,True,False,True
361,0,"{'mean': 0.29999999999999999, 'sd': 0.37}",0.10000000000000009,2,0.78507399559021,1,"(0, 2)",361,1,True,False,False,True,False,True
362,0,"{'mean': 0.29999999999999999, 'sd': 0.37}",0.10000000000000009,3,0.8680717945098877,1,"(0, 3)",362,1,False,False,False,True,False,True
363,0,"{'mean': 0.29999999999999999, 'sd': 0.37}",0.5,2,0.832097053527832,1,"(0, 2)",363,1,False,False,False,True,False,True
364,0,"{'mean': 0.29999999999999999, 'sd': 0.37}",0.7,2,0.5528898239135742,1,"(0, 3)",364,1,True,False,False,False,False,False
365,0,"{'mean': 0.29999999999999999, 'sd': 0.37}",0.7,3,0.5917880535125732,1,"(0, 3)",365,1,False,False,False,True,False,True
366,0,"{'mean': -0.29999999999999999, 'sd': 0.37}",-0.30000000000000004,1,0.7450969219207764,0,"(1, 2)",366,0,False,True,True,False,True,True
367,0,"{'mean': -0.29999999999999999, 'sd': 0.37}",-0.30000000000000004,1,0.6564991474151611,0,"(1, 3)",367,0,True,False,True,False,False,True
368,0,"{'mean': -0.29999999999999999, 'sd': 0.37}",0.7,2,0.6777431964874268,0,"(1, 2)",368,0,False,False,False,True,True,False
369,0,"{'mean': -0.29999999999999999, 'sd': 0.37}",-0.5,1,1.1006269454956055,0,"(1, 3)",369,0,False,False,True,False,True,True
370,0,"{'mean': -0.29999999999999999, 'sd': 0.37}",-0.10000000000000009,1,0.6427888870239258,0,"(1, 2)",370,0,True,False,True,False,False,True
371,0,"{'mean': -0.29999999999999999, 'sd': 0.37}",-0.30000000000000004,0,0.468019962310791,0,"(0, 2)",371,0,False,False,True,False,False,True
372,0,"{'mean': -0.29999999999999999, 'sd': 0.37}",-0.30000000000000004,0,0.4754769802093506,0,"(0, 3)",372,0,True,False,True,False,False,True
373,0,"{'mean': -0.29999999999999999, 'sd': 0.37}",0.10000000000000009,3,1.30513596534729,0,"(1, 3)",373,0,False,False,False,True,True,False
374,0,"{'mean': -0.29999999999999999, 'sd': 0.37}",-0.5,0,0.8791408538818359,0,"(0, 2)",374,0,False,False,True,False,True,True
375,0,"{'mean': -0.29999999999999999, 'sd': 0.37}",-0.7000000000000001,1,0.7043139934539795,0,"(1, 3)",375,0,False,False,True,False,False,True
376,0,"{'mean': -0.29999999999999999, 'sd': 0.37}",-0.30000000000000004,1,0.43000292778015137,0,"(1, 3)",376,0,True,False,True,False,False,True
377,0,"{'mean': -0.29999999999999999, 'sd': 0.37}",-0.10000000000000009,0,0.5529499053955078,0,"(0, 3)",377,0,False,False,True,False,False,True
378,0,"{'mean': -0.29999999999999999, 'sd': 0.37}",-0.7000000000000001,1,0.5083820819854736,0,"(1, 3)",378,0,False,False,True,False,False,True
379,0,"{'mean': -0.29999999999999999, 'sd': 0.37}",0.5,2,0.7897329330444336,0,"(0, 2)",379,0,False,False,False,True,True,False
380,0,"{'mean': -0.29999999999999999, 'sd': 0.37}",-0.5,2,1.22086501121521,0,"(1, 2)",380,0,True,False,False,True,False,False
381,0,"{'mean': -0.29999999999999999, 'sd': 0.37}",-0.5,1,0.7143049240112305,0,"(1, 2)",381,0,False,False,True,False,True,True
382,0,"{'mean': -0.29999999999999999, 'sd': 0.37}",-0.30000000000000004,0,1.0475850105285645,0,"(0, 2)",382,0,False,False,True,False,False,True
383,0,"{'mean': -0.29999999999999999, 'sd': 0.37}",-0.5,1,0.5361990928649902,0,"(1, 3)",383,0,False,False,True,False,False,True
384,0,"{'mean': -0.29999999999999999, 'sd': 0.37}",0.10000000000000009,2,0.6027538776397705,0,"(0, 2)",384,0,False,False,False,True,True,False
385,0,"{'mean': -0.29999999999999999, 'sd': 0.37}",0.10000000000000009,2,0.44235801696777344,0,"(1, 2)",385,0,True,False,False,True,False,False
386,0,"{'mean': -0.29999999999999999, 'sd': 0.37}",0.10000000000000009,3,0.40466904640197754,0,"(0, 3)",386,0,False,False,False,True,False,False
387,0,"{'mean': -0.29999999999999999, 'sd': 0.37}",-0.5,1,0.61403489112854,0,"(1, 3)",387,0,False,False,True,False,True,True
388,0,"{'mean': -0.29999999999999999, 'sd': 0.37}",0.30000000000000004,2,1.0193610191345215,0,"(1, 2)",388,0,False,False,False,True,True,False
389,0,"{'mean': -0.29999999999999999, 'sd': 0.37}",0.30000000000000004,3,0.9051060676574707,0,"(0, 3)",389,0,False,False,False,True,False,False
390,0,"{'mean': -0.29999999999999999, 'sd': 0.37}",-0.30000000000000004,0,0.670706033706665,0,"(0, 2)",390,0,False,False,True,False,True,True
391,0,"{'mean': -0.29999999999999999, 'sd': 0.37}",-0.7000000000000001,0,0.6560101509094238,0,"(0, 3)",391,0,True,False,True,False,False,True
392,0,"{'mean': -0.29999999999999999, 'sd': 0.37}",-0.5,1,0.6180548667907715,0,"(1, 3)",392,0,False,False,True,False,False,True
393,0,"{'mean': 0.29999999999999999, 'sd': 0.37}",0.7,2,0.8747799396514893,1,"(0, 2)",393,1,False,True,False,True,True,True
394,0,"{'mean': 0.29999999999999999, 'sd': 0.37}",0.30000000000000004,2,0.5898678302764893,1,"(1, 2)",394,1,True,False,False,True,False,True
395,0,"{'mean': 0.29999999999999999, 'sd': 0.37}",0.5,2,0.4223179817199707,1,"(0, 2)",395,1,True,False,False,True,False,True
396,0,"{'mean': 0.29999999999999999, 'sd': 0.37}",0.30000000000000004,3,0.46970510482788086,1,"(1, 2)",396,1,False,False,False,False,False,False
397,0,"{'mean': 0.29999999999999999, 'sd': 0.37}",0.30000000000000004,3,1.026548147201538,1,"(0, 3)",397,1,True,False,False,True,False,True
398,0,"{'mean': 0.29999999999999999, 'sd': 0.37}",-0.10000000000000009,1,1.4184279441833496,1,"(0, 2)",398,1,False,False,False,False,False,False
399,0,"{'mean': 0.29999999999999999, 'sd': 0.37}",0.7,3,0.8092551231384277,1,"(0, 3)",399,1,False,False,False,True,False,True
400,0,"{'mean': 0.29999999999999999, 'sd': 0.37}",0.7,3,0.5585641860961914,1,"(0, 2)",400,1,True,False,False,False,False,False
401,0,"{'mean': 0.29999999999999999, 'sd': 0.37}",0.5,2,0.7046759128570557,1,"(0, 2)",401,1,False,False,False,True,False,True
402,0,"{'mean': 0.29999999999999999, 'sd': 0.37}",-0.10000000000000009,0,0.8436601161956787,1,"(0, 2)",402,1,False,False,True,False,True,False
403,0,"{'mean': 0.29999999999999999, 'sd': 0.37}",0.30000000000000004,3,1.20582914352417,1,"(0, 3)",403,1,False,False,False,True,True,True
404,0,"{'mean': 0.29999999999999999, 'sd': 0.37}",0.30000000000000004,3,0.44846200942993164,1,"(0, 3)",404,1,True,False,False,True,False,True
405,0,"{'mean': 0.29999999999999999, 'sd': 0.37}",0.30000000000000004,3,0.4192178249359131,1,"(0, 3)",405,1,True,False,False,True,False,True
406,0,"{'mean': 0.29999999999999999, 'sd': 0.37}",-0.10000000000000009,1,0.7872350215911865,1,"(0, 2)",406,1,False,False,False,False,False,False
407,0,"{'mean': 0.29999999999999999, 'sd': 0.37}",0.30000000000000004,3,0.8174810409545898,1,"(1, 3)",407,1,False,False,False,True,False,True
408,0,"{'mean': 0.29999999999999999, 'sd': 0.37}",0.7,3,1.188770055770874,1,"(0, 3)",408,1,True,False,False,True,False,True
409,0,"{'mean': 0.29999999999999999, 'sd': 0.37}",-0.30000000000000004,0,1.0821199417114258,1,"(0, 2)",409,1,False,False,True,False,True,False
410,0,"{'mean': 0.29999999999999999, 'sd': 0.37}",0.10000000000000009,1,1.186621904373169,1,"(1, 3)",410,1,False,False,True,False,False,False
411,0,"{'mean': 0.29999999999999999, 'sd': 0.37}",-0.10000000000000009,1,0.4959230422973633,1,"(1, 3)",411,1,True,False,True,False,False,False
412,0,"{'mean': 0.29999999999999999, 'sd': 0.37}",0.7,3,0.9542160034179688,1,"(1, 3)",412,1,False,False,False,True,True,True
414,0,"{'mean': -0.29999999999999999, 'sd': 0.37}",-0.5,0,0.9749648571014404,0,"(0, 2)",414,0,False,True,True,False,True,True
415,0,"{'mean': -0.29999999999999999, 'sd': 0.37}",-0.5,0,0.7582969665527344,0,"(0, 3)",415,0,True,False,True,False,False,True
416,0,"{'mean': -0.29999999999999999, 'sd': 0.37}",-0.30000000000000004,0,0.43213510513305664,0,"(0, 2)",416,0,True,False,True,False,False,True
417,0,"{'mean': -0.29999999999999999, 'sd': 0.37}",-0.30000000000000004,0,0.43271899223327637,0,"(0, 2)",417,0,True,False,True,False,False,True
418,0,"{'mean': -0.29999999999999999, 'sd': 0.37}",-0.10000000000000009,0,0.3852550983428955,0,"(0, 2)",418,0,True,False,True,False,False,True
419,0,"{'mean': -0.29999999999999999, 'sd': 0.37}",-0.5,0,0.4930129051208496,0,"(0, 3)",419,0,True,False,True,False,False,True
420,0,"{'mean': -0.29999999999999999, 'sd': 0.37}",-0.5,0,0.5166630744934082,0,"(0, 3)",420,0,True,False,True,False,False,True
421,0,"{'mean': 0.29999999999999999, 'sd': 0.37}",0.5,2,0.9760689735412598,1,"(0, 2)",421,1,False,True,False,True,True,True
422,0,"{'mean': 0.29999999999999999, 'sd': 0.37}",0.5,2,0.47455787658691406,1,"(0, 2)",422,1,True,False,False,True,False,True
423,0,"{'mean': 0.29999999999999999, 'sd': 0.37}",0.10000000000000009,2,0.7637710571289062,1,"(1, 2)",423,1,True,False,False,True,False,True
424,0,"{'mean': 0.29999999999999999, 'sd': 0.37}",0.7,2,0.7148318290710449,1,"(1, 2)",424,1,True,False,False,True,False,True
425,0,"{'mean': 0.29999999999999999, 'sd': 0.37}",0.5,3,0.663532018661499,1,"(1, 3)",425,1,False,False,False,True,False,True
426,0,"{'mean': 0.29999999999999999, 'sd': 0.37}",0.10000000000000009,3,0.40113282203674316,1,"(1, 3)",426,1,True,False,False,True,False,True
427,0,"{'mean': 0.29999999999999999, 'sd': 0.37}",-0.10000000000000009,3,0.8926451206207275,1,"(1, 2)",427,1,True,False,False,False,False,False
428,0,"{'mean': 0.29999999999999999, 'sd': 0.37}",0.5,3,0.7405829429626465,1,"(0, 3)",428,1,True,False,False,True,False,True
429,0,"{'mean': 0.29999999999999999, 'sd': 0.37}",0.7,3,0.5382819175720215,1,"(1, 3)",429,1,True,False,False,True,False,True
430,0,"{'mean': 0.29999999999999999, 'sd': 0.37}",0.10000000000000009,2,0.5239560604095459,1,"(0, 2)",430,1,False,False,False,True,False,True
431,0,"{'mean': 0.29999999999999999, 'sd': 0.37}",0.10000000000000009,3,0.5223419666290283,1,"(0, 3)",431,1,False,False,False,True,False,True
432,0,"{'mean': 0.29999999999999999, 'sd': 0.37}",-0.5,1,0.7750341892242432,1,"(1, 3)",432,1,False,False,True,False,True,False
433,0,"{'mean': -0.29999999999999999, 'sd': 0.37}",-0.30000000000000004,1,0.6464271545410156,0,"(1, 2)",433,0,True,True,True,False,False,True
434,0,"{'mean': 0.29999999999999999, 'sd': 0.37}",0.7,2,0.7988369464874268,1,"(0, 2)",434,1,False,True,False,True,True,True
435,0,"{'mean': 0.29999999999999999, 'sd': 0.37}",0.30000000000000004,2,0.7948489189147949,1,"(1, 2)",435,1,True,False,False,True,False,True
436,0,"{'mean': 0.29999999999999999, 'sd': 0.37}",0.5,2,0.4576268196105957,1,"(1, 2)",436,1,True,False,False,True,False,True
437,0,"{'mean': 0.29999999999999999, 'sd': 0.37}",-0.10000000000000009,3,1.005453109741211,1,"(1, 3)",437,1,False,False,False,True,False,True
438,0,"{'mean': 0.29999999999999999, 'sd': 0.37}",-0.10000000000000009,2,0.6722230911254883,1,"(0, 2)",438,1,False,False,False,True,False,True
439,0,"{'mean': 0.29999999999999999, 'sd': 0.37}",-0.10000000000000009,2,0.6585230827331543,1,"(1, 2)",439,1,True,False,False,True,False,True
440,0,"{'mean': -0.29999999999999999, 'sd': 0.37}",-0.30000000000000004,0,0.9061129093170166,0,"(0, 2)",440,0,False,True,True,False,True,True
441,0,"{'mean': -0.29999999999999999, 'sd': 0.37}",0.30000000000000004,0,0.6335759162902832,0,"(0, 2)",441,0,True,False,True,False,False,True
442,0,"{'mean': 0.29999999999999999, 'sd': 0.37}",0.30000000000000004,1,0.7770769596099854,1,"(1, 2)",442,1,False,True,True,False,False,False
443,0,"{'mean': 0.29999999999999999, 'sd': 0.37}",-0.30000000000000004,0,0.6733598709106445,1,"(0, 3)",443,1,False,False,True,False,False,False
444,0,"{'mean': 0.29999999999999999, 'sd': 0.37}",0.10000000000000009,2,1.0996780395507812,1,"(1, 2)",444,1,False,False,False,True,True,True
445,0,"{'mean': 0.29999999999999999, 'sd': 0.37}",0.8999999999999999,2,0.5230669975280762,1,"(0, 2)",445,1,True,False,False,True,False,True
446,0,"{'mean': 0.29999999999999999, 'sd': 0.37}",0.30000000000000004,3,0.3481252193450928,1,"(1, 3)",446,1,False,False,False,True,False,True
447,0,"{'mean': 0.29999999999999999, 'sd': 0.37}",0.10000000000000009,2,0.7216610908508301,1,"(0, 2)",447,1,False,False,False,True,False,True
448,0,"{'mean': 0.29999999999999999, 'sd': 0.37}",-0.10000000000000009,3,0.9184088706970215,1,"(1, 3)",448,1,False,False,False,True,False,True
449,0,"{'mean': 0.29999999999999999, 'sd': 0.37}",0.10000000000000009,3,0.46548008918762207,1,"(1, 3)",449,1,True,False,False,True,False,True
450,0,"{'mean': 0.29999999999999999, 'sd': 0.37}",0.7,2,0.4678068161010742,1,"(1, 2)",450,1,False,False,False,True,False,True
451,0,"{'mean': 0.29999999999999999, 'sd': 0.37}",0.10000000000000009,3,0.5418980121612549,1,"(1, 3)",451,1,False,False,False,True,False,True
452,0,"{'mean': -0.29999999999999999, 'sd': 0.37}",0.30000000000000004,3,0.46107006072998047,0,"(1, 3)",452,0,True,True,False,True,False,False
453,0,"{'mean': -0.29999999999999999, 'sd': 0.37}",-0.10000000000000009,3,0.9274020195007324,0,"(1, 2)",453,0,True,False,False,False,False,False
454,0,"{'mean': -0.29999999999999999, 'sd': 0.37}",-0.30000000000000004,0,0.7488880157470703,0,"(0, 3)",454,0,False,False,True,False,True,True
455,0,"{'mean': -0.29999999999999999, 'sd': 0.37}",0.10000000000000009,3,1.0851480960845947,0,"(0, 3)",455,0,False,False,False,True,True,False
456,0,"{'mean': -0.29999999999999999, 'sd': 0.37}",0.30000000000000004,3,1.4815471172332764,0,"(1, 2)",456,0,True,False,False,False,False,False
457,0,"{'mean': -0.29999999999999999, 'sd': 0.37}",-0.10000000000000009,0,0.7032709121704102,0,"(0, 3)",457,0,False,False,True,False,True,True
458,0,"{'mean': -0.29999999999999999, 'sd': 0.37}",0.7,2,0.8590819835662842,0,"(0, 2)",458,0,False,False,False,True,True,False
459,0,"{'mean': -0.29999999999999999, 'sd': 0.37}",-0.7000000000000001,1,0.9956099987030029,0,"(1, 2)",459,0,False,False,True,False,True,True
460,0,"{'mean': -0.29999999999999999, 'sd': 0.37}",-0.7000000000000001,0,0.515902042388916,0,"(0, 2)",460,0,False,False,True,False,False,True
461,0,"{'mean': 0.29999999999999999, 'sd': 0.37}",0.30000000000000004,2,1.1461451053619385,1,"(1, 2)",461,1,False,True,False,True,True,True
462,0,"{'mean': 0.29999999999999999, 'sd': 0.37}",0.10000000000000009,3,0.7052550315856934,1,"(1, 3)",462,1,False,False,False,True,False,True
463,0,"{'mean': 0.29999999999999999, 'sd': 0.37}",0.7,2,0.4959380626678467,1,"(0, 2)",463,1,False,False,False,True,False,True
464,0,"{'mean': 0.29999999999999999, 'sd': 0.37}",0.5,2,0.5359790325164795,1,"(0, 2)",464,1,True,False,False,True,False,True
465,0,"{'mean': 0.29999999999999999, 'sd': 0.37}",0.10000000000000009,3,0.6276960372924805,1,"(1, 3)",465,1,False,False,False,True,False,True
466,0,"{'mean': 0.29999999999999999, 'sd': 0.37}",-0.10000000000000009,2,0.677454948425293,1,"(1, 2)",466,1,False,False,False,True,False,True
467,0,"{'mean': 0.29999999999999999, 'sd': 0.37}",0.5,2,0.56203293800354,1,"(1, 2)",467,1,True,False,False,True,False,True
468,0,"{'mean': 0.29999999999999999, 'sd': 0.37}",0.5,3,0.5149481296539307,1,"(1, 3)",468,1,False,False,False,True,False,True
469,0,"{'mean': 0.29999999999999999, 'sd': 0.37}",0.7,3,0.48650097846984863,1,"(1, 3)",469,1,True,False,False,True,False,True
470,0,"{'mean': 0.29999999999999999, 'sd': 0.37}",0.7,3,0.791499137878418,1,"(1, 2)",470,1,True,False,False,False,False,False
471,0,"{'mean': 0.29999999999999999, 'sd': 0.37}",0.5,2,0.48653507232666016,1,"(0, 2)",471,1,False,False,False,True,False,True
472,0,"{'mean': 0.29999999999999999, 'sd': 0.37}",0.7,2,0.4371640682220459,1,"(0, 2)",472,1,True,False,False,True,False,True
473,0,"{'mean': 0.29999999999999999, 'sd': 0.37}",0.30000000000000004,3,0.7854709625244141,1,"(0, 3)",473,1,False,False,False,True,False,True
474,0,"{'mean': 0.29999999999999999, 'sd': 0.37}",-0.10000000000000009,3,0.8441140651702881,1,"(0, 3)",474,1,True,False,False,True,False,True
475,0,"{'mean': 0.29999999999999999, 'sd': 0.37}",0.7,3,0.80240797996521,1,"(1, 3)",475,1,True,False,False,True,False,True
476,0,"{'mean': 0.29999999999999999, 'sd': 0.37}",0.30000000000000004,3,0.4412851333618164,1,"(1, 3)",476,1,True,False,False,True,False,True
477,0,"{'mean': 0.29999999999999999, 'sd': 0.37}",0.5,2,0.7505431175231934,1,"(1, 2)",477,1,False,False,False,True,False,True
478,0,"{'mean': 0.29999999999999999, 'sd': 0.37}",0.5,2,0.5693230628967285,1,"(0, 3)",478,1,True,False,False,False,False,False
479,0,"{'mean': 0.29999999999999999, 'sd': 0.37}",0.10000000000000009,3,1.2357630729675293,1,"(1, 2)",479,1,False,False,False,False,False,False
480,0,"{'mean': 0.29999999999999999, 'sd': 0.37}",0.5,2,0.6425650119781494,1,"(0, 2)",480,1,False,False,False,True,False,True
481,0,"{'mean': 0.29999999999999999, 'sd': 0.37}",-0.10000000000000009,3,0.8687818050384521,1,"(1, 2)",481,1,False,False,False,False,False,False
482,0,"{'mean': 0.29999999999999999, 'sd': 0.37}",0.5,3,0.5090038776397705,1,"(1, 2)",482,1,True,False,False,False,False,False
483,0,"{'mean': 0.29999999999999999, 'sd': 0.37}",-0.30000000000000004,0,1.2740237712860107,1,"(0, 2)",483,1,False,False,True,False,True,False
484,0,"{'mean': 0.29999999999999999, 'sd': 0.37}",-0.10000000000000009,1,0.641402006149292,1,"(1, 3)",484,1,False,False,True,False,False,False
485,0,"{'mean': 0.29999999999999999, 'sd': 0.37}",0.10000000000000009,0,0.5650448799133301,1,"(0, 2)",485,1,False,False,True,False,False,False
486,0,"{'mean': 0.29999999999999999, 'sd': 0.37}",0.30000000000000004,2,1.0042591094970703,1,"(0, 2)",486,1,False,False,False,True,True,True
487,0,"{'mean': 0.29999999999999999, 'sd': 0.37}",-0.30000000000000004,0,0.7608199119567871,1,"(0, 2)",487,1,False,False,True,False,True,False
488,0,"{'mean': -0.29999999999999999, 'sd': 0.37}",-0.10000000000000009,1,1.1285979747772217,0,"(1, 3)",488,0,False,True,True,False,False,True
489,0,"{'mean': -0.29999999999999999, 'sd': 0.37}",-0.30000000000000004,3,0.8487529754638672,0,"(1, 2)",489,0,False,False,False,False,True,False
490,0,"{'mean': 0.29999999999999999, 'sd': 0.37}",0.7,2,0.8072471618652344,1,"(0, 2)",490,1,False,True,False,True,False,True
491,0,"{'mean': 0.29999999999999999, 'sd': 0.37}",0.5,2,0.6871399879455566,1,"(1, 2)",491,1,True,False,False,True,False,True
492,0,"{'mean': -0.29999999999999999, 'sd': 0.37}",-0.30000000000000004,0,1.2276790142059326,0,"(0, 2)",492,0,False,True,True,False,True,True
493,0,"{'mean': -0.29999999999999999, 'sd': 0.37}",-0.7000000000000001,1,0.5798890590667725,0,"(1, 2)",493,0,False,False,True,False,False,True
494,0,"{'mean': -0.29999999999999999, 'sd': 0.37}",-0.7000000000000001,1,0.5975089073181152,0,"(1, 3)",494,0,True,False,True,False,False,True
495,0,"{'mean': -0.29999999999999999, 'sd': 0.37}",0.30000000000000004,2,0.8925588130950928,0,"(0, 2)",495,0,False,False,False,True,True,False
496,0,"{'mean': -0.29999999999999999, 'sd': 0.37}",-0.30000000000000004,2,1.3113059997558594,0,"(0, 3)",496,0,True,False,False,False,False,False
497,0,"{'mean': -0.29999999999999999, 'sd': 0.37}",-0.30000000000000004,0,0.5582408905029297,0,"(0, 3)",497,0,False,False,True,False,True,True
498,0,"{'mean': -0.29999999999999999, 'sd': 0.37}",-1.0,0,0.4646129608154297,0,"(0, 3)",498,0,True,False,True,False,False,True
499,0,"{'mean': -0.29999999999999999, 'sd': 0.37}",-0.10000000000000009,1,0.5862030982971191,0,"(1, 3)",499,0,False,False,True,False,False,True
500,0,"{'mean': -0.29999999999999999, 'sd': 0.37}",0.5,3,1.0334351062774658,0,"(0, 3)",500,0,False,False,False,True,True,False
501,0,"{'mean': -0.29999999999999999, 'sd': 0.37}",-0.30000000000000004,0,0.948016881942749,0,"(0, 2)",501,0,False,False,True,False,True,True
502,0,"{'mean': -0.29999999999999999, 'sd': 0.37}",-0.5,1,0.6877360343933105,0,"(1, 3)",502,0,False,False,True,False,False,True
503,0,"{'mean': -0.29999999999999999, 'sd': 0.37}",-0.9000000000000001,0,0.3658919334411621,0,"(0, 2)",503,0,False,False,True,False,False,True
504,0,"{'mean': 0.29999999999999999, 'sd': 0.37}",0.10000000000000009,3,0.9644789695739746,1,"(1, 3)",504,1,False,True,False,True,True,True
505,0,"{'mean': 0.29999999999999999, 'sd': 0.37}",-0.30000000000000004,0,0.8337230682373047,1,"(0, 3)",505,1,False,False,True,False,True,False
506,0,"{'mean': 0.29999999999999999, 'sd': 0.37}",0.10000000000000009,2,0.8179318904876709,1,"(0, 2)",506,1,False,False,False,True,True,True
507,0,"{'mean': -0.29999999999999999, 'sd': 0.37}",-0.10000000000000009,3,0.7830641269683838,0,"(1, 3)",507,0,False,True,False,True,False,False
508,0,"{'mean': -0.29999999999999999, 'sd': 0.37}",-0.7000000000000001,1,0.8651409149169922,0,"(1, 2)",508,0,False,False,True,False,True,True
509,0,"{'mean': -0.29999999999999999, 'sd': 0.37}",-0.30000000000000004,1,0.5634069442749023,0,"(1, 2)",509,0,True,False,True,False,False,True
510,0,"{'mean': -0.29999999999999999, 'sd': 0.37}",-0.10000000000000009,1,0.476809024810791,0,"(1, 3)",510,0,True,False,True,False,False,True
511,0,"{'mean': -0.29999999999999999, 'sd': 0.37}",-0.5,1,0.47125697135925293,0,"(1, 3)",511,0,True,False,True,False,False,True
512,0,"{'mean': -0.29999999999999999, 'sd': 0.37}",-0.9000000000000001,0,0.6569268703460693,0,"(0, 3)",512,0,False,False,True,False,False,True
513,0,"{'mean': -0.29999999999999999, 'sd': 0.37}",-0.5,0,0.5122740268707275,0,"(1, 2)",513,0,True,False,False,False,True,False
514,0,"{'mean': -0.29999999999999999, 'sd': 0.37}",-0.30000000000000004,0,0.5700290203094482,0,"(0, 2)",514,0,True,False,True,False,True,True
515,0,"{'mean': -0.29999999999999999, 'sd': 0.37}",-0.30000000000000004,0,0.550055980682373,0,"(0, 2)",515,0,True,False,True,False,False,True
516,0,"{'mean': -0.29999999999999999, 'sd': 0.37}",-0.10000000000000009,0,0.7879760265350342,0,"(0, 2)",516,0,True,False,True,False,False,True
517,0,"{'mean': -0.29999999999999999, 'sd': 0.37}",0.30000000000000004,0,0.4332389831542969,0,"(0, 2)",517,0,True,False,True,False,False,True
518,0,"{'mean': -0.29999999999999999, 'sd': 0.37}",-0.10000000000000009,3,1.1226990222930908,0,"(0, 2)",518,0,False,False,False,False,True,False
519,0,"{'mean': -0.29999999999999999, 'sd': 0.37}",-0.5,0,0.7678699493408203,0,"(0, 2)",519,0,False,False,True,False,True,True
520,0,"{'mean': -0.29999999999999999, 'sd': 0.37}",-0.7000000000000001,1,0.6510097980499268,0,"(1, 2)",520,0,False,False,True,False,False,True
521,0,"{'mean': -0.29999999999999999, 'sd': 0.37}",-0.7000000000000001,1,0.5281472206115723,0,"(1, 3)",521,0,True,False,True,False,False,True
522,0,"{'mean': -0.29999999999999999, 'sd': 0.37}",-0.30000000000000004,1,0.8532938957214355,0,"(1, 3)",522,0,True,False,True,False,False,True
523,0,"{'mean': -0.29999999999999999, 'sd': 0.37}",-0.30000000000000004,1,0.372020959854126,0,"(1, 3)",523,0,True,False,True,False,False,True
524,0,"{'mean': -0.29999999999999999, 'sd': 0.37}",-0.10000000000000009,0,0.5590691566467285,0,"(0, 2)",524,0,False,False,True,False,False,True
525,0,"{'mean': -0.29999999999999999, 'sd': 0.37}",0.30000000000000004,3,0.9308228492736816,0,"(0, 3)",525,0,False,False,False,True,True,False
526,0,"{'mean': -0.29999999999999999, 'sd': 0.37}",0.10000000000000009,3,0.8209929466247559,0,"(1, 3)",526,0,True,False,False,True,False,False
527,0,"{'mean': -0.29999999999999999, 'sd': 0.37}",-1.0,0,0.6516680717468262,0,"(0, 2)",527,0,False,False,True,False,True,True
528,0,"{'mean': -0.29999999999999999, 'sd': 0.37}",0.10000000000000009,0,0.8504960536956787,0,"(0, 2)",528,0,True,False,True,False,False,True
529,0,"{'mean': -0.29999999999999999, 'sd': 0.37}",-0.30000000000000004,0,0.7466609477996826,0,"(0, 3)",529,0,True,False,True,False,False,True
530,0,"{'mean': -0.29999999999999999, 'sd': 0.37}",-0.10000000000000009,1,0.8755090236663818,0,"(1, 3)",530,0,False,False,True,False,False,True
531,0,"{'mean': -0.29999999999999999, 'sd': 0.37}",-0.7000000000000001,1,0.6096570491790771,0,"(1, 3)",531,0,True,False,True,False,False,True
532,0,"{'mean': -0.29999999999999999, 'sd': 0.37}",-0.10000000000000009,0,0.880558967590332,0,"(0, 2)",532,0,False,False,True,False,False,True
533,0,"{'mean': -0.29999999999999999, 'sd': 0.37}",-0.5,1,0.5761501789093018,0,"(1, 2)",533,0,False,False,True,False,False,True
534,0,"{'mean': 0.29999999999999999, 'sd': 0.37}",-0.10000000000000009,1,0.5844089984893799,1,"(1, 2)",534,1,True,True,True,False,False,False
535,0,"{'mean': 0.29999999999999999, 'sd': 0.37}",-0.30000000000000004,1,0.5863978862762451,1,"(1, 3)",535,1,True,False,True,False,False,False
536,0,"{'mean': 0.29999999999999999, 'sd': 0.37}",0.10000000000000009,3,0.9931650161743164,1,"(0, 3)",536,1,False,False,False,True,True,True
537,0,"{'mean': 0.29999999999999999, 'sd': 0.37}",0.30000000000000004,2,0.31395506858825684,1,"(0, 2)",537,1,False,False,False,True,False,True
538,0,"{'mean': 0.29999999999999999, 'sd': 0.37}",0.30000000000000004,2,0.28789806365966797,1,"(0, 2)",538,1,True,False,False,True,False,True
539,0,"{'mean': 0.29999999999999999, 'sd': 0.37}",-0.10000000000000009,3,0.5976870059967041,1,"(1, 3)",539,1,False,False,False,True,False,True
540,0,"{'mean': 0.29999999999999999, 'sd': 0.37}",0.5,2,0.5737578868865967,1,"(0, 2)",540,1,False,False,False,True,False,True
541,0,"{'mean': 0.29999999999999999, 'sd': 0.37}",0.8999999999999999,2,0.4919769763946533,1,"(0, 2)",541,1,True,False,False,True,False,True
542,0,"{'mean': 0.29999999999999999, 'sd': 0.37}",0.7,3,0.6737480163574219,1,"(0, 3)",542,1,False,False,False,True,False,True
543,0,"{'mean': 0.29999999999999999, 'sd': 0.37}",0.5,2,0.5467100143432617,1,"(0, 2)",543,1,False,False,False,True,False,True
544,0,"{'mean': 0.29999999999999999, 'sd': 0.37}",0.5,2,0.9085221290588379,1,"(1, 2)",544,1,True,False,False,True,False,True
545,0,"{'mean': 0.29999999999999999, 'sd': 0.37}",0.30000000000000004,2,0.5127201080322266,1,"(0, 3)",545,1,True,False,False,False,False,False
546,0,"{'mean': 0.29999999999999999, 'sd': 0.37}",0.5,3,0.4469869136810303,1,"(0, 3)",546,1,False,False,False,True,False,True
547,0,"{'mean': -0.29999999999999999, 'sd': 0.37}",-0.7000000000000001,0,0.985123872756958,0,"(0, 3)",547,0,False,True,True,False,True,True
548,0,"{'mean': -0.29999999999999999, 'sd': 0.37}",-0.5,0,0.7564048767089844,0,"(0, 2)",548,0,True,False,True,False,False,True
549,0,"{'mean': -0.29999999999999999, 'sd': 0.37}",-0.30000000000000004,0,0.4647998809814453,0,"(0, 2)",549,0,True,False,True,False,False,True
550,0,"{'mean': -0.29999999999999999, 'sd': 0.37}",-0.5,1,0.43695497512817383,0,"(1, 3)",550,0,False,False,True,False,False,True
551,0,"{'mean': -0.29999999999999999, 'sd': 0.37}",-0.5,0,0.7808701992034912,0,"(0, 3)",551,0,False,False,True,False,False,True
552,0,"{'mean': -0.29999999999999999, 'sd': 0.37}",-0.30000000000000004,1,0.7623448371887207,0,"(1, 3)",552,0,False,False,True,False,False,True
553,0,"{'mean': -0.29999999999999999, 'sd': 0.37}",0.10000000000000009,0,0.6305701732635498,0,"(0, 3)",553,0,False,False,True,False,False,True
554,0,"{'mean': -0.29999999999999999, 'sd': 0.37}",-0.10000000000000009,1,1.2108500003814697,0,"(1, 2)",554,0,False,False,True,False,False,True
555,0,"{'mean': -0.29999999999999999, 'sd': 0.37}",-0.5,1,0.6654160022735596,0,"(1, 3)",555,0,True,False,True,False,False,True
557,0,"{'mean': 0.29999999999999999, 'sd': 0.37}",0.5,3,0.769913911819458,1,"(0, 3)",557,1,False,True,False,True,True,True
558,0,"{'mean': 0.29999999999999999, 'sd': 0.37}",0.30000000000000004,2,0.732511043548584,1,"(0, 2)",558,1,False,False,False,True,False,True
559,0,"{'mean': 0.29999999999999999, 'sd': 0.37}",-0.10000000000000009,2,0.4921441078186035,1,"(0, 2)",559,1,True,False,False,True,False,True
560,0,"{'mean': 0.29999999999999999, 'sd': 0.37}",0.30000000000000004,3,0.7061240673065186,1,"(0, 3)",560,1,False,False,False,True,False,True
561,0,"{'mean': -0.29999999999999999, 'sd': 0.37}",-0.5,1,0.9011831283569336,0,"(1, 2)",561,0,False,True,True,False,True,True
562,0,"{'mean': -0.29999999999999999, 'sd': 0.37}",-0.10000000000000009,1,0.5556240081787109,0,"(1, 2)",562,0,True,False,True,False,False,True
563,0,"{'mean': -0.29999999999999999, 'sd': 0.37}",-0.30000000000000004,1,0.6734168529510498,0,"(1, 3)",563,0,True,False,True,False,False,True
564,0,"{'mean': -0.29999999999999999, 'sd': 0.37}",0.30000000000000004,0,0.5120208263397217,0,"(0, 2)",564,0,False,False,True,False,False,True
565,0,"{'mean': -0.29999999999999999, 'sd': 0.37}",-0.5,1,0.616041898727417,0,"(1, 3)",565,0,False,False,True,False,False,True
566,0,"{'mean': -0.29999999999999999, 'sd': 0.37}",-0.5,0,0.5145750045776367,0,"(0, 2)",566,0,False,False,True,False,False,True
567,0,"{'mean': -0.29999999999999999, 'sd': 0.37}",0.10000000000000009,3,1.064551830291748,0,"(0, 3)",567,0,False,False,False,True,True,False
568,0,"{'mean': 0.29999999999999999, 'sd': 0.37}",0.7,3,0.6050140857696533,1,"(0, 3)",568,1,True,True,False,True,False,True
569,0,"{'mean': 0.29999999999999999, 'sd': 0.37}",-0.30000000000000004,0,0.6878690719604492,1,"(0, 3)",569,1,False,False,True,False,True,False
570,0,"{'mean': 0.29999999999999999, 'sd': 0.37}",0.7,3,0.6241121292114258,1,"(0, 3)",570,1,False,False,False,True,True,True
571,0,"{'mean': -0.29999999999999999, 'sd': 0.37}",-0.5,1,0.5445971488952637,0,"(1, 2)",571,0,False,True,True,False,True,True
572,0,"{'mean': -0.29999999999999999, 'sd': 0.37}",-0.30000000000000004,0,0.9366359710693359,0,"(0, 2)",572,0,False,False,True,False,False,True
573,0,"{'mean': -0.29999999999999999, 'sd': 0.37}",-0.10000000000000009,0,0.5610039234161377,0,"(0, 2)",573,0,True,False,True,False,False,True
574,0,"{'mean': 0.29999999999999999, 'sd': 0.37}",0.10000000000000009,1,0.5617220401763916,1,"(1, 2)",574,1,False,True,True,False,False,False
575,0,"{'mean': 0.29999999999999999, 'sd': 0.37}",0.10000000000000009,0,0.5886538028717041,1,"(0, 2)",575,1,False,False,True,False,False,False
576,0,"{'mean': -0.29999999999999999, 'sd': 0.37}",-0.10000000000000009,0,0.5574040412902832,0,"(0, 2)",576,0,True,True,True,False,False,True
577,0,"{'mean': -0.29999999999999999, 'sd': 0.37}",-0.5,1,0.7042489051818848,0,"(1, 2)",577,0,False,False,True,False,False,True
578,0,"{'mean': -0.29999999999999999, 'sd': 0.37}",-0.10000000000000009,0,0.6633670330047607,0,"(0, 2)",578,0,False,False,True,False,False,True
579,0,"{'mean': -0.29999999999999999, 'sd': 0.37}",-0.5,3,1.0027649402618408,0,"(1, 3)",579,0,False,False,False,True,True,False
580,0,"{'mean': -0.29999999999999999, 'sd': 0.37}",-0.30000000000000004,1,0.7322890758514404,0,"(1, 2)",580,0,False,False,True,False,True,True
581,0,"{'mean': -0.29999999999999999, 'sd': 0.37}",-0.9000000000000001,1,0.6676549911499023,0,"(0, 3)",581,0,True,False,False,False,True,False
582,0,"{'mean': -0.29999999999999999, 'sd': 0.37}",-0.5,0,0.4498419761657715,0,"(0, 3)",582,0,False,False,True,False,True,True
583,0,"{'mean': -0.29999999999999999, 'sd': 0.37}",-0.30000000000000004,0,0.5794720649719238,0,"(0, 3)",583,0,True,False,True,False,False,True
584,0,"{'mean': -0.29999999999999999, 'sd': 0.37}",-0.5,0,0.42161083221435547,0,"(0, 3)",584,0,True,False,True,False,False,True
585,0,"{'mean': 0.29999999999999999, 'sd': 0.37}",0.30000000000000004,2,0.862084150314331,1,"(0, 2)",585,1,False,True,False,True,True,True
586,0,"{'mean': 0.29999999999999999, 'sd': 0.37}",0.5,3,1.2960059642791748,1,"(1, 2)",586,1,False,False,False,False,False,False
587,0,"{'mean': 0.29999999999999999, 'sd': 0.37}",-0.10000000000000009,3,0.6894011497497559,1,"(0, 3)",587,1,True,False,False,True,False,True
588,0,"{'mean': 0.29999999999999999, 'sd': 0.37}",0.5,2,0.4106631278991699,1,"(0, 2)",588,1,False,False,False,True,False,True
589,0,"{'mean': 0.29999999999999999, 'sd': 0.37}",0.5,2,0.49176597595214844,1,"(0, 2)",589,1,True,False,False,True,False,True
590,0,"{'mean': 0.29999999999999999, 'sd': 0.37}",0.7,2,0.527076005935669,1,"(0, 2)",590,1,True,False,False,True,False,True
591,0,"{'mean': 0.29999999999999999, 'sd': 0.37}",-0.30000000000000004,1,0.7603259086608887,1,"(0, 3)",591,1,False,False,False,False,False,False
592,0,"{'mean': 0.29999999999999999, 'sd': 0.37}",-0.5,0,0.32710909843444824,1,"(0, 3)",592,1,False,False,True,False,True,False
593,0,"{'mean': 0.29999999999999999, 'sd': 0.37}",0.8999999999999999,2,0.9592478275299072,1,"(0, 2)",593,1,False,False,False,True,True,True
594,0,"{'mean': 0.29999999999999999, 'sd': 0.37}",0.7,2,0.4514307975769043,1,"(0, 2)",594,1,True,False,False,True,False,True
595,0,"{'mean': 0.29999999999999999, 'sd': 0.37}",0.30000000000000004,2,0.4123718738555908,1,"(0, 2)",595,1,True,False,False,True,False,True
596,0,"{'mean': 0.29999999999999999, 'sd': 0.37}",0.30000000000000004,3,0.5706970691680908,1,"(1, 2)",596,1,False,False,False,False,False,False
597,0,"{'mean': 0.29999999999999999, 'sd': 0.37}",0.10000000000000009,2,0.547846794128418,1,"(1, 2)",597,1,False,False,False,True,False,True
598,0,"{'mean': 0.29999999999999999, 'sd': 0.37}",-0.5,0,1.0979981422424316,1,"(0, 2)",598,1,False,False,True,False,True,False
599,0,"{'mean': 0.29999999999999999, 'sd': 0.37}",-0.10000000000000009,1,1.474755048751831,1,"(0, 3)",599,1,False,False,False,False,True,False
600,0,"{'mean': 0.29999999999999999, 'sd': 0.37}",0.5,3,1.064622163772583,1,"(1, 3)",600,1,False,False,False,True,False,True
601,0,"{'mean': 0.29999999999999999, 'sd': 0.37}",0.30000000000000004,3,1.281290054321289,1,"(1, 2)",601,1,True,False,False,False,False,False
602,0,"{'mean': 0.29999999999999999, 'sd': 0.37}",0.10000000000000009,2,0.4564220905303955,1,"(0, 2)",602,1,False,False,False,True,False,True
603,0,"{'mean': 0.29999999999999999, 'sd': 0.37}",0.10000000000000009,2,0.8668458461761475,1,"(1, 2)",603,1,True,False,False,True,False,True
604,0,"{'mean': 0.29999999999999999, 'sd': 0.37}",-0.10000000000000009,2,1.2295739650726318,1,"(0, 3)",604,1,True,False,False,False,False,False
605,0,"{'mean': 0.29999999999999999, 'sd': 0.37}",0.10000000000000009,3,0.5649828910827637,1,"(1, 3)",605,1,False,False,False,True,False,True
606,0,"{'mean': 0.29999999999999999, 'sd': 0.37}",1.0,2,0.5962190628051758,1,"(0, 2)",606,1,False,False,False,True,False,True
607,0,"{'mean': 0.29999999999999999, 'sd': 0.37}",0.30000000000000004,2,1.1900501251220703,1,"(1, 2)",607,1,True,False,False,True,False,True
608,0,"{'mean': 0.29999999999999999, 'sd': 0.37}",0.7,3,0.7283611297607422,1,"(1, 3)",608,1,False,False,False,True,False,True
609,0,"{'mean': 0.29999999999999999, 'sd': 0.37}",-0.30000000000000004,1,1.1187419891357422,1,"(1, 2)",609,1,False,False,True,False,True,False
610,0,"{'mean': 0.29999999999999999, 'sd': 0.37}",0.5,3,0.9815528392791748,1,"(1, 3)",610,1,False,False,False,True,True,True
611,0,"{'mean': 0.29999999999999999, 'sd': 0.37}",0.10000000000000009,2,0.6041851043701172,1,"(0, 2)",611,1,False,False,False,True,False,True
612,0,"{'mean': -0.29999999999999999, 'sd': 0.37}",-0.30000000000000004,2,0.46764206886291504,0,"(0, 2)",612,0,True,True,False,True,False,False
613,0,"{'mean': -0.29999999999999999, 'sd': 0.37}",0.10000000000000009,3,0.9149730205535889,0,"(0, 3)",613,0,False,False,False,True,False,False
614,0,"{'mean': -0.29999999999999999, 'sd': 0.37}",-0.9000000000000001,1,0.9366030693054199,0,"(1, 2)",614,0,False,False,True,False,True,True
615,0,"{'mean': -0.29999999999999999, 'sd': 0.37}",-0.5,1,0.563323974609375,0,"(1, 2)",615,0,True,False,True,False,False,True
616,0,"{'mean': -0.29999999999999999, 'sd': 0.37}",-0.10000000000000009,0,1.4122710227966309,0,"(0, 3)",616,0,False,False,True,False,False,True
617,0,"{'mean': -0.29999999999999999, 'sd': 0.37}",-0.7000000000000001,1,0.5691819190979004,0,"(1, 2)",617,0,False,False,True,False,False,True
618,0,"{'mean': -0.29999999999999999, 'sd': 0.37}",-0.5,1,0.54156494140625,0,"(1, 3)",618,0,True,False,True,False,False,True
619,0,"{'mean': -0.29999999999999999, 'sd': 0.37}",-0.5,1,0.601377010345459,0,"(1, 2)",619,0,True,False,True,False,False,True
620,0,"{'mean': -0.29999999999999999, 'sd': 0.37}",-0.10000000000000009,0,0.5607209205627441,0,"(0, 2)",620,0,False,False,True,False,False,True
621,0,"{'mean': -0.29999999999999999, 'sd': 0.37}",-0.5,0,0.6157510280609131,0,"(0, 3)",621,0,True,False,True,False,False,True
622,0,"{'mean': -0.29999999999999999, 'sd': 0.37}",-0.9000000000000001,0,0.5121901035308838,0,"(0, 2)",622,0,True,False,True,False,False,True
623,0,"{'mean': -0.29999999999999999, 'sd': 0.37}",-0.30000000000000004,1,0.67087721824646,0,"(1, 3)",623,0,False,False,True,False,False,True
624,0,"{'mean': 0.29999999999999999, 'sd': 0.37}",0.10000000000000009,1,1.0676400661468506,1,"(1, 3)",624,1,True,True,True,False,False,False
625,0,"{'mean': 0.29999999999999999, 'sd': 0.37}",0.30000000000000004,1,0.5031838417053223,1,"(1, 3)",625,1,True,False,True,False,False,False
626,0,"{'mean': 0.29999999999999999, 'sd': 0.37}",0.10000000000000009,3,0.5555911064147949,1,"(1, 3)",626,1,False,False,False,True,True,True
627,0,"{'mean': 0.29999999999999999, 'sd': 0.37}",-0.10000000000000009,2,0.5017061233520508,1,"(0, 2)",627,1,False,False,False,True,False,True
628,0,"{'mean': 0.29999999999999999, 'sd': 0.37}",0.5,2,0.732370138168335,1,"(1, 2)",628,1,True,False,False,True,False,True
629,0,"{'mean': 0.29999999999999999, 'sd': 0.37}",0.10000000000000009,2,0.687938928604126,1,"(1, 2)",629,1,True,False,False,True,False,True
630,0,"{'mean': 0.29999999999999999, 'sd': 0.37}",0.30000000000000004,3,1.001479148864746,1,"(1, 3)",630,1,False,False,False,True,False,True
631,0,"{'mean': 0.29999999999999999, 'sd': 0.37}",-0.10000000000000009,2,0.901176929473877,1,"(1, 2)",631,1,False,False,False,True,False,True
632,0,"{'mean': 0.29999999999999999, 'sd': 0.37}",0.30000000000000004,3,0.46593809127807617,1,"(1, 3)",632,1,False,False,False,True,False,True
633,0,"{'mean': 0.29999999999999999, 'sd': 0.37}",0.30000000000000004,3,0.4500091075897217,1,"(1, 3)",633,1,True,False,False,True,False,True
634,0,"{'mean': 0.29999999999999999, 'sd': 0.37}",0.30000000000000004,3,0.552872896194458,1,"(0, 3)",634,1,True,False,False,True,False,True
635,0,"{'mean': 0.29999999999999999, 'sd': 0.37}",1.0,2,0.4462289810180664,1,"(1, 2)",635,1,False,False,False,True,False,True
636,0,"{'mean': 0.29999999999999999, 'sd': 0.37}",0.7,2,0.4737668037414551,1,"(0, 3)",636,1,True,False,False,False,False,False
637,0,"{'mean': 0.29999999999999999, 'sd': 0.37}",0.8999999999999999,2,0.4365198612213135,1,"(0, 2)",637,1,True,False,False,True,False,True
638,0,"{'mean': 0.29999999999999999, 'sd': 0.37}",0.8999999999999999,3,0.5255160331726074,1,"(0, 3)",638,1,False,False,False,True,False,True
639,0,"{'mean': -0.29999999999999999, 'sd': 0.37}",-0.10000000000000009,2,0.7365388870239258,0,"(0, 2)",639,0,False,True,False,True,False,False
640,0,"{'mean': -0.29999999999999999, 'sd': 0.37}",0.30000000000000004,3,0.5539231300354004,0,"(1, 3)",640,0,False,False,False,True,False,False
641,0,"{'mean': -0.29999999999999999, 'sd': 0.37}",-0.5,1,1.191391944885254,0,"(1, 3)",641,0,False,False,True,False,True,True
642,0,"{'mean': -0.29999999999999999, 'sd': 0.37}",-1.0,0,1.072077989578247,0,"(0, 3)",642,0,False,False,True,False,False,True
643,0,"{'mean': -0.29999999999999999, 'sd': 0.37}",-0.30000000000000004,1,0.5339438915252686,0,"(1, 3)",643,0,False,False,True,False,False,True
644,0,"{'mean': -0.29999999999999999, 'sd': 0.37}",0.10000000000000009,0,0.49507617950439453,0,"(0, 3)",644,0,False,False,True,False,False,True
645,0,"{'mean': -0.29999999999999999, 'sd': 0.37}",-0.5,1,0.5195868015289307,0,"(1, 3)",645,0,False,False,True,False,False,True
646,0,"{'mean': -0.29999999999999999, 'sd': 0.37}",0.10000000000000009,1,0.6918549537658691,0,"(1, 3)",646,0,True,False,True,False,False,True
647,0,"{'mean': -0.29999999999999999, 'sd': 0.37}",-0.30000000000000004,0,0.6812729835510254,0,"(0, 2)",647,0,False,False,True,False,False,True
648,0,"{'mean': -0.29999999999999999, 'sd': 0.37}",-0.10000000000000009,0,0.5125761032104492,0,"(0, 2)",648,0,True,False,True,False,False,True
649,0,"{'mean': 0.29999999999999999, 'sd': 0.37}",0.10000000000000009,0,0.4809291362762451,1,"(0, 2)",649,1,True,True,True,False,False,False
650,0,"{'mean': 0.29999999999999999, 'sd': 0.37}",0.5,3,0.7791998386383057,1,"(1, 3)",650,1,False,False,False,True,True,True
651,0,"{'mean': -0.29999999999999999, 'sd': 0.37}",-0.10000000000000009,1,0.9431660175323486,0,"(1, 2)",651,0,False,True,True,False,True,True
652,0,"{'mean': -0.29999999999999999, 'sd': 0.37}",-0.10000000000000009,1,0.616278886795044,0,"(1, 3)",652,0,True,False,True,False,False,True
653,0,"{'mean': -0.29999999999999999, 'sd': 0.37}",0.30000000000000004,3,1.253413200378418,0,"(0, 3)",653,0,False,False,False,True,True,False
654,0,"{'mean': -0.29999999999999999, 'sd': 0.37}",-0.10000000000000009,1,1.2311069965362549,0,"(1, 2)",654,0,False,False,True,False,True,True
655,0,"{'mean': -0.29999999999999999, 'sd': 0.37}",-0.5,1,0.5739939212799072,0,"(1, 3)",655,0,True,False,True,False,False,True
656,0,"{'mean': -0.29999999999999999, 'sd': 0.37}",0.30000000000000004,3,0.9691290855407715,0,"(0, 3)",656,0,False,False,False,True,True,False
657,0,"{'mean': -0.29999999999999999, 'sd': 0.37}",0.30000000000000004,2,0.8369970321655273,0,"(1, 2)",657,0,False,False,False,True,False,False
658,0,"{'mean': -0.29999999999999999, 'sd': 0.37}",0.30000000000000004,3,0.8107728958129883,0,"(0, 3)",658,0,False,False,False,True,False,False
659,0,"{'mean': -0.29999999999999999, 'sd': 0.37}",0.10000000000000009,3,1.0203969478607178,0,"(0, 3)",659,0,True,False,False,True,False,False
660,0,"{'mean': -0.29999999999999999, 'sd': 0.37}",-0.5,1,0.7873640060424805,0,"(1, 2)",660,0,False,False,True,False,True,True
661,0,"{'mean': -0.29999999999999999, 'sd': 0.37}",-0.10000000000000009,0,0.9581949710845947,0,"(0, 3)",661,0,False,False,True,False,False,True
662,0,"{'mean': 0.29999999999999999, 'sd': 0.37}",0.5,3,1.0959079265594482,1,"(0, 3)",662,1,False,True,False,True,True,True
663,0,"{'mean': 0.29999999999999999, 'sd': 0.37}",0.30000000000000004,3,0.7305150032043457,1,"(1, 3)",663,1,True,False,False,True,False,True
664,0,"{'mean': 0.29999999999999999, 'sd': 0.37}",-0.10000000000000009,3,0.6760339736938477,1,"(1, 3)",664,1,True,False,False,True,False,True
665,0,"{'mean': 0.29999999999999999, 'sd': 0.37}",0.5,2,0.5164010524749756,1,"(1, 2)",665,1,False,False,False,True,False,True
666,0,"{'mean': 0.29999999999999999, 'sd': 0.37}",-0.10000000000000009,2,1.1708099842071533,1,"(0, 2)",666,1,True,False,False,True,False,True
667,0,"{'mean': 0.29999999999999999, 'sd': 0.37}",1.0,2,0.48099803924560547,1,"(0, 2)",667,1,True,False,False,True,False,True
668,0,"{'mean': 0.29999999999999999, 'sd': 0.37}",0.8999999999999999,3,0.49762797355651855,1,"(1, 3)",668,1,False,False,False,True,False,True
