trial_count,FBDuration,actualFBOnsetTime,c_dis,context,response,rt,state,stim,trial_count,ts,rep_resp,switch,con_shape,con_orient,subj_switch,correct
1,0.5,0.5011379718780518,"{'mean': -0.29999999999999999, 'sd': 0.37}",-0.5,1,0.9282369613647461,0,"(1, 3)",1,0,False,False,True,False,True,True
2,0.5,0.5002529621124268,"{'mean': -0.29999999999999999, 'sd': 0.37}",-0.10000000000000009,3,0.5693228244781494,0,"(1, 2)",2,0,False,False,False,False,True,False
3,0.5,0.5010440349578857,"{'mean': -0.29999999999999999, 'sd': 0.37}",-0.30000000000000004,1,0.36476707458496094,0,"(1, 3)",3,0,False,False,True,False,True,True
4,0.5,0.5012578964233398,"{'mean': -0.29999999999999999, 'sd': 0.37}",-0.10000000000000009,0,0.4673299789428711,0,"(0, 3)",4,0,False,False,True,False,False,True
5,0.5,0.5010759830474854,"{'mean': -0.29999999999999999, 'sd': 0.37}",-0.30000000000000004,0,0.5197300910949707,0,"(1, 3)",5,0,True,False,False,False,True,False
6,0.5,0.5011429786682129,"{'mean': -0.29999999999999999, 'sd': 0.37}",-0.10000000000000009,2,0.5522429943084717,0,"(1, 2)",6,0,False,False,False,True,False,False
7,0.5,0.5010819435119629,"{'mean': -0.29999999999999999, 'sd': 0.37}",-0.7000000000000001,0,0.6146340370178223,0,"(0, 3)",7,0,False,False,True,False,True,True
8,0.5,0.5010800361633301,"{'mean': -0.29999999999999999, 'sd': 0.37}",-0.10000000000000009,1,0.3459630012512207,0,"(1, 2)",8,0,False,False,True,False,False,True
9,0.5,0.5009210109710693,"{'mean': -0.29999999999999999, 'sd': 0.37}",-0.5,0,0.4882829189300537,0,"(1, 2)",9,0,False,False,False,False,True,False
10,0.5,0.5011959075927734,"{'mean': -0.29999999999999999, 'sd': 0.37}",0.10000000000000009,1,0.367495059967041,0,"(1, 3)",10,0,False,False,True,False,True,True
11,0.5,0.5010740756988525,"{'mean': -0.29999999999999999, 'sd': 0.37}",-0.5,0,0.47652697563171387,0,"(0, 3)",11,0,False,False,True,False,False,True
12,0.5,0.5010719299316406,"{'mean': -0.29999999999999999, 'sd': 0.37}",-0.10000000000000009,0,0.5366220474243164,0,"(0, 3)",12,0,True,False,True,False,False,True
13,0.5,0.5010719299316406,"{'mean': -0.29999999999999999, 'sd': 0.37}",-0.30000000000000004,1,0.38413000106811523,0,"(1, 3)",13,0,False,False,True,False,False,True
14,0.5,0.5004160404205322,"{'mean': -0.29999999999999999, 'sd': 0.37}",-0.30000000000000004,1,0.35883116722106934,0,"(1, 3)",14,0,True,False,True,False,False,True
15,0.5,0.5011718273162842,"{'mean': -0.29999999999999999, 'sd': 0.37}",-0.5,1,0.3698859214782715,0,"(1, 3)",15,0,True,False,True,False,False,True
16,0.5,0.5012259483337402,"{'mean': -0.29999999999999999, 'sd': 0.37}",-0.10000000000000009,0,0.40143513679504395,0,"(0, 2)",16,0,False,False,True,False,False,True
17,0.5,0.5002319812774658,"{'mean': -0.29999999999999999, 'sd': 0.37}",0.5,1,0.6401739120483398,0,"(1, 2)",17,0,False,False,True,False,False,True
18,0.5,0.5002138614654541,"{'mean': -0.29999999999999999, 'sd': 0.37}",-0.5,0,0.4604830741882324,0,"(0, 2)",18,0,False,False,True,False,False,True
19,0.5,0.5011351108551025,"{'mean': -0.29999999999999999, 'sd': 0.37}",-0.7000000000000001,0,0.41463208198547363,0,"(0, 2)",19,0,True,False,True,False,False,True
20,0.5,0.5017650127410889,"{'mean': -0.29999999999999999, 'sd': 0.37}",0.10000000000000009,0,0.40174317359924316,0,"(0, 2)",20,0,True,False,True,False,False,True
21,0.5,0.5012218952178955,"{'mean': 0.29999999999999999, 'sd': 0.37}",0.30000000000000004,1,0.5069220066070557,1,"(1, 2)",21,1,False,True,True,False,False,False
22,0.5,0.5001509189605713,"{'mean': 0.29999999999999999, 'sd': 0.37}",0.10000000000000009,0,0.5154359340667725,1,"(0, 2)",22,1,False,False,True,False,False,False
23,0.5,0.5011370182037354,"{'mean': 0.29999999999999999, 'sd': 0.37}",0.10000000000000009,0,0.5278499126434326,1,"(1, 2)",23,1,True,False,False,False,True,False
24,0.5,0.5004580020904541,"{'mean': 0.29999999999999999, 'sd': 0.37}",-0.30000000000000004,0,0.39823007583618164,1,"(1, 3)",24,1,True,False,False,False,False,False
25,0.5,0.5011510848999023,"{'mean': 0.29999999999999999, 'sd': 0.37}",-0.30000000000000004,0,0.2747220993041992,1,"(0, 2)",25,1,True,False,True,False,True,False
26,0.5,0.5001938343048096,"{'mean': -0.29999999999999999, 'sd': 0.37}",-0.5,2,0.37891721725463867,0,"(0, 2)",26,0,False,True,False,True,True,False
27,0.5,0.5004880428314209,"{'mean': -0.29999999999999999, 'sd': 0.37}",-0.5,3,0.3605990409851074,0,"(1, 2)",27,0,False,False,False,False,False,False
28,0.5,0.500277042388916,"{'mean': -0.29999999999999999, 'sd': 0.37}",-0.30000000000000004,0,0.3422689437866211,0,"(0, 2)",28,0,False,False,True,False,True,True
29,0.5,0.5011758804321289,"{'mean': 0.29999999999999999, 'sd': 0.37}",0.5,1,0.33014893531799316,1,"(0, 2)",29,1,False,True,False,False,True,False
30,0.5,0.5068569183349609,"{'mean': 0.29999999999999999, 'sd': 0.37}",1.0,0,0.39970898628234863,1,"(0, 2)",30,1,False,False,True,False,True,False
31,0.5,0.500230073928833,"{'mean': 0.29999999999999999, 'sd': 0.37}",0.30000000000000004,0,0.32545018196105957,1,"(0, 3)",31,1,True,False,True,False,False,False
32,0.5,0.500438928604126,"{'mean': 0.29999999999999999, 'sd': 0.37}",-0.10000000000000009,0,0.33755993843078613,1,"(0, 3)",32,1,True,False,True,False,False,False
33,0.5,0.5011820793151855,"{'mean': 0.29999999999999999, 'sd': 0.37}",0.8999999999999999,1,0.34677886962890625,1,"(1, 3)",33,1,False,False,True,False,False,False
34,0.5,0.5005338191986084,"{'mean': 0.29999999999999999, 'sd': 0.37}",0.5,0,0.3472580909729004,1,"(0, 2)",34,1,False,False,True,False,False,False
35,0.5,0.5011758804321289,"{'mean': 0.29999999999999999, 'sd': 0.37}",0.5,1,0.275954008102417,1,"(1, 2)",35,1,False,False,True,False,False,False
36,0.5,0.501060962677002,"{'mean': 0.29999999999999999, 'sd': 0.37}",0.5,0,0.4350440502166748,1,"(0, 3)",36,1,False,False,True,False,False,False
37,0.5,0.5011880397796631,"{'mean': 0.29999999999999999, 'sd': 0.37}",0.8999999999999999,1,0.24309301376342773,1,"(1, 3)",37,1,False,False,True,False,False,False
38,0.5,0.5010688304901123,"{'mean': -0.29999999999999999, 'sd': 0.37}",0.30000000000000004,0,0.39139389991760254,0,"(0, 2)",38,0,False,True,True,False,False,True
39,0.5,0.501054048538208,"{'mean': 0.29999999999999999, 'sd': 0.37}",0.5,1,0.3885369300842285,1,"(1, 2)",39,1,False,True,True,False,False,False
40,0.5,0.501197099685669,"{'mean': 0.29999999999999999, 'sd': 0.37}",0.30000000000000004,1,0.40375709533691406,1,"(1, 3)",40,1,True,False,True,False,False,False
41,0.5,0.5044329166412354,"{'mean': 0.29999999999999999, 'sd': 0.37}",0.7,1,0.3069601058959961,1,"(1, 3)",41,1,True,False,True,False,False,False
42,0.5,0.5011229515075684,"{'mean': 0.29999999999999999, 'sd': 0.37}",0.7,0,0.28006696701049805,1,"(0, 2)",42,1,False,False,True,False,False,False
43,0.5,0.5011141300201416,"{'mean': 0.29999999999999999, 'sd': 0.37}",-0.30000000000000004,1,0.19062018394470215,1,"(0, 3)",43,1,False,False,False,False,True,False
44,0.5,0.5012118816375732,"{'mean': 0.29999999999999999, 'sd': 0.37}",0.8999999999999999,1,0.23259496688842773,1,"(1, 2)",44,1,True,False,True,False,True,False
45,0.5,0.5006790161132812,"{'mean': -0.29999999999999999, 'sd': 0.37}",0.30000000000000004,0,0.2912111282348633,0,"(0, 2)",45,0,False,True,True,False,False,True
46,0.5,0.5010449886322021,"{'mean': -0.29999999999999999, 'sd': 0.37}",-0.10000000000000009,1,0.27143001556396484,0,"(0, 2)",46,0,False,False,False,False,True,False
47,0.5,0.500817060470581,"{'mean': -0.29999999999999999, 'sd': 0.37}",-0.10000000000000009,1,0.2758650779724121,0,"(1, 3)",47,0,True,False,True,False,True,True
48,0.5,0.5002391338348389,"{'mean': -0.29999999999999999, 'sd': 0.37}",-0.10000000000000009,1,0.3250739574432373,0,"(0, 2)",48,0,True,False,False,False,True,False
49,0.5,0.5007190704345703,"{'mean': -0.29999999999999999, 'sd': 0.37}",-0.10000000000000009,0,0.32527899742126465,0,"(0, 3)",49,0,False,False,True,False,True,True
50,0.5,0.5010669231414795,"{'mean': -0.29999999999999999, 'sd': 0.37}",0.30000000000000004,1,0.29012107849121094,0,"(1, 2)",50,0,False,False,True,False,False,True
51,0.5,0.5011961460113525,"{'mean': -0.29999999999999999, 'sd': 0.37}",-0.30000000000000004,0,0.20045900344848633,0,"(0, 3)",51,0,False,False,True,False,False,True
52,0.5,0.5014500617980957,"{'mean': -0.29999999999999999, 'sd': 0.37}",-0.5,0,0.3472878932952881,0,"(0, 3)",52,0,True,False,True,False,False,True
53,0.5,0.5011241436004639,"{'mean': -0.29999999999999999, 'sd': 0.37}",-0.7000000000000001,0,0.36707496643066406,0,"(0, 2)",53,0,True,False,True,False,False,True
54,0.5,0.5011308193206787,"{'mean': -0.29999999999999999, 'sd': 0.37}",-0.5,0,0.38278698921203613,0,"(1, 2)",54,0,True,False,False,False,True,False
55,0.5,0.5012340545654297,"{'mean': -0.29999999999999999, 'sd': 0.37}",-0.30000000000000004,1,0.3496260643005371,0,"(1, 2)",55,0,False,False,True,False,True,True
56,0.5,0.501060962677002,"{'mean': -0.29999999999999999, 'sd': 0.37}",-0.5,0,0.2847418785095215,0,"(1, 3)",56,0,False,False,False,False,True,False
57,0.5,0.5012309551239014,"{'mean': -0.29999999999999999, 'sd': 0.37}",0.10000000000000009,1,0.3001110553741455,0,"(1, 2)",57,0,False,False,True,False,True,True
58,0.5,0.5008630752563477,"{'mean': -0.29999999999999999, 'sd': 0.37}",-0.5,0,0.3124048709869385,0,"(1, 3)",58,0,False,False,False,False,True,False
59,0.5,0.501223087310791,"{'mean': -0.29999999999999999, 'sd': 0.37}",-0.7000000000000001,1,0.27350401878356934,0,"(1, 3)",59,0,False,False,True,False,True,True
60,0.5,0.5011839866638184,"{'mean': -0.29999999999999999, 'sd': 0.37}",-0.5,0,0.2699429988861084,0,"(0, 3)",60,0,False,False,True,False,False,True
61,0.5,0.5011978149414062,"{'mean': -0.29999999999999999, 'sd': 0.37}",-0.30000000000000004,1,0.27907705307006836,0,"(0, 2)",61,0,False,False,False,False,True,False
62,0.5,0.5001840591430664,"{'mean': -0.29999999999999999, 'sd': 0.37}",-0.10000000000000009,0,0.5288121700286865,0,"(0, 2)",62,0,False,False,True,False,True,True
63,0.5,0.5004239082336426,"{'mean': -0.29999999999999999, 'sd': 0.37}",0.30000000000000004,1,0.24032306671142578,0,"(1, 3)",63,0,False,False,True,False,False,True
64,0.5,0.5010800361633301,"{'mean': -0.29999999999999999, 'sd': 0.37}",-0.30000000000000004,0,0.32436490058898926,0,"(0, 3)",64,0,False,False,True,False,False,True
65,0.5,0.5010719299316406,"{'mean': -0.29999999999999999, 'sd': 0.37}",0.5,1,0.22768402099609375,0,"(0, 2)",65,0,False,False,False,False,True,False
66,0.5,0.5004229545593262,"{'mean': -0.29999999999999999, 'sd': 0.37}",0.10000000000000009,1,0.3065450191497803,0,"(1, 2)",66,0,True,False,True,False,True,True
67,0.5,0.5008759498596191,"{'mean': -0.29999999999999999, 'sd': 0.37}",-0.9000000000000001,0,0.34108400344848633,0,"(1, 2)",67,0,False,False,False,False,True,False
68,0.5,0.5012130737304688,"{'mean': 0.29999999999999999, 'sd': 0.37}",0.10000000000000009,1,0.39143896102905273,1,"(1, 3)",68,1,False,True,True,False,True,False
69,0.5,0.5012519359588623,"{'mean': 0.29999999999999999, 'sd': 0.37}",0.30000000000000004,1,0.2707400321960449,1,"(1, 3)",69,1,True,False,True,False,False,False
70,0.5,0.5011270046234131,"{'mean': -0.29999999999999999, 'sd': 0.37}",-0.9000000000000001,0,0.3418858051300049,0,"(1, 3)",70,0,False,True,False,False,True,False
71,0.5,0.5010650157928467,"{'mean': -0.29999999999999999, 'sd': 0.37}",-0.10000000000000009,1,0.30527186393737793,0,"(1, 2)",71,0,False,False,True,False,True,True
72,0.5,0.5003888607025146,"{'mean': -0.29999999999999999, 'sd': 0.37}",0.10000000000000009,1,0.2991909980773926,0,"(1, 2)",72,0,True,False,True,False,False,True
73,0.5,0.5002539157867432,"{'mean': -0.29999999999999999, 'sd': 0.37}",-0.5,0,0.43568992614746094,0,"(0, 3)",73,0,False,False,True,False,False,True
74,0.5,0.5011279582977295,"{'mean': -0.29999999999999999, 'sd': 0.37}",-0.10000000000000009,1,0.29785799980163574,0,"(1, 3)",74,0,False,False,True,False,False,True
75,0.5,0.501072883605957,"{'mean': -0.29999999999999999, 'sd': 0.37}",-0.30000000000000004,1,0.32303500175476074,0,"(0, 2)",75,0,True,False,False,False,True,False
76,0.5,0.5011050701141357,"{'mean': -0.29999999999999999, 'sd': 0.37}",-0.7000000000000001,1,0.3648557662963867,0,"(1, 3)",76,0,True,False,True,False,True,True
77,0.5,0.5012040138244629,"{'mean': -0.29999999999999999, 'sd': 0.37}",0.10000000000000009,1,0.2815210819244385,0,"(1, 3)",77,0,True,False,True,False,False,True
78,0.5,0.5010848045349121,"{'mean': -0.29999999999999999, 'sd': 0.37}",-0.30000000000000004,0,0.29218292236328125,0,"(0, 3)",78,0,False,False,True,False,False,True
79,0.5,0.5003879070281982,"{'mean': -0.29999999999999999, 'sd': 0.37}",-0.30000000000000004,0,0.3515040874481201,0,"(1, 2)",79,0,True,False,False,False,True,False
80,0.5,0.5010662078857422,"{'mean': -0.29999999999999999, 'sd': 0.37}",-1.0,1,0.43590402603149414,0,"(1, 2)",80,0,False,False,True,False,True,True
81,0.5,0.5010879039764404,"{'mean': -0.29999999999999999, 'sd': 0.37}",-0.7000000000000001,1,0.2939920425415039,0,"(0, 2)",81,0,True,False,False,False,True,False
82,0.5,0.5011119842529297,"{'mean': -0.29999999999999999, 'sd': 0.37}",-0.10000000000000009,1,0.3355600833892822,0,"(0, 3)",82,0,True,False,False,False,False,False
83,0.5,0.5011420249938965,"{'mean': -0.29999999999999999, 'sd': 0.37}",-0.5,1,0.3744630813598633,0,"(1, 3)",83,0,True,False,True,False,True,True
84,0.5,0.501168966293335,"{'mean': -0.29999999999999999, 'sd': 0.37}",-1.0,0,0.3976168632507324,0,"(1, 2)",84,0,False,False,False,False,True,False
85,0.5,0.5003349781036377,"{'mean': -0.29999999999999999, 'sd': 0.37}",-0.5,1,0.4153709411621094,0,"(1, 2)",85,0,False,False,True,False,True,True
86,0.5,0.5012218952178955,"{'mean': -0.29999999999999999, 'sd': 0.37}",-0.5,1,0.42289304733276367,0,"(1, 3)",86,0,True,False,True,False,False,True
87,0.5,0.5011711120605469,"{'mean': -0.29999999999999999, 'sd': 0.37}",-0.7000000000000001,1,0.31879496574401855,0,"(1, 2)",87,0,True,False,True,False,False,True
88,0.5,0.5010371208190918,"{'mean': -0.29999999999999999, 'sd': 0.37}",-0.9000000000000001,0,0.3795299530029297,0,"(0, 2)",88,0,False,False,True,False,False,True
89,0.5,0.5010859966278076,"{'mean': -0.29999999999999999, 'sd': 0.37}",-0.5,1,0.31312108039855957,0,"(0, 3)",89,0,False,False,False,False,True,False
90,0.5,0.501086950302124,"{'mean': -0.29999999999999999, 'sd': 0.37}",-0.9000000000000001,1,0.3350558280944824,0,"(1, 3)",90,0,True,False,True,False,True,True
91,0.5,0.5002319812774658,"{'mean': -0.29999999999999999, 'sd': 0.37}",-0.10000000000000009,0,0.33890295028686523,0,"(0, 2)",91,0,False,False,True,False,False,True
92,0.5,0.5011868476867676,"{'mean': -0.29999999999999999, 'sd': 0.37}",-0.30000000000000004,1,0.30347108840942383,0,"(0, 3)",92,0,False,False,False,False,True,False
93,0.5,0.5010740756988525,"{'mean': 0.29999999999999999, 'sd': 0.37}",0.30000000000000004,0,0.347149133682251,1,"(0, 3)",93,1,False,True,True,False,True,False
94,0.5,0.5011379718780518,"{'mean': 0.29999999999999999, 'sd': 0.37}",0.5,0,0.43077611923217773,1,"(0, 2)",94,1,True,False,True,False,False,False
95,0.5,0.5010619163513184,"{'mean': 0.29999999999999999, 'sd': 0.37}",0.10000000000000009,1,0.4003620147705078,1,"(1, 3)",95,1,False,False,True,False,False,False
96,0.5,0.501136064529419,"{'mean': 0.29999999999999999, 'sd': 0.37}",1.0,1,0.3711669445037842,1,"(0, 3)",96,1,True,False,False,False,True,False
97,0.5,0.501107931137085,"{'mean': 0.29999999999999999, 'sd': 0.37}",0.7,1,0.32714414596557617,1,"(0, 2)",97,1,True,False,False,False,False,False
98,0.5,0.5012309551239014,"{'mean': 0.29999999999999999, 'sd': 0.37}",0.7,1,0.3377721309661865,1,"(1, 2)",98,1,True,False,True,False,True,False
99,0.5,0.5004699230194092,"{'mean': 0.29999999999999999, 'sd': 0.37}",0.30000000000000004,0,0.3333570957183838,1,"(1, 3)",99,1,False,False,False,False,True,False
100,0.5,0.5011680126190186,"{'mean': 0.29999999999999999, 'sd': 0.37}",-0.30000000000000004,0,0.611407995223999,1,"(1, 2)",100,1,True,False,False,False,False,False
101,0.5,0.5011060237884521,"{'mean': 0.29999999999999999, 'sd': 0.37}",0.5,1,0.46865391731262207,1,"(1, 3)",101,1,False,False,True,False,True,False
102,0.5,0.5006029605865479,"{'mean': -0.29999999999999999, 'sd': 0.37}",0.30000000000000004,1,0.2727320194244385,0,"(1, 3)",102,0,True,True,True,False,False,True
103,0.5,0.5011610984802246,"{'mean': -0.29999999999999999, 'sd': 0.37}",-0.7000000000000001,0,0.30513501167297363,0,"(0, 2)",103,0,False,False,True,False,False,True
104,0.5,0.5003001689910889,"{'mean': -0.29999999999999999, 'sd': 0.37}",-0.30000000000000004,0,0.35630011558532715,0,"(0, 3)",104,0,True,False,True,False,False,True
105,0.5,0.5004489421844482,"{'mean': -0.29999999999999999, 'sd': 0.37}",-0.30000000000000004,1,0.45301103591918945,0,"(0, 2)",105,0,False,False,False,False,True,False
106,0.5,0.5011670589447021,"{'mean': -0.29999999999999999, 'sd': 0.37}",-0.10000000000000009,1,0.33681797981262207,0,"(1, 3)",106,0,True,False,True,False,True,True
107,0.5,0.5012550354003906,"{'mean': -0.29999999999999999, 'sd': 0.37}",0.30000000000000004,1,0.6123878955841064,0,"(1, 3)",107,0,True,False,True,False,False,True
108,0.5,0.5012259483337402,"{'mean': -0.29999999999999999, 'sd': 0.37}",-0.7000000000000001,0,0.33258891105651855,0,"(0, 3)",108,0,False,False,True,False,False,True
109,0.5,0.5003979206085205,"{'mean': -0.29999999999999999, 'sd': 0.37}",-0.30000000000000004,0,0.33851003646850586,0,"(0, 2)",109,0,True,False,True,False,False,True
110,0.5,0.5011179447174072,"{'mean': -0.29999999999999999, 'sd': 0.37}",-0.30000000000000004,1,0.34267616271972656,0,"(1, 2)",110,0,False,False,True,False,False,True
111,0.5,0.5114438533782959,"{'mean': -0.29999999999999999, 'sd': 0.37}",0.30000000000000004,1,0.33175110816955566,0,"(1, 3)",111,0,True,False,True,False,False,True
112,0.5,0.5011179447174072,"{'mean': -0.29999999999999999, 'sd': 0.37}",-0.10000000000000009,0,0.45958495140075684,0,"(0, 3)",112,0,False,False,True,False,False,True
113,0.5,0.5011849403381348,"{'mean': 0.29999999999999999, 'sd': 0.37}",0.30000000000000004,0,0.33480000495910645,1,"(1, 3)",113,1,True,True,False,False,True,False
114,0.5,0.501121997833252,"{'mean': 0.29999999999999999, 'sd': 0.37}",0.30000000000000004,0,0.31053686141967773,1,"(0, 2)",114,1,True,False,True,False,True,False
115,0.5,0.501072883605957,"{'mean': 0.29999999999999999, 'sd': 0.37}",0.7,0,0.377269983291626,1,"(1, 3)",115,1,True,False,False,False,True,False
116,0.5,0.5009560585021973,"{'mean': 0.29999999999999999, 'sd': 0.37}",0.10000000000000009,0,0.39618992805480957,1,"(1, 2)",116,1,True,False,False,False,False,False
117,0.5,0.5002520084381104,"{'mean': 0.29999999999999999, 'sd': 0.37}",0.30000000000000004,0,0.30950307846069336,1,"(1, 3)",117,1,True,False,False,False,False,False
118,0.5,0.5011658668518066,"{'mean': -0.29999999999999999, 'sd': 0.37}",0.10000000000000009,0,0.29049205780029297,0,"(0, 3)",118,0,True,True,True,False,True,True
119,0.5,0.5001940727233887,"{'mean': -0.29999999999999999, 'sd': 0.37}",-0.30000000000000004,1,0.33774900436401367,0,"(1, 2)",119,0,False,False,True,False,False,True
120,0.5,0.5012049674987793,"{'mean': -0.29999999999999999, 'sd': 0.37}",0.30000000000000004,1,0.27489304542541504,0,"(1, 2)",120,0,True,False,True,False,False,True
121,0.5,0.5011250972747803,"{'mean': -0.29999999999999999, 'sd': 0.37}",-0.10000000000000009,0,0.48888587951660156,0,"(1, 3)",121,0,False,False,False,False,True,False
122,0.5,0.5010859966278076,"{'mean': -0.29999999999999999, 'sd': 0.37}",-0.7000000000000001,1,0.368380069732666,0,"(0, 2)",122,0,False,False,False,False,False,False
123,0.5,0.5012049674987793,"{'mean': -0.29999999999999999, 'sd': 0.37}",-0.5,1,0.4076519012451172,0,"(0, 3)",123,0,True,False,False,False,False,False
124,0.5,0.500999927520752,"{'mean': 0.29999999999999999, 'sd': 0.37}",0.5,0,0.4163668155670166,1,"(0, 3)",124,1,False,True,True,False,True,False
125,0.5,0.5010759830474854,"{'mean': 0.29999999999999999, 'sd': 0.37}",0.10000000000000009,0,0.3325531482696533,1,"(0, 3)",125,1,True,False,True,False,False,False
126,0.5,0.5010778903961182,"{'mean': 0.29999999999999999, 'sd': 0.37}",0.30000000000000004,1,0.43605589866638184,1,"(1, 2)",126,1,False,False,True,False,False,False
127,0.5,0.5012259483337402,"{'mean': -0.29999999999999999, 'sd': 0.37}",-0.30000000000000004,1,0.347912073135376,0,"(0, 2)",127,0,True,True,False,False,True,False
128,0.5,0.5004189014434814,"{'mean': -0.29999999999999999, 'sd': 0.37}",0.10000000000000009,1,0.5286848545074463,0,"(1, 3)",128,0,True,False,True,False,True,True
129,0.5,0.500607967376709,"{'mean': 0.29999999999999999, 'sd': 0.37}",0.8999999999999999,1,0.32779502868652344,1,"(0, 2)",129,1,True,True,False,False,True,False
130,0.5,0.5011849403381348,"{'mean': 0.29999999999999999, 'sd': 0.37}",0.5,1,0.5036380290985107,1,"(1, 2)",130,1,True,False,True,False,True,False
131,0.5,0.501032829284668,"{'mean': 0.29999999999999999, 'sd': 0.37}",0.7,0,0.3891899585723877,1,"(0, 3)",131,1,False,False,True,False,False,False
132,0.5,0.5010731220245361,"{'mean': 0.29999999999999999, 'sd': 0.37}",0.8999999999999999,0,0.31785011291503906,1,"(0, 3)",132,1,True,False,True,False,False,False
133,0.5,0.5011811256408691,"{'mean': 0.29999999999999999, 'sd': 0.37}",1.0,0,0.3631010055541992,1,"(1, 3)",133,1,True,False,False,False,True,False
134,0.5,0.5012080669403076,"{'mean': 0.29999999999999999, 'sd': 0.37}",0.8999999999999999,1,0.40037989616394043,1,"(1, 3)",134,1,False,False,True,False,True,False
135,0.5,0.501194953918457,"{'mean': 0.29999999999999999, 'sd': 0.37}",-0.10000000000000009,0,0.3914530277252197,1,"(1, 2)",135,1,False,False,False,False,True,False
136,0.5,0.5010948181152344,"{'mean': 0.29999999999999999, 'sd': 0.37}",0.10000000000000009,1,0.4042239189147949,1,"(0, 3)",136,1,False,False,False,False,False,False
137,0.5,0.500586986541748,"{'mean': 0.29999999999999999, 'sd': 0.37}",-0.10000000000000009,0,0.4594838619232178,1,"(0, 2)",137,1,False,False,True,False,True,False
138,0.5,0.5011119842529297,"{'mean': 0.29999999999999999, 'sd': 0.37}",0.10000000000000009,0,0.4165959358215332,1,"(0, 3)",138,1,True,False,True,False,False,False
139,0.5,0.5002541542053223,"{'mean': 0.29999999999999999, 'sd': 0.37}",0.30000000000000004,0,0.4321410655975342,1,"(0, 3)",139,1,True,False,True,False,False,False
140,0.5,0.5010640621185303,"{'mean': 0.29999999999999999, 'sd': 0.37}",0.30000000000000004,0,0.3434469699859619,1,"(0, 3)",140,1,True,False,True,False,False,False
141,0.5,0.5008270740509033,"{'mean': 0.29999999999999999, 'sd': 0.37}",0.10000000000000009,1,0.2662777900695801,1,"(1, 3)",141,1,False,False,True,False,False,False
142,0.5,0.5011069774627686,"{'mean': 0.29999999999999999, 'sd': 0.37}",-0.10000000000000009,0,0.3983170986175537,1,"(0, 2)",142,1,False,False,True,False,False,False
143,0.5,0.5012111663818359,"{'mean': 0.29999999999999999, 'sd': 0.37}",-0.30000000000000004,0,0.34041810035705566,1,"(0, 2)",143,1,True,False,True,False,False,False
144,0.5,0.5011160373687744,"{'mean': 0.29999999999999999, 'sd': 0.37}",1.0,0,0.3316671848297119,1,"(0, 2)",144,1,True,False,True,False,False,False
145,0.5,0.501147985458374,"{'mean': 0.29999999999999999, 'sd': 0.37}",-0.10000000000000009,0,0.38126206398010254,1,"(1, 2)",145,1,True,False,False,False,True,False
147,0.5,0.5011248588562012,"{'mean': 0.29999999999999999, 'sd': 0.37}",0.10000000000000009,0,0.39092302322387695,1,"(0, 2)",147,1,True,False,True,False,True,False
148,0.5,0.5010819435119629,"{'mean': 0.29999999999999999, 'sd': 0.37}",0.7,1,0.4164719581604004,1,"(0, 3)",148,1,False,False,False,False,True,False
149,0.5,0.501154899597168,"{'mean': 0.29999999999999999, 'sd': 0.37}",0.5,0,0.36078906059265137,1,"(0, 2)",149,1,False,False,True,False,True,False
150,0.5,0.5008800029754639,"{'mean': 0.29999999999999999, 'sd': 0.37}",-0.10000000000000009,0,0.33182406425476074,1,"(0, 3)",150,1,True,False,True,False,False,False
151,0.5,0.5060820579528809,"{'mean': 0.29999999999999999, 'sd': 0.37}",0.30000000000000004,0,0.2811548709869385,1,"(0, 3)",151,1,True,False,True,False,False,False
152,0.5,0.5011739730834961,"{'mean': 0.29999999999999999, 'sd': 0.37}",0.5,1,0.18786907196044922,1,"(1, 3)",152,1,False,False,True,False,False,False
153,0.5,0.501107931137085,"{'mean': 0.29999999999999999, 'sd': 0.37}",0.30000000000000004,0,0.229111909866333,1,"(1, 3)",153,1,False,False,False,False,True,False
154,0.5,0.5001239776611328,"{'mean': -0.29999999999999999, 'sd': 0.37}",-1.0,1,0.19075489044189453,0,"(1, 2)",154,0,False,True,True,False,True,True
155,0.5,0.5011141300201416,"{'mean': -0.29999999999999999, 'sd': 0.37}",-0.5,1,0.314547061920166,0,"(1, 3)",155,0,True,False,True,False,False,True
156,0.5,0.5011658668518066,"{'mean': -0.29999999999999999, 'sd': 0.37}",0.10000000000000009,0,0.34409189224243164,0,"(1, 2)",156,0,False,False,False,False,True,False
157,0.5,0.5011389255523682,"{'mean': -0.29999999999999999, 'sd': 0.37}",0.5,3,0.29839205741882324,0,"(1, 3)",157,0,False,False,False,True,False,False
158,0.5,0.5010509490966797,"{'mean': -0.29999999999999999, 'sd': 0.37}",-0.10000000000000009,1,0.3367469310760498,0,"(0, 3)",158,0,False,False,False,False,False,False
159,0.5,0.5012199878692627,"{'mean': -0.29999999999999999, 'sd': 0.37}",-0.5,1,0.31267499923706055,0,"(1, 3)",159,0,True,False,True,False,True,True
160,0.5,0.5011301040649414,"{'mean': -0.29999999999999999, 'sd': 0.37}",0.10000000000000009,0,0.4127199649810791,0,"(0, 2)",160,0,False,False,True,False,False,True
161,0.5,0.5002079010009766,"{'mean': -0.29999999999999999, 'sd': 0.37}",-0.30000000000000004,0,0.345721960067749,0,"(0, 3)",161,0,True,False,True,False,False,True
162,0.5,0.5010800361633301,"{'mean': -0.29999999999999999, 'sd': 0.37}",-0.5,0,0.3520660400390625,0,"(0, 2)",162,0,True,False,True,False,False,True
163,0.5,0.5011959075927734,"{'mean': -0.29999999999999999, 'sd': 0.37}",-1.0,0,0.3800480365753174,0,"(0, 2)",163,0,True,False,True,False,False,True
164,0.5,0.5011451244354248,"{'mean': -0.29999999999999999, 'sd': 0.37}",-0.5,1,0.3888869285583496,0,"(1, 2)",164,0,False,False,True,False,False,True
165,0.5,0.5011482238769531,"{'mean': -0.29999999999999999, 'sd': 0.37}",-0.7000000000000001,1,0.2752420902252197,0,"(1, 3)",165,0,True,False,True,False,False,True
166,0.5,0.5010931491851807,"{'mean': -0.29999999999999999, 'sd': 0.37}",-0.30000000000000004,1,0.2752571105957031,0,"(1, 3)",166,0,True,False,True,False,False,True
167,0.5,0.5006840229034424,"{'mean': -0.29999999999999999, 'sd': 0.37}",0.10000000000000009,1,0.3619699478149414,0,"(1, 2)",167,0,True,False,True,False,False,True
168,0.5,0.5010848045349121,"{'mean': -0.29999999999999999, 'sd': 0.37}",-0.30000000000000004,1,0.3817179203033447,0,"(1, 2)",168,0,True,False,True,False,False,True
169,0.5,0.5011579990386963,"{'mean': -0.29999999999999999, 'sd': 0.37}",-0.5,1,0.3986551761627197,0,"(1, 3)",169,0,True,False,True,False,False,True
170,0.5,0.5003678798675537,"{'mean': -0.29999999999999999, 'sd': 0.37}",-0.10000000000000009,1,0.281919002532959,0,"(1, 3)",170,0,True,False,True,False,False,True
171,0.5,0.500338077545166,"{'mean': -0.29999999999999999, 'sd': 0.37}",0.10000000000000009,0,0.3955879211425781,0,"(0, 3)",171,0,False,False,True,False,False,True
172,0.5,0.5011961460113525,"{'mean': -0.29999999999999999, 'sd': 0.37}",-0.10000000000000009,0,0.32170701026916504,0,"(0, 3)",172,0,True,False,True,False,False,True
173,0.5,0.5010249614715576,"{'mean': -0.29999999999999999, 'sd': 0.37}",-0.7000000000000001,1,0.41123509407043457,0,"(1, 2)",173,0,False,False,True,False,False,True
174,0.5,0.5011711120605469,"{'mean': -0.29999999999999999, 'sd': 0.37}",0.10000000000000009,0,0.4127230644226074,0,"(0, 3)",174,0,False,False,True,False,False,True
175,0.5,0.5004458427429199,"{'mean': -0.29999999999999999, 'sd': 0.37}",-0.30000000000000004,0,0.4230959415435791,0,"(0, 3)",175,0,True,False,True,False,False,True
176,0.5,0.5011229515075684,"{'mean': 0.29999999999999999, 'sd': 0.37}",0.5,1,0.2963860034942627,1,"(1, 2)",176,1,False,True,True,False,False,False
177,0.5,0.5011720657348633,"{'mean': 0.29999999999999999, 'sd': 0.37}",-0.10000000000000009,1,0.28281402587890625,1,"(1, 2)",177,1,True,False,True,False,False,False
178,0.5,0.5010747909545898,"{'mean': 0.29999999999999999, 'sd': 0.37}",0.10000000000000009,1,0.33892297744750977,1,"(1, 3)",178,1,True,False,True,False,False,False
179,0.5,0.501215934753418,"{'mean': 0.29999999999999999, 'sd': 0.37}",0.5,1,0.365278959274292,1,"(0, 3)",179,1,True,False,False,False,True,False
180,0.5,0.500777006149292,"{'mean': 0.29999999999999999, 'sd': 0.37}",0.8999999999999999,0,0.378277063369751,1,"(0, 3)",180,1,False,False,True,False,True,False
181,0.5,0.5011210441589355,"{'mean': 0.29999999999999999, 'sd': 0.37}",0.7,3,1.26882004737854,1,"(1, 2)",181,1,False,False,False,False,True,False
182,0.5,0.5001270771026611,"{'mean': 0.29999999999999999, 'sd': 0.37}",-0.30000000000000004,2,0.5387601852416992,1,"(1, 2)",182,1,False,False,False,True,False,True
183,0.5,0.5011739730834961,"{'mean': 0.29999999999999999, 'sd': 0.37}",0.7,3,0.2962789535522461,1,"(0, 3)",183,1,False,False,False,True,False,True
184,0.5,0.5011510848999023,"{'mean': 0.29999999999999999, 'sd': 0.37}",-0.30000000000000004,2,0.22895097732543945,1,"(0, 2)",184,1,False,False,False,True,False,True
185,0.5,0.501075029373169,"{'mean': 0.29999999999999999, 'sd': 0.37}",0.5,3,0.4004049301147461,1,"(1, 3)",185,1,False,False,False,True,False,True
186,0.5,0.5010712146759033,"{'mean': 0.29999999999999999, 'sd': 0.37}",-0.10000000000000009,2,0.5220708847045898,1,"(1, 2)",186,1,False,False,False,True,False,True
187,0.5,0.5010819435119629,"{'mean': 0.29999999999999999, 'sd': 0.37}",-0.10000000000000009,2,0.39281177520751953,1,"(1, 2)",187,1,True,False,False,True,False,True
188,0.5,0.501194953918457,"{'mean': 0.29999999999999999, 'sd': 0.37}",0.5,3,0.2806081771850586,1,"(1, 3)",188,1,False,False,False,True,False,True
189,0.5,0.5012290477752686,"{'mean': 0.29999999999999999, 'sd': 0.37}",0.30000000000000004,3,0.41794514656066895,1,"(0, 3)",189,1,True,False,False,True,False,True
190,0.5,0.5011332035064697,"{'mean': 0.29999999999999999, 'sd': 0.37}",0.30000000000000004,3,0.40778684616088867,1,"(0, 3)",190,1,True,False,False,True,False,True
191,0.5,0.5007171630859375,"{'mean': 0.29999999999999999, 'sd': 0.37}",0.7,3,0.3384580612182617,1,"(1, 3)",191,1,True,False,False,True,False,True
192,0.5,0.5008540153503418,"{'mean': 0.29999999999999999, 'sd': 0.37}",0.10000000000000009,2,0.3137528896331787,1,"(1, 2)",192,1,False,False,False,True,False,True
193,0.5,0.5011518001556396,"{'mean': 0.29999999999999999, 'sd': 0.37}",-0.10000000000000009,3,0.4330148696899414,1,"(0, 3)",193,1,False,False,False,True,False,True
194,0.5,0.5012240409851074,"{'mean': 0.29999999999999999, 'sd': 0.37}",-0.10000000000000009,2,0.3510169982910156,1,"(0, 3)",194,1,False,False,False,False,False,False
195,0.5,0.5011310577392578,"{'mean': 0.29999999999999999, 'sd': 0.37}",0.8999999999999999,2,0.44991087913513184,1,"(0, 2)",195,1,True,False,False,True,False,True
196,0.5,0.5001101493835449,"{'mean': 0.29999999999999999, 'sd': 0.37}",0.10000000000000009,3,0.47661495208740234,1,"(0, 3)",196,1,False,False,False,True,False,True
197,0.5,0.5011298656463623,"{'mean': 0.29999999999999999, 'sd': 0.37}",0.30000000000000004,3,0.4540700912475586,1,"(0, 3)",197,1,True,False,False,True,False,True
198,0.5,0.5002098083496094,"{'mean': 0.29999999999999999, 'sd': 0.37}",0.5,2,0.40908217430114746,1,"(1, 2)",198,1,False,False,False,True,False,True
199,0.5,0.5002810955047607,"{'mean': 0.29999999999999999, 'sd': 0.37}",-0.5,3,0.2392289638519287,1,"(1, 2)",199,1,False,False,False,False,False,False
200,0.5,0.5002560615539551,"{'mean': -0.29999999999999999, 'sd': 0.37}",-0.5,3,0.6967151165008545,0,"(1, 2)",200,0,True,True,False,False,False,False
201,0.5,0.500622034072876,"{'mean': -0.29999999999999999, 'sd': 0.37}",-0.30000000000000004,3,0.4452691078186035,0,"(1, 3)",201,0,True,False,False,True,False,False
202,0.5,0.501270055770874,"{'mean': -0.29999999999999999, 'sd': 0.37}",-0.5,3,0.39625000953674316,0,"(0, 3)",202,0,True,False,False,True,False,False
203,0.5,0.5005569458007812,"{'mean': 0.29999999999999999, 'sd': 0.37}",0.5,1,0.3304319381713867,1,"(0, 3)",203,1,False,True,False,False,False,False
204,0.5,0.5002458095550537,"{'mean': 0.29999999999999999, 'sd': 0.37}",0.8999999999999999,0,0.40957093238830566,1,"(0, 2)",204,1,False,False,True,False,True,False
205,0.5,0.5011708736419678,"{'mean': 0.29999999999999999, 'sd': 0.37}",0.5,1,0.5309140682220459,1,"(1, 3)",205,1,False,False,True,False,False,False
206,0.5,0.5008749961853027,"{'mean': 0.29999999999999999, 'sd': 0.37}",0.10000000000000009,3,0.5613768100738525,1,"(1, 3)",206,1,False,False,False,True,True,True
207,0.5,0.5011200904846191,"{'mean': 0.29999999999999999, 'sd': 0.37}",0.10000000000000009,2,0.3761250972747803,1,"(0, 2)",207,1,False,False,False,True,False,True
208,0.5,0.5012130737304688,"{'mean': 0.29999999999999999, 'sd': 0.37}",0.5,2,0.48735880851745605,1,"(0, 3)",208,1,True,False,False,False,False,False
209,0.5,0.5010371208190918,"{'mean': 0.29999999999999999, 'sd': 0.37}",0.30000000000000004,2,0.32251787185668945,1,"(0, 2)",209,1,True,False,False,True,False,True
210,0.5,0.5009050369262695,"{'mean': 0.29999999999999999, 'sd': 0.37}",0.5,2,0.3458371162414551,1,"(0, 2)",210,1,True,False,False,True,False,True
211,0.5,0.5011188983917236,"{'mean': 0.29999999999999999, 'sd': 0.37}",0.30000000000000004,3,0.39293503761291504,1,"(1, 3)",211,1,False,False,False,True,False,True
212,0.5,0.5010991096496582,"{'mean': 0.29999999999999999, 'sd': 0.37}",0.30000000000000004,2,0.4560811519622803,1,"(0, 2)",212,1,False,False,False,True,False,True
213,0.5,0.5002729892730713,"{'mean': 0.29999999999999999, 'sd': 0.37}",0.7,2,0.36427998542785645,1,"(1, 2)",213,1,True,False,False,True,False,True
214,0.5,0.501129150390625,"{'mean': 0.29999999999999999, 'sd': 0.37}",0.8999999999999999,3,0.31264805793762207,1,"(0, 3)",214,1,False,False,False,True,False,True
215,0.5,0.5006539821624756,"{'mean': 0.29999999999999999, 'sd': 0.37}",0.30000000000000004,3,0.3851940631866455,1,"(0, 3)",215,1,True,False,False,True,False,True
216,0.5,0.5011098384857178,"{'mean': 0.29999999999999999, 'sd': 0.37}",0.10000000000000009,2,0.36475205421447754,1,"(0, 3)",216,1,False,False,False,False,False,False
217,0.5,0.5009799003601074,"{'mean': 0.29999999999999999, 'sd': 0.37}",0.8999999999999999,3,0.37244296073913574,1,"(1, 3)",217,1,False,False,False,True,False,True
218,0.5,0.5011780261993408,"{'mean': 0.29999999999999999, 'sd': 0.37}",0.5,3,0.34770703315734863,1,"(1, 3)",218,1,True,False,False,True,False,True
219,0.5,0.5011329650878906,"{'mean': -0.29999999999999999, 'sd': 0.37}",-0.5,2,0.26662588119506836,0,"(1, 2)",219,0,False,True,False,True,False,False
220,0.5,0.5011200904846191,"{'mean': -0.29999999999999999, 'sd': 0.37}",0.30000000000000004,3,0.3541560173034668,0,"(0, 3)",220,0,False,False,False,True,False,False
221,0.5,0.5010669231414795,"{'mean': -0.29999999999999999, 'sd': 0.37}",-0.7000000000000001,1,0.3774881362915039,0,"(0, 2)",221,0,False,False,False,False,False,False
222,0.5,0.5010809898376465,"{'mean': -0.29999999999999999, 'sd': 0.37}",-0.5,1,0.3774869441986084,0,"(0, 3)",222,0,True,False,False,False,False,False
223,0.5,0.500708818435669,"{'mean': -0.29999999999999999, 'sd': 0.37}",0.10000000000000009,1,0.23817086219787598,0,"(0, 2)",223,0,True,False,False,False,False,False
224,0.5,0.501140832901001,"{'mean': 0.29999999999999999, 'sd': 0.37}",0.7,0,0.3294241428375244,1,"(1, 3)",224,1,False,True,False,False,False,False
225,0.5,0.5010251998901367,"{'mean': 0.29999999999999999, 'sd': 0.37}",-0.10000000000000009,0,0.3286130428314209,1,"(0, 3)",225,1,True,False,True,False,True,False
226,0.5,0.500507116317749,"{'mean': 0.29999999999999999, 'sd': 0.37}",0.8999999999999999,2,0.34467601776123047,1,"(0, 2)",226,1,False,False,False,True,True,True
227,0.5,0.5001680850982666,"{'mean': 0.29999999999999999, 'sd': 0.37}",-0.30000000000000004,2,0.39393091201782227,1,"(0, 3)",227,1,True,False,False,False,False,False
228,0.5,0.5011768341064453,"{'mean': 0.29999999999999999, 'sd': 0.37}",0.8999999999999999,2,0.4390089511871338,1,"(1, 2)",228,1,True,False,False,True,False,True
229,0.5,0.5010709762573242,"{'mean': 0.29999999999999999, 'sd': 0.37}",0.30000000000000004,3,0.28685903549194336,1,"(1, 3)",229,1,False,False,False,True,False,True
230,0.5,0.5006890296936035,"{'mean': 0.29999999999999999, 'sd': 0.37}",0.7,2,0.47359395027160645,1,"(0, 2)",230,1,False,False,False,True,False,True
231,0.5,0.5004558563232422,"{'mean': 0.29999999999999999, 'sd': 0.37}",0.5,1,0.6065421104431152,1,"(1, 3)",231,1,False,False,True,False,True,False
232,0.5,0.5011110305786133,"{'mean': 0.29999999999999999, 'sd': 0.37}",0.30000000000000004,2,0.23104000091552734,1,"(0, 2)",232,1,False,False,False,True,True,True
233,0.5,0.5011639595031738,"{'mean': 0.29999999999999999, 'sd': 0.37}",0.5,3,0.41716504096984863,1,"(0, 3)",233,1,False,False,False,True,False,True
234,0.5,0.5011341571807861,"{'mean': 0.29999999999999999, 'sd': 0.37}",-0.10000000000000009,2,0.33397793769836426,1,"(0, 3)",234,1,False,False,False,False,False,False
235,0.5,0.5002322196960449,"{'mean': 0.29999999999999999, 'sd': 0.37}",0.10000000000000009,2,0.31073880195617676,1,"(0, 2)",235,1,True,False,False,True,False,True
236,0.5,0.5003221035003662,"{'mean': 0.29999999999999999, 'sd': 0.37}",0.10000000000000009,2,0.4340810775756836,1,"(0, 2)",236,1,True,False,False,True,False,True
237,0.5,0.5041429996490479,"{'mean': 0.29999999999999999, 'sd': 0.37}",0.5,3,0.48389291763305664,1,"(1, 2)",237,1,False,False,False,False,False,False
238,0.5,0.5001611709594727,"{'mean': 0.29999999999999999, 'sd': 0.37}",0.5,3,0.5943150520324707,1,"(0, 3)",238,1,True,False,False,True,False,True
239,0.5,0.5000920295715332,"{'mean': 0.29999999999999999, 'sd': 0.37}",-0.10000000000000009,3,0.5075020790100098,1,"(0, 3)",239,1,True,False,False,True,False,True
240,0.5,0.5004839897155762,"{'mean': 0.29999999999999999, 'sd': 0.37}",0.7,3,0.39798593521118164,1,"(1, 3)",240,1,True,False,False,True,False,True
241,0.5,0.5002639293670654,"{'mean': 0.29999999999999999, 'sd': 0.37}",-0.30000000000000004,2,0.28940296173095703,1,"(0, 2)",241,1,False,False,False,True,False,True
242,0.5,0.5012490749359131,"{'mean': 0.29999999999999999, 'sd': 0.37}",0.5,2,0.3056778907775879,1,"(1, 2)",242,1,True,False,False,True,False,True
243,0.5,0.5012528896331787,"{'mean': 0.29999999999999999, 'sd': 0.37}",0.7,2,0.311784029006958,1,"(0, 2)",243,1,True,False,False,True,False,True
244,0.5,0.5007259845733643,"{'mean': 0.29999999999999999, 'sd': 0.37}",0.30000000000000004,3,0.3870880603790283,1,"(0, 3)",244,1,False,False,False,True,False,True
245,0.5,0.5010669231414795,"{'mean': 0.29999999999999999, 'sd': 0.37}",0.5,2,0.36208009719848633,1,"(0, 3)",245,1,False,False,False,False,False,False
246,0.5,0.5004849433898926,"{'mean': 0.29999999999999999, 'sd': 0.37}",0.7,2,0.3415360450744629,1,"(1, 2)",246,1,True,False,False,True,False,True
247,0.5,0.50111985206604,"{'mean': 0.29999999999999999, 'sd': 0.37}",-0.10000000000000009,3,0.3245711326599121,1,"(1, 3)",247,1,False,False,False,True,False,True
248,0.5,0.5006270408630371,"{'mean': 0.29999999999999999, 'sd': 0.37}",0.30000000000000004,2,0.35516810417175293,1,"(0, 3)",248,1,False,False,False,False,False,False
249,0.5,0.5012819766998291,"{'mean': 0.29999999999999999, 'sd': 0.37}",0.30000000000000004,2,0.35086894035339355,1,"(1, 2)",249,1,True,False,False,True,False,True
250,0.5,0.5005569458007812,"{'mean': 0.29999999999999999, 'sd': 0.37}",0.8999999999999999,3,0.27716517448425293,1,"(0, 2)",250,1,False,False,False,False,False,False
251,0.5,0.5005319118499756,"{'mean': -0.29999999999999999, 'sd': 0.37}",0.10000000000000009,2,0.33734798431396484,0,"(1, 2)",251,0,False,True,False,True,False,False
252,0.5,0.501107931137085,"{'mean': -0.29999999999999999, 'sd': 0.37}",0.30000000000000004,3,0.36729001998901367,0,"(0, 3)",252,0,False,False,False,True,False,False
253,0.5,0.5011270046234131,"{'mean': -0.29999999999999999, 'sd': 0.37}",0.10000000000000009,2,0.2757291793823242,0,"(0, 3)",253,0,False,False,False,False,False,False
254,0.5,0.5011038780212402,"{'mean': -0.29999999999999999, 'sd': 0.37}",-0.5,2,0.7066910266876221,0,"(0, 2)",254,0,True,False,False,True,False,False
255,0.5,0.5010619163513184,"{'mean': -0.29999999999999999, 'sd': 0.37}",-0.10000000000000009,2,0.33327698707580566,0,"(1, 3)",255,0,True,False,False,False,False,False
256,0.5,0.5002288818359375,"{'mean': -0.29999999999999999, 'sd': 0.37}",-0.9000000000000001,0,0.6039440631866455,0,"(0, 2)",256,0,False,False,True,False,True,True
257,0.5,0.5011298656463623,"{'mean': -0.29999999999999999, 'sd': 0.37}",-0.5,0,0.4802370071411133,0,"(0, 2)",257,0,True,False,True,False,False,True
258,0.5,0.5011529922485352,"{'mean': 0.29999999999999999, 'sd': 0.37}",0.10000000000000009,1,0.4524049758911133,1,"(0, 3)",258,1,False,True,False,False,True,False
259,0.5,0.5012099742889404,"{'mean': 0.29999999999999999, 'sd': 0.37}",0.30000000000000004,1,0.44901514053344727,1,"(1, 2)",259,1,True,False,True,False,True,False
260,0.5,0.5002789497375488,"{'mean': 0.29999999999999999, 'sd': 0.37}",-0.10000000000000009,3,0.6194379329681396,1,"(1, 2)",260,1,False,False,False,False,True,False
261,0.5,0.5011801719665527,"{'mean': 0.29999999999999999, 'sd': 0.37}",-0.30000000000000004,2,0.393082857131958,1,"(0, 2)",261,1,False,False,False,True,False,True
262,0.5,0.5011072158813477,"{'mean': 0.29999999999999999, 'sd': 0.37}",0.5,2,0.3665628433227539,1,"(0, 2)",262,1,True,False,False,True,False,True
263,0.5,0.501121997833252,"{'mean': 0.29999999999999999, 'sd': 0.37}",0.5,3,0.3575911521911621,1,"(1, 2)",263,1,False,False,False,False,False,False
264,0.5,0.5011839866638184,"{'mean': 0.29999999999999999, 'sd': 0.37}",0.7,2,0.3699769973754883,1,"(1, 2)",264,1,False,False,False,True,False,True
265,0.5,0.5005300045013428,"{'mean': 0.29999999999999999, 'sd': 0.37}",0.5,2,0.32565808296203613,1,"(1, 2)",265,1,True,False,False,True,False,True
266,0.5,0.5010800361633301,"{'mean': 0.29999999999999999, 'sd': 0.37}",0.7,3,0.34600114822387695,1,"(0, 3)",266,1,False,False,False,True,False,True
267,0.5,0.5036280155181885,"{'mean': -0.29999999999999999, 'sd': 0.37}",-0.30000000000000004,2,0.33620405197143555,0,"(1, 2)",267,0,False,True,False,True,False,False
268,0.5,0.5002391338348389,"{'mean': -0.29999999999999999, 'sd': 0.37}",-0.30000000000000004,2,0.3582470417022705,0,"(0, 2)",268,0,True,False,False,True,False,False
269,0.5,0.5010740756988525,"{'mean': -0.29999999999999999, 'sd': 0.37}",-0.30000000000000004,0,0.338608980178833,0,"(0, 2)",269,0,False,False,True,False,True,True
270,0.5,0.501162052154541,"{'mean': -0.29999999999999999, 'sd': 0.37}",-0.7000000000000001,0,0.5620241165161133,0,"(1, 2)",270,0,True,False,False,False,True,False
271,0.5,0.5011730194091797,"{'mean': -0.29999999999999999, 'sd': 0.37}",-0.10000000000000009,0,0.2871382236480713,0,"(0, 2)",271,0,True,False,True,False,True,True
272,0.5,0.5011680126190186,"{'mean': -0.29999999999999999, 'sd': 0.37}",-0.30000000000000004,0,0.4851200580596924,0,"(0, 2)",272,0,True,False,True,False,False,True
273,0.5,0.5011990070343018,"{'mean': -0.29999999999999999, 'sd': 0.37}",0.10000000000000009,1,0.6347959041595459,0,"(1, 3)",273,0,False,False,True,False,False,True
274,0.5,0.5012180805206299,"{'mean': -0.29999999999999999, 'sd': 0.37}",-1.0,0,0.5744621753692627,0,"(0, 2)",274,0,False,False,True,False,False,True
275,0.5,0.5006659030914307,"{'mean': -0.29999999999999999, 'sd': 0.37}",0.10000000000000009,0,0.45497798919677734,0,"(0, 2)",275,0,True,False,True,False,False,True
276,0.5,0.5011730194091797,"{'mean': -0.29999999999999999, 'sd': 0.37}",-0.30000000000000004,0,0.43506789207458496,0,"(0, 2)",276,0,True,False,True,False,False,True
277,0.5,0.5008339881896973,"{'mean': -0.29999999999999999, 'sd': 0.37}",-0.5,1,0.3844938278198242,0,"(1, 3)",277,0,False,False,True,False,False,True
278,0.5,0.5012011528015137,"{'mean': -0.29999999999999999, 'sd': 0.37}",-0.10000000000000009,0,0.3297238349914551,0,"(0, 2)",278,0,False,False,True,False,False,True
279,0.5,0.5010919570922852,"{'mean': 0.29999999999999999, 'sd': 0.37}",0.8999999999999999,0,0.38954687118530273,1,"(0, 2)",279,1,True,True,True,False,False,False
280,0.5,0.5011260509490967,"{'mean': 0.29999999999999999, 'sd': 0.37}",0.30000000000000004,3,0.522284984588623,1,"(1, 2)",280,1,False,False,False,False,True,False
281,0.5,0.5011851787567139,"{'mean': 0.29999999999999999, 'sd': 0.37}",0.5,0,0.23540592193603516,1,"(0, 2)",281,1,False,False,True,False,True,False
282,0.5,0.5011818408966064,"{'mean': 0.29999999999999999, 'sd': 0.37}",0.10000000000000009,2,0.5422670841217041,1,"(1, 3)",282,1,False,False,False,False,True,False
283,0.5,0.5011489391326904,"{'mean': 0.29999999999999999, 'sd': 0.37}",0.7,2,0.28160595893859863,1,"(0, 2)",283,1,True,False,False,True,False,True
284,0.5,0.5008149147033691,"{'mean': 0.29999999999999999, 'sd': 0.37}",0.5,2,0.3215620517730713,1,"(0, 2)",284,1,True,False,False,True,False,True
285,0.5,0.5001559257507324,"{'mean': 0.29999999999999999, 'sd': 0.37}",0.10000000000000009,3,0.3155331611633301,1,"(1, 2)",285,1,False,False,False,False,False,False
286,0.5,0.5011119842529297,"{'mean': 0.29999999999999999, 'sd': 0.37}",0.8999999999999999,0,0.4878571033477783,1,"(0, 3)",286,1,False,False,True,False,True,False
287,0.5,0.5012121200561523,"{'mean': -0.29999999999999999, 'sd': 0.37}",0.30000000000000004,2,0.30947303771972656,0,"(0, 2)",287,0,False,True,False,True,True,False
288,0.5,0.5011329650878906,"{'mean': -0.29999999999999999, 'sd': 0.37}",0.10000000000000009,0,0.29935383796691895,0,"(1, 2)",288,0,False,False,False,False,False,False
289,0.5,0.5012140274047852,"{'mean': -0.29999999999999999, 'sd': 0.37}",-0.5,2,0.42272400856018066,0,"(0, 3)",289,0,False,False,False,False,False,False
290,0.5,0.5007400512695312,"{'mean': -0.29999999999999999, 'sd': 0.37}",-0.30000000000000004,0,0.3656160831451416,0,"(1, 2)",290,0,False,False,False,False,False,False
291,0.5,0.5012211799621582,"{'mean': -0.29999999999999999, 'sd': 0.37}",-0.10000000000000009,3,0.25487589836120605,0,"(1, 3)",291,0,False,False,False,True,False,False
292,0.5,0.5011708736419678,"{'mean': -0.29999999999999999, 'sd': 0.37}",0.30000000000000004,0,0.35422706604003906,0,"(1, 2)",292,0,False,False,False,False,False,False
293,0.5,0.5007860660552979,"{'mean': -0.29999999999999999, 'sd': 0.37}",-0.30000000000000004,2,0.18117189407348633,0,"(1, 3)",293,0,False,False,False,False,False,False
294,0.5,0.5011110305786133,"{'mean': -0.29999999999999999, 'sd': 0.37}",-1.0,0,0.34951305389404297,0,"(0, 3)",294,0,False,False,True,False,True,True
295,0.5,0.5001380443572998,"{'mean': -0.29999999999999999, 'sd': 0.37}",-0.5,1,0.235198974609375,0,"(0, 3)",295,0,False,False,False,False,True,False
296,0.5,0.501168966293335,"{'mean': -0.29999999999999999, 'sd': 0.37}",-0.7000000000000001,1,0.30545902252197266,0,"(0, 3)",296,0,True,False,False,False,False,False
297,0.5,0.5014619827270508,"{'mean': -0.29999999999999999, 'sd': 0.37}",-0.5,0,0.4978158473968506,0,"(1, 3)",297,0,False,False,False,False,False,False
298,0.5,0.5011711120605469,"{'mean': -0.29999999999999999, 'sd': 0.37}",-0.10000000000000009,0,0.32740116119384766,0,"(0, 3)",298,0,True,False,True,False,True,True
299,0.5,0.5011649131774902,"{'mean': -0.29999999999999999, 'sd': 0.37}",-0.30000000000000004,1,0.40117406845092773,0,"(1, 2)",299,0,False,False,True,False,False,True
300,0.5,0.5011589527130127,"{'mean': -0.29999999999999999, 'sd': 0.37}",-0.9000000000000001,0,0.3670468330383301,0,"(1, 2)",300,0,False,False,False,False,True,False
301,0.5,0.5003349781036377,"{'mean': 0.29999999999999999, 'sd': 0.37}",0.5,0,0.3578619956970215,1,"(1, 3)",301,1,True,True,False,False,False,False
302,0.5,0.5010569095611572,"{'mean': 0.29999999999999999, 'sd': 0.37}",0.10000000000000009,1,0.39660096168518066,1,"(0, 2)",302,1,False,False,False,False,False,False
303,0.5,0.5011711120605469,"{'mean': 0.29999999999999999, 'sd': 0.37}",0.30000000000000004,1,0.43032312393188477,1,"(0, 2)",303,1,True,False,False,False,False,False
304,0.5,0.5013749599456787,"{'mean': 0.29999999999999999, 'sd': 0.37}",0.5,3,0.3710911273956299,1,"(1, 2)",304,1,False,False,False,False,False,False
305,0.5,0.5012021064758301,"{'mean': 0.29999999999999999, 'sd': 0.37}",-0.10000000000000009,2,0.3221099376678467,1,"(1, 3)",305,1,False,False,False,False,False,False
306,0.5,0.5005130767822266,"{'mean': 0.29999999999999999, 'sd': 0.37}",1.0,0,0.5199389457702637,1,"(0, 3)",306,1,False,False,True,False,True,False
307,0.5,0.5011780261993408,"{'mean': 0.29999999999999999, 'sd': 0.37}",0.5,0,0.36577606201171875,1,"(1, 2)",307,1,True,False,False,False,True,False
308,0.5,0.5003340244293213,"{'mean': 0.29999999999999999, 'sd': 0.37}",0.5,0,0.3543510437011719,1,"(0, 2)",308,1,True,False,True,False,True,False
309,0.5,0.501183032989502,"{'mean': 0.29999999999999999, 'sd': 0.37}",0.30000000000000004,2,0.2452688217163086,1,"(0, 2)",309,1,False,False,False,True,True,True
310,0.5,0.5012321472167969,"{'mean': 0.29999999999999999, 'sd': 0.37}",0.10000000000000009,2,0.3652160167694092,1,"(1, 2)",310,1,True,False,False,True,False,True
311,0.5,0.5048727989196777,"{'mean': 0.29999999999999999, 'sd': 0.37}",-0.10000000000000009,3,0.4349699020385742,1,"(1, 3)",311,1,False,False,False,True,False,True
312,0.5,0.5008339881896973,"{'mean': 0.29999999999999999, 'sd': 0.37}",0.7,3,0.3625669479370117,1,"(1, 3)",312,1,True,False,False,True,False,True
313,0.5,0.5010368824005127,"{'mean': 0.29999999999999999, 'sd': 0.37}",0.10000000000000009,3,0.34537410736083984,1,"(0, 2)",313,1,True,False,False,False,False,False
314,0.5,0.5011570453643799,"{'mean': -0.29999999999999999, 'sd': 0.37}",-0.7000000000000001,2,0.48427295684814453,0,"(0, 2)",314,0,False,True,False,True,False,False
315,0.5,0.5006940364837646,"{'mean': -0.29999999999999999, 'sd': 0.37}",-0.5,0,0.40995216369628906,0,"(1, 3)",315,0,False,False,False,False,False,False
316,0.5,0.5001468658447266,"{'mean': -0.29999999999999999, 'sd': 0.37}",-0.30000000000000004,1,0.21392512321472168,0,"(0, 2)",316,0,False,False,False,False,False,False
317,0.5,0.5010449886322021,"{'mean': -0.29999999999999999, 'sd': 0.37}",-0.10000000000000009,2,0.30387306213378906,0,"(1, 2)",317,0,False,False,False,True,False,False
318,0.5,0.5008959770202637,"{'mean': -0.29999999999999999, 'sd': 0.37}",-0.30000000000000004,3,0.2662978172302246,0,"(0, 2)",318,0,False,False,False,False,False,False
319,0.5,0.5012111663818359,"{'mean': -0.29999999999999999, 'sd': 0.37}",0.10000000000000009,0,0.43857502937316895,0,"(0, 3)",319,0,False,False,True,False,True,True
320,0.5,0.501194953918457,"{'mean': -0.29999999999999999, 'sd': 0.37}",-0.30000000000000004,0,0.3545420169830322,0,"(1, 3)",320,0,True,False,False,False,True,False
321,0.5,0.5011718273162842,"{'mean': -0.29999999999999999, 'sd': 0.37}",-0.10000000000000009,3,0.318450927734375,0,"(1, 3)",321,0,False,False,False,True,False,False
322,0.5,0.5005850791931152,"{'mean': -0.29999999999999999, 'sd': 0.37}",-0.30000000000000004,1,0.4105069637298584,0,"(0, 2)",322,0,False,False,False,False,False,False
323,0.5,0.5010521411895752,"{'mean': -0.29999999999999999, 'sd': 0.37}",-0.10000000000000009,0,0.3465888500213623,0,"(0, 3)",323,0,False,False,True,False,True,True
324,0.5,0.5001919269561768,"{'mean': -0.29999999999999999, 'sd': 0.37}",0.30000000000000004,0,0.45079493522644043,0,"(1, 3)",324,0,True,False,False,False,True,False
325,0.5,0.5011141300201416,"{'mean': 0.29999999999999999, 'sd': 0.37}",0.30000000000000004,0,0.32910895347595215,1,"(0, 2)",325,1,True,True,True,False,True,False
326,0.5,0.5011279582977295,"{'mean': 0.29999999999999999, 'sd': 0.37}",0.30000000000000004,2,0.43124985694885254,1,"(0, 2)",326,1,False,False,False,True,True,True
327,0.5,0.5012340545654297,"{'mean': 0.29999999999999999, 'sd': 0.37}",0.7,3,0.33777904510498047,1,"(0, 3)",327,1,False,False,False,True,False,True
328,0.5,0.5008089542388916,"{'mean': 0.29999999999999999, 'sd': 0.37}",0.5,3,0.474348783493042,1,"(0, 3)",328,1,True,False,False,True,False,True
329,0.5,0.5001330375671387,"{'mean': 0.29999999999999999, 'sd': 0.37}",0.30000000000000004,0,0.6088590621948242,1,"(1, 2)",329,1,False,False,False,False,False,False
330,0.5,0.5010421276092529,"{'mean': 0.29999999999999999, 'sd': 0.37}",0.7,2,0.42048001289367676,1,"(0, 3)",330,1,False,False,False,False,False,False
331,0.5,0.5011389255523682,"{'mean': 0.29999999999999999, 'sd': 0.37}",0.7,2,0.5052390098571777,1,"(1, 2)",331,1,True,False,False,True,False,True
332,0.5,0.5011260509490967,"{'mean': 0.29999999999999999, 'sd': 0.37}",0.5,2,0.6005029678344727,1,"(1, 2)",332,1,True,False,False,True,False,True
333,0.5,0.5011088848114014,"{'mean': 0.29999999999999999, 'sd': 0.37}",-0.10000000000000009,3,0.31641387939453125,1,"(0, 3)",333,1,False,False,False,True,False,True
334,0.5,0.5006599426269531,"{'mean': 0.29999999999999999, 'sd': 0.37}",0.5,2,0.4894881248474121,1,"(1, 2)",334,1,False,False,False,True,False,True
335,0.5,0.5011560916900635,"{'mean': 0.29999999999999999, 'sd': 0.37}",0.10000000000000009,2,0.47901487350463867,1,"(1, 2)",335,1,True,False,False,True,False,True
336,0.5,0.5012249946594238,"{'mean': 0.29999999999999999, 'sd': 0.37}",0.10000000000000009,3,0.3235960006713867,1,"(0, 2)",336,1,False,False,False,False,False,False
337,0.5,0.501068115234375,"{'mean': 0.29999999999999999, 'sd': 0.37}",0.7,2,0.46105289459228516,1,"(1, 3)",337,1,False,False,False,False,False,False
338,0.5,0.5013799667358398,"{'mean': 0.29999999999999999, 'sd': 0.37}",-0.5,0,0.4670522212982178,1,"(1, 3)",338,1,False,False,False,False,False,False
339,0.5,0.501215934753418,"{'mean': 0.29999999999999999, 'sd': 0.37}",0.30000000000000004,3,0.4742748737335205,1,"(1, 2)",339,1,False,False,False,False,False,False
340,0.5,0.5011031627655029,"{'mean': 0.29999999999999999, 'sd': 0.37}",0.5,2,0.35977792739868164,1,"(0, 2)",340,1,False,False,False,True,False,True
341,0.5,0.501121997833252,"{'mean': 0.29999999999999999, 'sd': 0.37}",0.8999999999999999,2,0.32794690132141113,1,"(0, 3)",341,1,True,False,False,False,False,False
342,0.5,0.5008711814880371,"{'mean': 0.29999999999999999, 'sd': 0.37}",0.10000000000000009,3,0.49902892112731934,1,"(0, 3)",342,1,False,False,False,True,False,True
343,0.5,0.5034489631652832,"{'mean': 0.29999999999999999, 'sd': 0.37}",0.10000000000000009,3,0.45061588287353516,1,"(0, 3)",343,1,True,False,False,True,False,True
344,0.5,0.5007991790771484,"{'mean': 0.29999999999999999, 'sd': 0.37}",0.5,3,0.3341829776763916,1,"(0, 2)",344,1,True,False,False,False,False,False
345,0.5,0.5008668899536133,"{'mean': -0.29999999999999999, 'sd': 0.37}",-0.9000000000000001,2,0.398939847946167,0,"(0, 2)",345,0,False,True,False,True,False,False
346,0.5,0.5012319087982178,"{'mean': -0.29999999999999999, 'sd': 0.37}",0.10000000000000009,0,0.48956990242004395,0,"(1, 2)",346,0,False,False,False,False,False,False
347,0.5,0.5079391002655029,"{'mean': -0.29999999999999999, 'sd': 0.37}",-0.10000000000000009,3,0.3080711364746094,0,"(0, 3)",347,0,False,False,False,True,False,False
348,0.5,0.5163919925689697,"{'mean': -0.29999999999999999, 'sd': 0.37}",-0.10000000000000009,2,0.31052398681640625,0,"(0, 2)",348,0,False,False,False,True,False,False
349,0.5,0.5010638236999512,"{'mean': -0.29999999999999999, 'sd': 0.37}",-0.30000000000000004,0,0.3575558662414551,0,"(1, 2)",349,0,False,False,False,False,False,False
350,0.5,0.5033209323883057,"{'mean': -0.29999999999999999, 'sd': 0.37}",0.30000000000000004,2,0.48285412788391113,0,"(1, 2)",350,0,False,False,False,True,False,False
351,0.5,0.5007050037384033,"{'mean': -0.29999999999999999, 'sd': 0.37}",-0.5,3,0.3776531219482422,0,"(0, 3)",351,0,False,False,False,True,False,False
352,0.5,0.5009598731994629,"{'mean': -0.29999999999999999, 'sd': 0.37}",-0.5,1,0.4622528553009033,0,"(1, 3)",352,0,False,False,True,False,True,True
353,0.5,0.5006301403045654,"{'mean': 0.29999999999999999, 'sd': 0.37}",0.10000000000000009,0,0.4799518585205078,1,"(0, 2)",353,1,False,True,True,False,False,False
354,0.5,0.5003571510314941,"{'mean': 0.29999999999999999, 'sd': 0.37}",0.5,3,0.4531841278076172,1,"(0, 3)",354,1,False,False,False,True,True,True
355,0.5,0.5010619163513184,"{'mean': 0.29999999999999999, 'sd': 0.37}",0.8999999999999999,1,0.6862509250640869,1,"(1, 3)",355,1,False,False,True,False,True,False
356,0.5,0.5011410713195801,"{'mean': 0.29999999999999999, 'sd': 0.37}",0.7,1,0.5482399463653564,1,"(1, 3)",356,1,True,False,True,False,False,False
357,0.5,0.5003960132598877,"{'mean': 0.29999999999999999, 'sd': 0.37}",0.30000000000000004,3,0.29181790351867676,1,"(1, 3)",357,1,False,False,False,True,True,True
358,0.5,0.5052170753479004,"{'mean': 0.29999999999999999, 'sd': 0.37}",0.5,0,0.6272239685058594,1,"(1, 2)",358,1,False,False,False,False,False,False
359,0.5,0.5012001991271973,"{'mean': -0.29999999999999999, 'sd': 0.37}",-0.5,2,0.3374440670013428,0,"(0, 2)",359,0,False,True,False,True,False,False
360,0.5,0.5011589527130127,"{'mean': -0.29999999999999999, 'sd': 0.37}",-0.5,3,0.38579607009887695,0,"(1, 2)",360,0,False,False,False,False,False,False
361,0.5,0.500499963760376,"{'mean': -0.29999999999999999, 'sd': 0.37}",-0.30000000000000004,1,0.5175790786743164,0,"(0, 3)",361,0,False,False,False,False,False,False
362,0.5,0.5002591609954834,"{'mean': -0.29999999999999999, 'sd': 0.37}",-0.7000000000000001,3,0.43195009231567383,0,"(1, 2)",362,0,False,False,False,False,False,False
363,0.5,0.5011260509490967,"{'mean': 0.29999999999999999, 'sd': 0.37}",0.30000000000000004,1,0.4679398536682129,1,"(1, 2)",363,1,False,True,True,False,True,False
364,0.5,0.5003039836883545,"{'mean': 0.29999999999999999, 'sd': 0.37}",0.10000000000000009,3,0.4259958267211914,1,"(0, 3)",364,1,False,False,False,True,True,True
365,0.5,0.500514030456543,"{'mean': 0.29999999999999999, 'sd': 0.37}",0.5,0,0.381458044052124,1,"(1, 2)",365,1,False,False,False,False,False,False
366,0.5,0.5002140998840332,"{'mean': 0.29999999999999999, 'sd': 0.37}",0.30000000000000004,2,0.3785979747772217,1,"(1, 2)",366,1,False,False,False,True,False,True
367,0.5,0.5010521411895752,"{'mean': 0.29999999999999999, 'sd': 0.37}",-0.30000000000000004,2,0.47046399116516113,1,"(1, 2)",367,1,True,False,False,True,False,True
368,0.5,0.500154972076416,"{'mean': 0.29999999999999999, 'sd': 0.37}",0.8999999999999999,0,0.7156350612640381,1,"(0, 2)",368,1,False,False,True,False,True,False
369,0.5,0.5011999607086182,"{'mean': 0.29999999999999999, 'sd': 0.37}",1.0,2,0.40956902503967285,1,"(0, 2)",369,1,False,False,False,True,True,True
370,0.5,0.5011839866638184,"{'mean': 0.29999999999999999, 'sd': 0.37}",-0.10000000000000009,2,0.5022261142730713,1,"(1, 2)",370,1,True,False,False,True,False,True
371,0.5,0.5012149810791016,"{'mean': 0.29999999999999999, 'sd': 0.37}",0.10000000000000009,2,0.5116729736328125,1,"(1, 2)",371,1,True,False,False,True,False,True
372,0.5,0.5010569095611572,"{'mean': 0.29999999999999999, 'sd': 0.37}",0.30000000000000004,3,0.36698198318481445,1,"(0, 3)",372,1,False,False,False,True,False,True
373,0.5,0.5010471343994141,"{'mean': 0.29999999999999999, 'sd': 0.37}",0.30000000000000004,3,0.3814070224761963,1,"(0, 3)",373,1,True,False,False,True,False,True
374,0.5,0.5009210109710693,"{'mean': -0.29999999999999999, 'sd': 0.37}",0.10000000000000009,3,0.3083820343017578,0,"(1, 3)",374,0,True,True,False,True,False,False
375,0.5,0.5012290477752686,"{'mean': -0.29999999999999999, 'sd': 0.37}",0.30000000000000004,3,0.4259989261627197,0,"(1, 3)",375,0,True,False,False,True,False,False
376,0.5,0.5010740756988525,"{'mean': -0.29999999999999999, 'sd': 0.37}",-0.5,0,0.3473541736602783,0,"(1, 3)",376,0,False,False,False,False,False,False
377,0.5,0.5009539127349854,"{'mean': -0.29999999999999999, 'sd': 0.37}",0.30000000000000004,1,0.19309186935424805,0,"(1, 3)",377,0,False,False,True,False,True,True
378,0.5,0.5004370212554932,"{'mean': -0.29999999999999999, 'sd': 0.37}",-0.7000000000000001,1,0.28570103645324707,0,"(1, 3)",378,0,True,False,True,False,False,True
379,0.5,0.5011560916900635,"{'mean': -0.29999999999999999, 'sd': 0.37}",0.10000000000000009,0,0.39780402183532715,0,"(0, 2)",379,0,False,False,True,False,False,True
380,0.5,0.5000941753387451,"{'mean': -0.29999999999999999, 'sd': 0.37}",-0.7000000000000001,2,0.4591550827026367,0,"(0, 3)",380,0,False,False,False,False,True,False
381,0.5,0.5011341571807861,"{'mean': -0.29999999999999999, 'sd': 0.37}",-0.30000000000000004,0,0.39821505546569824,0,"(1, 3)",381,0,False,False,False,False,False,False
382,0.5,0.5010669231414795,"{'mean': -0.29999999999999999, 'sd': 0.37}",-0.30000000000000004,0,0.3758101463317871,0,"(0, 2)",382,0,True,False,True,False,True,True
383,0.5,0.5011289119720459,"{'mean': -0.29999999999999999, 'sd': 0.37}",-0.7000000000000001,1,0.34555506706237793,0,"(1, 3)",383,0,False,False,True,False,False,True
384,0.5,0.5004899501800537,"{'mean': -0.29999999999999999, 'sd': 0.37}",-0.7000000000000001,0,0.4269728660583496,0,"(1, 2)",384,0,False,False,False,False,True,False
385,0.5,0.5003190040588379,"{'mean': -0.29999999999999999, 'sd': 0.37}",-0.5,1,0.34201598167419434,0,"(0, 3)",385,0,False,False,False,False,False,False
386,0.5,0.502540111541748,"{'mean': -0.29999999999999999, 'sd': 0.37}",-0.9000000000000001,2,0.4784419536590576,0,"(0, 3)",386,0,False,False,False,False,False,False
387,0.5,0.5047941207885742,"{'mean': -0.29999999999999999, 'sd': 0.37}",-0.30000000000000004,2,0.34888601303100586,0,"(0, 2)",387,0,True,False,False,True,False,False
388,0.5,0.5008649826049805,"{'mean': -0.29999999999999999, 'sd': 0.37}",-0.5,2,0.307750940322876,0,"(0, 3)",388,0,True,False,False,False,False,False
389,0.5,0.5011179447174072,"{'mean': -0.29999999999999999, 'sd': 0.37}",-0.9000000000000001,3,0.37006187438964844,0,"(0, 3)",389,0,False,False,False,True,False,False
390,0.5,0.5011720657348633,"{'mean': -0.29999999999999999, 'sd': 0.37}",0.30000000000000004,0,0.2616708278656006,0,"(1, 3)",390,0,False,False,False,False,False,False
391,0.5,0.5011749267578125,"{'mean': -0.29999999999999999, 'sd': 0.37}",0.7,1,0.21974492073059082,0,"(0, 3)",391,0,False,False,False,False,False,False
392,0.5,0.5011320114135742,"{'mean': -0.29999999999999999, 'sd': 0.37}",-0.5,0,0.3249189853668213,0,"(0, 2)",392,0,False,False,True,False,True,True
393,0.5,0.5011188983917236,"{'mean': -0.29999999999999999, 'sd': 0.37}",-0.10000000000000009,2,0.2811141014099121,0,"(1, 3)",393,0,False,False,False,False,True,False
394,0.5,0.5010099411010742,"{'mean': -0.29999999999999999, 'sd': 0.37}",0.5,3,0.347121000289917,0,"(1, 3)",394,0,False,False,False,True,False,False
395,0.5,0.5010888576507568,"{'mean': -0.29999999999999999, 'sd': 0.37}",-0.10000000000000009,1,0.48122310638427734,0,"(1, 2)",395,0,False,False,True,False,True,True
396,0.5,0.501209020614624,"{'mean': -0.29999999999999999, 'sd': 0.37}",-0.7000000000000001,1,0.4118180274963379,0,"(1, 2)",396,0,True,False,True,False,False,True
397,0.5,0.5003888607025146,"{'mean': -0.29999999999999999, 'sd': 0.37}",-0.7000000000000001,1,0.37645888328552246,0,"(1, 2)",397,0,True,False,True,False,False,True
398,0.5,0.5013141632080078,"{'mean': -0.29999999999999999, 'sd': 0.37}",-0.7000000000000001,1,0.32320499420166016,0,"(1, 3)",398,0,True,False,True,False,False,True
399,0.5,0.5002079010009766,"{'mean': -0.29999999999999999, 'sd': 0.37}",-0.7000000000000001,1,0.35419797897338867,0,"(1, 3)",399,0,True,False,True,False,False,True
400,0.5,0.500629186630249,"{'mean': -0.29999999999999999, 'sd': 0.37}",-0.30000000000000004,1,0.30141592025756836,0,"(0, 2)",400,0,True,False,False,False,True,False
401,0.5,0.5003869533538818,"{'mean': 0.29999999999999999, 'sd': 0.37}",0.30000000000000004,1,0.3624119758605957,1,"(1, 3)",401,1,True,True,True,False,True,False
402,0.5,0.5011801719665527,"{'mean': 0.29999999999999999, 'sd': 0.37}",0.5,3,0.009996891021728516,1,"(0, 2)",402,1,False,False,False,False,True,False
403,0.5,0.5002140998840332,"{'mean': 0.29999999999999999, 'sd': 0.37}",0.30000000000000004,0,0.27684998512268066,1,"(1, 2)",403,1,False,False,False,False,False,False
404,0.5,0.5002219676971436,"{'mean': 0.29999999999999999, 'sd': 0.37}",0.10000000000000009,0,0.3038899898529053,1,"(1, 2)",404,1,True,False,False,False,False,False
405,0.5,0.5012199878692627,"{'mean': 0.29999999999999999, 'sd': 0.37}",-0.30000000000000004,0,0.336989164352417,1,"(0, 3)",405,1,True,False,True,False,True,False
406,0.5,0.501213788986206,"{'mean': 0.29999999999999999, 'sd': 0.37}",-0.10000000000000009,1,0.3122270107269287,1,"(1, 2)",406,1,False,False,True,False,False,False
407,0.5,0.5011169910430908,"{'mean': 0.29999999999999999, 'sd': 0.37}",0.30000000000000004,1,0.31282806396484375,1,"(0, 2)",407,1,True,False,False,False,True,False
408,0.5,0.5012469291687012,"{'mean': -0.29999999999999999, 'sd': 0.37}",0.30000000000000004,1,0.26192402839660645,0,"(1, 2)",408,0,True,True,True,False,True,True
409,0.5,0.500291109085083,"{'mean': -0.29999999999999999, 'sd': 0.37}",-0.30000000000000004,1,0.2926950454711914,0,"(0, 2)",409,0,True,False,False,False,True,False
410,0.5,0.5008769035339355,"{'mean': -0.29999999999999999, 'sd': 0.37}",-0.5,2,0.46191906929016113,0,"(0, 3)",410,0,False,False,False,False,False,False
411,0.5,0.5011601448059082,"{'mean': -0.29999999999999999, 'sd': 0.37}",-0.5,0,0.5713410377502441,0,"(0, 2)",411,0,False,False,True,False,True,True
412,0.5,0.5012149810791016,"{'mean': -0.29999999999999999, 'sd': 0.37}",-0.7000000000000001,1,0.4635610580444336,0,"(1, 3)",412,0,False,False,True,False,False,True
413,0.5,0.5008249282836914,"{'mean': -0.29999999999999999, 'sd': 0.37}",0.30000000000000004,1,0.4203071594238281,0,"(1, 2)",413,0,True,False,True,False,False,True
414,0.5,0.5011169910430908,"{'mean': -0.29999999999999999, 'sd': 0.37}",-0.5,0,0.41147708892822266,0,"(0, 2)",414,0,False,False,True,False,False,True
415,0.5,0.5011031627655029,"{'mean': 0.29999999999999999, 'sd': 0.37}",0.8999999999999999,0,0.38271594047546387,1,"(1, 2)",415,1,True,True,False,False,True,False
416,0.5,0.5010941028594971,"{'mean': 0.29999999999999999, 'sd': 0.37}",0.30000000000000004,1,0.39423394203186035,1,"(1, 2)",416,1,False,False,True,False,True,False
417,0.5,0.501105785369873,"{'mean': 0.29999999999999999, 'sd': 0.37}",-0.10000000000000009,3,0.27031993865966797,1,"(1, 3)",417,1,False,False,False,True,True,True
418,0.5,0.5024459362030029,"{'mean': 0.29999999999999999, 'sd': 0.37}",0.5,2,0.4566190242767334,1,"(0, 2)",418,1,False,False,False,True,False,True
419,0.5,0.5011110305786133,"{'mean': 0.29999999999999999, 'sd': 0.37}",1.0,2,0.41724610328674316,1,"(0, 3)",419,1,True,False,False,False,False,False
420,0.5,0.5010800361633301,"{'mean': 0.29999999999999999, 'sd': 0.37}",-0.5,2,0.306164026260376,1,"(1, 3)",420,1,True,False,False,False,False,False
421,0.5,0.5006699562072754,"{'mean': 0.29999999999999999, 'sd': 0.37}",0.5,3,0.2695338726043701,1,"(1, 3)",421,1,False,False,False,True,False,True
422,0.5,0.5010600090026855,"{'mean': 0.29999999999999999, 'sd': 0.37}",-0.30000000000000004,3,0.3378129005432129,1,"(1, 3)",422,1,True,False,False,True,False,True
423,0.5,0.5011780261993408,"{'mean': 0.29999999999999999, 'sd': 0.37}",-0.30000000000000004,2,0.24481987953186035,1,"(1, 3)",423,1,False,False,False,False,False,False
424,0.5,0.5005080699920654,"{'mean': 0.29999999999999999, 'sd': 0.37}",0.30000000000000004,3,0.45938897132873535,1,"(0, 3)",424,1,False,False,False,True,False,True
425,0.5,0.5011389255523682,"{'mean': 0.29999999999999999, 'sd': 0.37}",0.7,3,0.332974910736084,1,"(0, 3)",425,1,True,False,False,True,False,True
426,0.5,0.5011680126190186,"{'mean': 0.29999999999999999, 'sd': 0.37}",-0.10000000000000009,2,0.5087878704071045,1,"(0, 3)",426,1,False,False,False,False,False,False
427,0.5,0.5012021064758301,"{'mean': -0.29999999999999999, 'sd': 0.37}",-0.5,3,0.4478139877319336,0,"(1, 2)",427,0,False,True,False,False,False,False
428,0.5,0.5011909008026123,"{'mean': 0.29999999999999999, 'sd': 0.37}",0.10000000000000009,3,0.30635905265808105,1,"(1, 3)",428,1,True,True,False,True,False,True
429,0.5,0.5011711120605469,"{'mean': 0.29999999999999999, 'sd': 0.37}",0.10000000000000009,3,0.35020899772644043,1,"(0, 3)",429,1,True,False,False,True,False,True
430,0.5,0.5011091232299805,"{'mean': -0.29999999999999999, 'sd': 0.37}",-0.5,2,0.3234548568725586,0,"(1, 3)",430,0,False,True,False,False,False,False
431,0.5,0.5002620220184326,"{'mean': -0.29999999999999999, 'sd': 0.37}",-0.5,2,0.34623098373413086,0,"(0, 2)",431,0,True,False,False,True,False,False
432,0.5,0.5012319087982178,"{'mean': -0.29999999999999999, 'sd': 0.37}",-0.5,1,0.24518299102783203,0,"(0, 2)",432,0,False,False,False,False,False,False
433,0.5,0.5003080368041992,"{'mean': -0.29999999999999999, 'sd': 0.37}",-0.30000000000000004,1,0.44077110290527344,0,"(0, 3)",433,0,True,False,False,False,False,False
434,0.5,0.5009989738464355,"{'mean': 0.29999999999999999, 'sd': 0.37}",0.10000000000000009,1,0.306473970413208,1,"(1, 3)",434,1,True,True,True,False,True,False
435,0.5,0.5011169910430908,"{'mean': 0.29999999999999999, 'sd': 0.37}",-0.10000000000000009,0,0.24608993530273438,1,"(1, 2)",435,1,False,False,False,False,True,False
436,0.5,0.5010159015655518,"{'mean': 0.29999999999999999, 'sd': 0.37}",0.10000000000000009,1,0.20630908012390137,1,"(1, 3)",436,1,False,False,True,False,True,False
437,0.5,0.5011589527130127,"{'mean': 0.29999999999999999, 'sd': 0.37}",-0.30000000000000004,3,0.21339988708496094,1,"(1, 2)",437,1,False,False,False,False,True,False
438,0.5,0.5011839866638184,"{'mean': 0.29999999999999999, 'sd': 0.37}",0.10000000000000009,2,0.4775199890136719,1,"(1, 2)",438,1,False,False,False,True,False,True
439,0.5,0.5012171268463135,"{'mean': 0.29999999999999999, 'sd': 0.37}",0.10000000000000009,2,0.33277010917663574,1,"(1, 2)",439,1,True,False,False,True,False,True
440,0.5,0.5011951923370361,"{'mean': 0.29999999999999999, 'sd': 0.37}",0.10000000000000009,3,0.38895583152770996,1,"(0, 2)",440,1,False,False,False,False,False,False
441,0.5,0.5010979175567627,"{'mean': 0.29999999999999999, 'sd': 0.37}",0.30000000000000004,2,0.3946220874786377,1,"(1, 3)",441,1,False,False,False,False,False,False
442,0.5,0.5011341571807861,"{'mean': 0.29999999999999999, 'sd': 0.37}",-0.10000000000000009,2,0.3525059223175049,1,"(0, 3)",442,1,True,False,False,False,False,False
443,0.5,0.5003681182861328,"{'mean': 0.29999999999999999, 'sd': 0.37}",0.30000000000000004,3,0.32065606117248535,1,"(0, 3)",443,1,False,False,False,True,False,True
444,0.5,0.5008630752563477,"{'mean': 0.29999999999999999, 'sd': 0.37}",0.7,3,0.7273759841918945,1,"(0, 2)",444,1,True,False,False,False,False,False
445,0.5,0.5012249946594238,"{'mean': 0.29999999999999999, 'sd': 0.37}",0.5,2,0.4681398868560791,1,"(1, 2)",445,1,False,False,False,True,False,True
446,0.5,0.5011861324310303,"{'mean': 0.29999999999999999, 'sd': 0.37}",0.30000000000000004,0,0.4402201175689697,1,"(1, 2)",446,1,False,False,False,False,False,False
447,0.5,0.5010919570922852,"{'mean': 0.29999999999999999, 'sd': 0.37}",0.5,0,0.43662309646606445,1,"(1, 3)",447,1,True,False,False,False,False,False
448,0.5,0.50034499168396,"{'mean': 0.29999999999999999, 'sd': 0.37}",0.5,3,0.4282200336456299,1,"(0, 3)",448,1,False,False,False,True,False,True
449,0.5,0.5011909008026123,"{'mean': 0.29999999999999999, 'sd': 0.37}",1.0,3,0.5146608352661133,1,"(1, 3)",449,1,True,False,False,True,False,True
450,0.5,0.5004119873046875,"{'mean': 0.29999999999999999, 'sd': 0.37}",0.8999999999999999,3,0.5029489994049072,1,"(0, 3)",450,1,True,False,False,True,False,True
451,0.5,0.5011210441589355,"{'mean': 0.29999999999999999, 'sd': 0.37}",0.5,2,0.3496577739715576,1,"(1, 2)",451,1,False,False,False,True,False,True
452,0.5,0.5011589527130127,"{'mean': 0.29999999999999999, 'sd': 0.37}",0.7,3,0.4371790885925293,1,"(1, 3)",452,1,False,False,False,True,False,True
453,0.5,0.5002059936523438,"{'mean': 0.29999999999999999, 'sd': 0.37}",0.10000000000000009,3,0.36477112770080566,1,"(1, 3)",453,1,True,False,False,True,False,True
454,0.5,0.5012319087982178,"{'mean': 0.29999999999999999, 'sd': 0.37}",0.10000000000000009,3,0.3954050540924072,1,"(0, 2)",454,1,True,False,False,False,False,False
455,0.5,0.5010428428649902,"{'mean': 0.29999999999999999, 'sd': 0.37}",0.10000000000000009,3,0.3752739429473877,1,"(0, 3)",455,1,True,False,False,True,False,True
456,0.5,0.5011401176452637,"{'mean': 0.29999999999999999, 'sd': 0.37}",0.5,2,0.3911149501800537,1,"(1, 2)",456,1,False,False,False,True,False,True
457,0.5,0.5011050701141357,"{'mean': 0.29999999999999999, 'sd': 0.37}",-0.10000000000000009,2,0.36386919021606445,1,"(0, 2)",457,1,True,False,False,True,False,True
458,0.5,0.5012471675872803,"{'mean': 0.29999999999999999, 'sd': 0.37}",0.5,3,0.2676229476928711,1,"(1, 2)",458,1,False,False,False,False,False,False
459,0.5,0.5012240409851074,"{'mean': 0.29999999999999999, 'sd': 0.37}",-0.10000000000000009,3,0.3340599536895752,1,"(0, 2)",459,1,True,False,False,False,False,False
460,0.5,0.5011651515960693,"{'mean': 0.29999999999999999, 'sd': 0.37}",0.8999999999999999,3,0.30280494689941406,1,"(1, 3)",460,1,True,False,False,True,False,True
