trial_count,FBDuration,c_dis,context,response,rt,state,stim,trial_count,ts,rep_resp,switch,con_shape,con_orient,subj_switch,correct,ts0_posterior_ignore,ts0_posterior_single,ts0_posterior_optimal,smoothed_ts0_ignore,smoothed_ts0_single,smoothed_ts0_optimal,smoothed_context
1,0,"{'mean': 0.29999999999999999, 'sd': 0.37}",0.7,3,0.9221889972686768,1,"(1, 3)",1,1,False,False,False,True,True,True,0.044449546858264494,0.044449546858264494,0.044449546858264494,0.044449546858264494,0.044449546858264494,0.044449546858264494,0.7
2,0,"{'mean': 0.29999999999999999, 'sd': 0.37}",0.5,2,0.9291009902954102,1,"(0, 3)",2,1,False,False,False,False,False,False,0.10052719154610551,0.012265722271562569,0.017224444267744318,0.08183464331682518,0.02299366380046321,0.026299478464584376,0.5666666666666667
3,0,"{'mean': 0.29999999999999999, 'sd': 0.37}",0.5,2,0.4190220832824707,1,"(1, 2)",3,1,True,False,False,True,False,True,0.10052719154610551,0.012265722271562569,0.014145901342890434,0.09251609944784252,0.016863411498234275,0.019354577252187838,0.5285714285714286
4,0,"{'mean': 0.29999999999999999, 'sd': 0.37}",0.7,3,0.5424718856811523,1,"(0, 3)",4,1,False,False,False,True,False,True,0.044449546858264494,0.005142002709015806,0.005793005302161498,0.0668806047334009,0.010611993477317757,0.012121738878840457,0.62
5,0,"{'mean': 0.29999999999999999, 'sd': 0.37}",0.7,3,0.7419872283935547,1,"(0, 3)",5,1,True,False,False,True,False,True,0.044449546858264494,0.005142002709015806,0.005406713310533716,0.05530328453978211,0.007788772435613524,0.00865591923068214,0.6612903225806451
6,0,"{'mean': 0.29999999999999999, 'sd': 0.37}",0.5,2,0.5668740272521973,1,"(0, 2)",6,1,False,False,False,True,False,True,0.10052719154610551,0.012265722271562569,0.01285044387205067,0.07827415793981939,0.010062778701492404,0.010786471429472505,0.5793650793650794
7,0,"{'mean': 0.29999999999999999, 'sd': 0.37}",-0.10000000000000009,1,0.89717698097229,1,"(0, 2)",7,1,False,False,False,False,False,False,0.6078481866369821,0.14692208625455871,0.16116241141163978,0.3451461094092557,0.07903124864949433,0.08656647268032845,0.237007874015748
8,0,"{'mean': 0.29999999999999999, 'sd': 0.37}",0.10000000000000009,3,1.2522921562194824,1,"(1, 3)",8,1,False,False,False,True,False,True,0.39215181336301785,0.06688830997225197,0.16075254665483033,0.36874112943310494,0.07293596962719227,0.12380497255772548,0.1682352941176471
9,0,"{'mean': 0.29999999999999999, 'sd': 0.37}",0.10000000000000009,3,0.9979491233825684,1,"(0, 3)",9,1,True,False,False,True,False,True,0.39215181336301785,0.06688830997225197,0.16050197782731776,0.38046937813380494,0.0699062223245216,0.14218938224268757,0.13405088062622314
10,0,"{'mean': 0.29999999999999999, 'sd': 0.37}",0.5,2,0.4641759395599365,1,"(1, 2)",10,1,False,False,False,True,False,True,0.10052719154610551,0.012265722271562569,0.03202345062113726,0.2403614607018381,0.04105780001062617,0.0870525718905529,0.3172043010752688
11,0,"{'mean': 0.29999999999999999, 'sd': 0.37}",-0.10000000000000009,0,1.305819034576416,1,"(1, 3)",11,1,False,False,False,False,False,False,0.6078481866369821,0.14692208625455871,0.18212909499600383,0.42419458593759163,0.09401580153177269,0.13461405682459382,0.10850024425989248
12,0,"{'mean': -0.29999999999999999, 'sd': 0.37}",-0.5,1,0.951530933380127,0,"(1, 2)",12,0,False,True,True,False,True,True,0.8994728084538944,0.498539002263731,0.7445435419607704,0.6618917287247438,0.29632679422995356,0.4396532718572897,-0.19582417582417586
13,0,"{'mean': -0.29999999999999999, 'sd': 0.37}",-0.9000000000000001,0,0.9121150970458984,0,"(0, 2)",13,0,False,False,True,False,False,True,0.981006551342516,0.8516069311563164,0.9915999467213079,0.821468619634571,0.5740007584407193,0.715660301553666,-0.5479550726407033
14,0,"{'mean': -0.29999999999999999, 'sd': 0.37}",0.30000000000000004,3,0.8814020156860352,0,"(1, 3)",14,0,False,False,False,True,True,False,0.21168000944053236,0.7073185337505506,0.6920802479558605,0.5165557041301113,0.6406637148795973,0.7038695551047115,-0.12395165720564004
15,0,"{'mean': -0.29999999999999999, 'sd': 0.37}",-1.0,3,1.324265956878662,0,"(1, 3)",15,0,True,False,False,True,False,False,0.9876632737913976,0.9986140543932752,0.9934254054876789,0.7521166777111689,0.8196443466918505,0.848651898702677,-0.5619891964476456
16,0,"{'mean': -0.29999999999999999, 'sd': 0.37}",-0.10000000000000009,1,1.2830660343170166,0,"(1, 3)",16,0,False,False,True,False,True,True,0.6078481866369821,0.933111690027748,0.9294570760549618,0.6799813314760433,0.8763788840601374,0.8890551038828047,-0.3309910734721905
17,0,"{'mean': -0.29999999999999999, 'sd': 0.37}",-0.5,0,0.7292771339416504,0,"(0, 2)",17,0,False,False,True,False,False,True,0.8994728084538944,0.9877342777284374,0.9796951553736083,0.7897279072648941,0.9320570056846441,0.934375475395201,-0.41549618145890393
18,0,"{'mean': -0.29999999999999999, 'sd': 0.37}",-0.5,1,0.6035919189453125,0,"(1, 2)",18,0,False,False,True,False,False,True,0.8994728084538944,0.9877342777284374,0.985512439379181,0.8446005671819801,0.9598957479029144,0.9599440549235815,-0.4577482519083096
19,0,"{'mean': -0.29999999999999999, 'sd': 0.37}",-0.30000000000000004,0,0.8377618789672852,0,"(0, 2)",19,0,False,False,True,False,False,True,0.7883199905594676,0.9710287725511645,0.9673725510816302,0.816460225197281,0.9654622708443393,0.9636583100869853,-0.37887397551341156
20,0,"{'mean': -0.29999999999999999, 'sd': 0.37}",-0.30000000000000004,0,0.5227110385894775,0,"(0, 2)",20,0,True,False,True,False,False,True,0.7883199905594676,0.9710287725511645,0.962698303754504,0.802390094460052,0.9682455243520692,0.9631783064629776,-0.3394369501466276
21,0,"{'mean': -0.29999999999999999, 'sd': 0.37}",-0.5,1,0.5750129222869873,0,"(1, 2)",21,0,False,False,True,False,False,True,0.8994728084538944,0.9877342777284374,0.9835968503284435,0.8509314746033071,0.9779899056867364,0.973387583263873,-0.4197185133545463
22,0,"{'mean': -0.29999999999999999, 'sd': 0.37}",-0.5,0,1.4499340057373047,0,"(1, 3)",22,0,False,False,False,False,True,False,0.8994728084538944,0.9877342777284374,0.9859449108926799,0.8752021473151801,0.9828620928692068,0.9796662485752269,-0.4598592662475744
23,0,"{'mean': -0.29999999999999999, 'sd': 0.37}",-0.10000000000000009,1,1.3071660995483398,0,"(1, 3)",23,0,False,False,True,False,True,True,0.6078481866369821,0.933111690027748,0.9252816273002002,0.7415251510405414,0.9579868884831219,0.9524739346961372,-0.279929611674501
24,0,"{'mean': -0.29999999999999999, 'sd': 0.37}",0.10000000000000009,2,0.8840179443359375,0,"(1, 2)",24,0,False,False,False,True,True,False,0.39215181336301785,0.8530779137454413,0.7723501439380781,0.5668384717896421,0.9055323979877503,0.862412033949,-0.08996479451446499
25,0,"{'mean': -0.29999999999999999, 'sd': 0.37}",0.10000000000000009,3,0.7516601085662842,0,"(1, 3)",25,0,False,False,False,True,False,False,0.39215181336301785,0.8530779137454413,0.6214469591061091,0.47949513997329585,0.8793051550849631,0.7419294929368951,0.005017605573463659
26,0,"{'mean': -0.29999999999999999, 'sd': 0.37}",-0.30000000000000004,0,1.1170120239257812,0,"(0, 3)",26,0,False,False,True,False,True,True,0.7883199905594676,0.9710287725511645,0.8466369326832864,0.6339075675673062,0.925166964501458,0.794283213590222,-0.14749119948582648
27,0,"{'mean': -0.29999999999999999, 'sd': 0.37}",-0.7000000000000001,1,0.636267900466919,0,"(1, 3)",27,0,False,False,True,False,False,True,0.9555504531417355,0.9948579972909842,0.9868486042884705,0.794729011552734,0.9600124811558405,0.8905659096567083,-0.42374560180116894
28,0,"{'mean': -0.29999999999999999, 'sd': 0.37}",-0.10000000000000009,2,0.87477707862854,0,"(1, 2)",28,0,False,False,False,True,True,False,0.6078481866369821,0.933111690027748,0.9257870294386813,0.7012885987467655,0.9465620855416875,0.9081764696132992,-0.2618728002975613
29,0,"{'mean': 0.29999999999999999, 'sd': 0.37}",0.5,2,0.6779439449310303,1,"(0, 2)",29,1,True,True,False,True,False,True,0.10052719154610551,0.501460997736269,0.3708760673912207,0.4009078945869328,0.7240115412244456,0.6395262680018599,0.11906360056076867
30,0,"{'mean': 0.29999999999999999, 'sd': 0.37}",0.30000000000000004,3,1.2030079364776611,1,"(1, 3)",30,1,False,False,False,True,False,True,0.21168000944053236,0.7073185337505506,0.15006912111371004,0.3062939519256165,0.7156650374797248,0.3947976943298637,0.20953180036463945
31,0,"{'mean': 0.29999999999999999, 'sd': 0.37}",0.10000000000000009,2,1.0506460666656494,1,"(1, 2)",31,1,False,False,False,True,False,True,0.39215181336301785,0.8530779137454413,0.15399302782371396,0.3492228826643075,0.784371475644577,0.27439536102072215,0.1547659001568174
32,0,"{'mean': 0.29999999999999999, 'sd': 0.37}",0.8999999999999999,2,0.5407788753509521,1,"(1, 2)",32,1,True,False,False,True,False,True,0.018993448657483984,0.14839306884368392,0.005532146473270511,0.18410816562245197,0.4663822721700928,0.13996375371569653,0.5273829501651653
33,0,"{'mean': 0.29999999999999999, 'sd': 0.37}",0.7,2,0.6267759799957275,1,"(0, 2)",33,1,True,False,False,True,False,True,0.044449546858264494,0.005142002709015806,0.005394737539007418,0.11427885623222904,0.2357621374127066,0.07267924561951902,0.6136914750926303
35,0,"{'mean': 0.29999999999999999, 'sd': 0.37}",0.10000000000000009,3,0.7999951839447021,1,"(1, 3)",35,1,False,False,False,True,False,True,0.39215181336301785,0.06688830997225197,0.0698860348877837,0.2532153348057106,0.1513252236875644,0.07128264025357006,0.35684573753136484
36,0,"{'mean': 0.29999999999999999, 'sd': 0.37}",-0.10000000000000009,0,0.9049420356750488,1,"(0, 3)",36,1,False,False,True,False,True,False,0.6078481866369821,0.14692208625455871,0.22257673974265105,0.43053176072650695,0.14912365497099747,0.14692969000031217,0.1284228687590344
37,0,"{'mean': 0.29999999999999999, 'sd': 0.37}",0.30000000000000004,2,0.7419052124023438,1,"(0, 2)",37,1,False,False,False,True,True,True,0.21168000944053236,0.028971227448835405,0.09372935801445413,0.3211058850819273,0.08904744120904222,0.12032952400699608,0.2142114343807656
38,0,"{'mean': 0.29999999999999999, 'sd': 0.37}",1.0,2,0.5179080963134766,1,"(1, 2)",38,1,True,False,False,True,False,True,0.012336726208602404,0.0013859456067248715,0.002642265203320279,0.16672130564414153,0.04521669340756464,0.061485894604730036,0.6071057171932415
39,0,"{'mean': 0.29999999999999999, 'sd': 0.37}",0.5,3,0.6222391128540039,1,"(1, 3)",39,1,False,False,False,True,False,True,0.10052719154610551,0.012265722271562569,0.012550858870351227,0.1336242485950031,0.028741207839503666,0.03701837673745162,0.5535528585964259
40,0,"{'mean': 0.29999999999999999, 'sd': 0.37}",0.5,3,0.8134109973907471,1,"(0, 3)",40,1,True,False,False,True,False,True,0.10052719154610551,0.012265722271562569,0.013630701222060958,0.1170757200705242,0.020503465055518134,0.02532453897973502,0.5267764292981643
41,0,"{'mean': 0.29999999999999999, 'sd': 0.37}",-0.5,1,1.1787030696868896,1,"(1, 2)",41,1,False,False,True,False,True,False,0.8994728084538944,0.498539002263731,0.5274339216508617,0.5082742642625652,0.2595212336598419,0.2763792303155267,0.01338821464861519
42,0,"{'mean': 0.29999999999999999, 'sd': 0.37}",0.10000000000000009,3,1.2364609241485596,1,"(1, 3)",42,1,False,False,False,True,True,True,0.39215181336301785,0.06688830997225197,0.4132778798861098,0.4502130388127651,0.16320477181600315,0.34482855510084937,0.056694107324327336
43,0,"{'mean': -0.29999999999999999, 'sd': 0.37}",0.10000000000000009,2,0.5476398468017578,0,"(1, 2)",43,0,False,True,False,True,False,False,0.39215181336301785,0.06688830997225197,0.3279241804740775,0.42118242608788486,0.1150465408941166,0.3363763677874615,0.07834705366216864
44,0,"{'mean': -0.29999999999999999, 'sd': 0.37}",-0.7000000000000001,1,1.0475029945373535,0,"(1, 3)",44,0,False,False,True,False,True,True,0.9555504531417355,0.7048930425445474,0.9243314241652829,0.6883664396148406,0.40996979171936554,0.6303538959764056,-0.31082647316896
45,0,"{'mean': -0.29999999999999999, 'sd': 0.37}",-0.5,0,0.47110795974731445,0,"(0, 3)",45,0,False,False,True,False,False,True,0.8994728084538944,0.9877342777284374,0.9790744011214254,0.7939196240343734,0.6988520347239179,0.8047141485489254,-0.40541323658448536
46,0,"{'mean': -0.29999999999999999, 'sd': 0.37}",-0.7000000000000001,1,0.7822380065917969,0,"(1, 3)",46,0,False,False,True,False,False,True,0.9555504531417355,0.9948579972909842,0.9938893851485879,0.8747350385880568,0.8468550160074553,0.8993017668487593,-0.5527066182922469
47,0,"{'mean': 0.29999999999999999, 'sd': 0.37}",-0.10000000000000009,0,0.7286479473114014,1,"(0, 3)",47,1,False,True,True,False,False,False,0.6078481866369821,0.933111690027748,0.9297154527081323,0.7412916126125176,0.8899833530176022,0.914508609778446,-0.3263533091461203
48,0,"{'mean': 0.29999999999999999, 'sd': 0.37}",0.8999999999999999,2,1.0310211181640625,1,"(1, 2)",48,1,False,False,False,True,True,True,0.018993448657483984,0.14839306884368392,0.09466879299092283,0.38014253063499825,0.5191882109306404,0.5045887013846815,0.28682334542694415
49,0,"{'mean': 0.29999999999999999, 'sd': 0.37}",0.8999999999999999,2,0.42139387130737305,1,"(1, 2)",49,1,True,False,False,True,False,True,0.018993448657483984,0.002146624791058985,0.004110876392530875,0.19956798964624048,0.2606674178608488,0.25434978888860527,0.5934116727134732
50,0,"{'mean': 0.29999999999999999, 'sd': 0.37}",1.0,3,0.9180409908294678,1,"(1, 3)",50,1,False,False,False,True,False,True,0.012336726208602404,0.0013859456067248715,0.0014367023266802735,0.10595235792742128,0.1310266817337866,0.12789324560764254,0.796705836356737
51,0,"{'mean': 0.29999999999999999, 'sd': 0.37}",0.7,3,1.2041969299316406,1,"(1, 3)",51,1,True,False,False,True,False,True,0.044449546858264494,0.005142002709015806,0.005207411194491667,0.07520095239284286,0.06808434222140114,0.06655032840106705,0.7483529181783684
52,0,"{'mean': 0.29999999999999999, 'sd': 0.37}",0.10000000000000009,3,0.7805421352386475,1,"(0, 3)",52,1,True,False,False,True,False,True,0.39215181336301785,0.06688830997225197,0.06978178239233901,0.23367638287793044,0.06748632609682656,0.06816605539670303,0.42417645908918405
53,0,"{'mean': 0.29999999999999999, 'sd': 0.37}",0.5,3,0.5298478603363037,1,"(1, 3)",53,1,True,False,False,True,False,True,0.10052719154610551,0.012265722271562569,0.020213112311486797,0.16710178721201793,0.03987602418419456,0.04418958385409491,0.46208822954459206
54,0,"{'mean': 0.29999999999999999, 'sd': 0.37}",0.10000000000000009,3,0.4961848258972168,1,"(0, 3)",54,1,True,False,False,True,False,True,0.39215181336301785,0.06688830997225197,0.07816952718690248,0.2796268002875179,0.05338216707822326,0.0611795555204987,0.28104411477229607
55,0,"{'mean': 0.29999999999999999, 'sd': 0.37}",0.10000000000000009,2,0.5702948570251465,1,"(0, 2)",55,1,False,False,False,True,False,True,0.39215181336301785,0.06688830997225197,0.11127752986542788,0.33588930682526785,0.06013523852523761,0.08622854269296329,0.19052205738614805
56,0,"{'mean': 0.29999999999999999, 'sd': 0.37}",0.5,2,0.5408320426940918,1,"(1, 2)",56,1,True,False,False,True,False,True,0.10052719154610551,0.012265722271562569,0.025388121030219715,0.21820824918568668,0.03620048039840009,0.0558083318615915,0.345261028693074
57,0,"{'mean': 0.29999999999999999, 'sd': 0.37}",0.30000000000000004,2,0.44901204109191895,1,"(1, 2)",57,1,True,False,False,True,False,True,0.21168000944053236,0.028971227448835405,0.03542323444237601,0.21494412931310952,0.03258585392361775,0.04561578315198375,0.322630514346537
58,0,"{'mean': 0.29999999999999999, 'sd': 0.37}",0.30000000000000004,2,0.40921902656555176,1,"(1, 2)",58,1,True,False,False,True,False,True,0.21168000944053236,0.028971227448835405,0.0380318485484724,0.21331206937682096,0.030778540686226576,0.041823815850228076,0.3113152571732685
59,0,"{'mean': 0.29999999999999999, 'sd': 0.37}",0.5,2,0.38970088958740234,1,"(1, 2)",59,1,True,False,False,True,False,True,0.10052719154610551,0.012265722271562569,0.016486612119435997,0.15691963046146323,0.021522131478894573,0.029155213984832035,0.40565762858663423
60,0,"{'mean': 0.29999999999999999, 'sd': 0.37}",-0.30000000000000004,0,0.9184081554412842,1,"(0, 3)",60,1,False,False,True,False,True,False,0.7883199905594676,0.29268146624944924,0.32218648688355883,0.4726198105104654,0.15710179886417192,0.17567085043419545,0.052828814293317095
61,0,"{'mean': 0.29999999999999999, 'sd': 0.37}",0.30000000000000004,0,1.2650468349456787,1,"(0, 3)",61,1,True,False,True,False,False,False,0.21168000944053236,0.028971227448835405,0.13011129406021438,0.3421499099754989,0.09303651315650366,0.1528910722472049,0.17641440714665857
62,0,"{'mean': 0.29999999999999999, 'sd': 0.37}",0.30000000000000004,2,0.8940179347991943,1,"(1, 2)",62,1,False,False,False,True,True,True,0.21168000944053236,0.028971227448835405,0.06441898697183648,0.2769149597080156,0.06100387030266953,0.1086550296095207,0.2382072035733293
63,0,"{'mean': 0.29999999999999999, 'sd': 0.37}",0.5,2,0.5288479328155518,1,"(1, 2)",63,1,True,False,False,True,False,True,0.10052719154610551,0.012265722271562569,0.0195700414644574,0.18872107562706056,0.03663479628711605,0.06411253553698905,0.3691036017866647
64,0,"{'mean': 0.29999999999999999, 'sd': 0.37}",0.30000000000000004,2,0.7210979461669922,1,"(0, 2)",64,1,True,False,False,True,False,True,0.21168000944053236,0.028971227448835405,0.03392615984479133,0.20020054253379646,0.032803011867975726,0.04901934769089019,0.33455180089333236
65,0,"{'mean': 0.29999999999999999, 'sd': 0.37}",0.5,3,0.6337580680847168,1,"(0, 3)",65,1,False,False,False,True,False,True,0.10052719154610551,0.012265722271562569,0.016018566959148623,0.15036386703995097,0.02253436706976915,0.03251895732501941,0.4172759004466662
66,0,"{'mean': 0.29999999999999999, 'sd': 0.37}",0.5,3,0.42053699493408203,1,"(1, 3)",66,1,True,False,False,True,False,True,0.10052719154610551,0.012265722271562569,0.014012605500699613,0.12544552929302824,0.01740004467066586,0.02326578141285951,0.4586379502233331
67,0,"{'mean': 0.29999999999999999, 'sd': 0.37}",0.5,3,0.6330430507659912,1,"(1, 3)",67,1,True,False,False,True,False,True,0.10052719154610551,0.012265722271562569,0.013791431111729362,0.11298636041956688,0.014832883471114215,0.018528606262294436,0.47931897511166655
68,0,"{'mean': 0.29999999999999999, 'sd': 0.37}",0.7,3,0.42126893997192383,1,"(1, 3)",68,1,True,False,False,True,False,True,0.044449546858264494,0.005142002709015806,0.005776500446475073,0.07871795363891568,0.00998744309006501,0.012152553354384754,0.5896594875558332
69,0,"{'mean': 0.29999999999999999, 'sd': 0.37}",0.10000000000000009,2,0.5808000564575195,1,"(1, 2)",69,1,False,False,False,True,False,True,0.39215181336301785,0.06688830997225197,0.07009853256715526,0.23543488350096675,0.03843787653115849,0.041125542960770006,0.34482974377791664
71,0,"{'mean': 0.29999999999999999, 'sd': 0.37}",-0.5,1,0.7090311050415039,1,"(1, 2)",71,1,False,False,True,False,True,False,0.8994728084538944,0.498539002263731,0.6233243765711719,0.5674538459774305,0.2684884393974447,0.33222495976597094,-0.07758512811104168
72,0,"{'mean': -0.29999999999999999, 'sd': 0.37}",-0.5,1,0.6092162132263184,0,"(1, 3)",72,0,True,True,True,False,False,True,0.8994728084538944,0.498539002263731,0.9302971840495764,0.7334633272156625,0.3835137208305879,0.6312610719077737,-0.28879256405552084
73,0,"{'mean': -0.29999999999999999, 'sd': 0.37}",-0.7000000000000001,0,0.52152419090271,0,"(0, 3)",73,0,False,False,True,False,False,True,0.9555504531417355,0.7048930425445474,0.9914905838611494,0.844506890178699,0.5442033816875677,0.8113758278844616,-0.4943962820277604
74,0,"{'mean': -0.29999999999999999, 'sd': 0.37}",-0.10000000000000009,1,0.6023881435394287,0,"(1, 3)",74,0,False,False,True,False,False,True,0.6078481866369821,0.933111690027748,0.9283788680686151,0.7261775384078406,0.7386575358576578,0.8698773479765384,-0.29719814101388026
75,0,"{'mean': -0.29999999999999999, 'sd': 0.37}",0.10000000000000009,1,0.460582971572876,0,"(1, 3)",75,0,True,False,True,False,False,True,0.39215181336301785,0.8530779137454413,0.7755994245407559,0.5591646758854292,0.7958677248015495,0.8227383862586471,-0.09859907050694008
76,0,"{'mean': -0.29999999999999999, 'sd': 0.37}",0.30000000000000004,2,0.5589301586151123,0,"(0, 2)",76,0,False,False,False,True,True,False,0.21168000944053236,0.7073185337505506,0.4090275668177723,0.38542234266298075,0.75159312927605,0.6158829765382097,0.10070046474652998
77,0,"{'mean': -0.29999999999999999, 'sd': 0.37}",-0.7000000000000001,0,0.8068490028381348,0,"(0, 2)",77,0,False,False,True,False,True,True,0.9555504531417355,0.9948579972909842,0.9412953817710284,0.6704863979023581,0.8732255632835171,0.7785891791546191,-0.29964976762673506
78,0,"{'mean': -0.29999999999999999, 'sd': 0.37}",-0.30000000000000004,0,0.77907395362854,0,"(0, 2)",78,0,True,False,True,False,False,True,0.7883199905594676,0.9710287725511645,0.9557839847124224,0.7294031942309128,0.9221271679173408,0.8671865819335207,-0.2998248838133676
79,0,"{'mean': -0.29999999999999999, 'sd': 0.37}",-0.7000000000000001,0,0.500891923904419,0,"(0, 3)",79,0,True,False,True,False,False,True,0.9555504531417355,0.9948579972909842,0.9927695599261112,0.8424768236863241,0.9584925826041626,0.929978070929816,-0.4999124419066838
80,0,"{'mean': -0.29999999999999999, 'sd': 0.37}",-0.10000000000000009,1,0.5574619770050049,0,"(1, 3)",80,0,False,False,True,False,False,True,0.6078481866369821,0.933111690027748,0.9290917342825324,0.7251625051616531,0.9458021363159552,0.9295349026061742,-0.29995622095334196
81,0,"{'mean': -0.29999999999999999, 'sd': 0.37}",-0.9000000000000001,0,0.4925680160522461,0,"(0, 2)",81,0,False,False,True,False,False,True,0.981006551342516,0.9978533752089411,0.9964145281035882,0.8530845282520846,0.9718277557624482,0.9629747153548812,-0.599978110476671
82,0,"{'mean': -0.29999999999999999, 'sd': 0.37}",0.10000000000000009,1,0.5335400104522705,0,"(1, 2)",82,0,False,False,True,False,False,True,0.39215181336301785,0.8530779137454413,0.8490893126360294,0.6226181708075512,0.9124528347539447,0.9060320139954553,-0.24998905523833548
83,0,"{'mean': -0.29999999999999999, 'sd': 0.37}",-0.10000000000000009,1,0.6373789310455322,0,"(1, 2)",83,0,True,False,True,False,False,True,0.6078481866369821,0.933111690027748,0.8454957964577329,0.6152331787222667,0.9227822623908464,0.8757639052265941,-0.17499452761916778
84,0,"{'mean': -0.29999999999999999, 'sd': 0.37}",-0.30000000000000004,1,0.5354630947113037,0,"(1, 3)",84,0,True,False,True,False,False,True,0.7883199905594676,0.9710287725511645,0.9282170145726768,0.7017765846408671,0.9469055174710055,0.9019904598996354,-0.23749726380958391
85,0,"{'mean': -0.29999999999999999, 'sd': 0.37}",-0.5,1,0.4318208694458008,0,"(1, 3)",85,0,True,False,True,False,False,True,0.8994728084538944,0.9877342777284374,0.9795454568473029,0.8006246965473808,0.9673198975997215,0.9407679583734692,-0.36874863190479196
86,0,"{'mean': -0.29999999999999999, 'sd': 0.37}",-0.5,1,0.4012720584869385,0,"(1, 2)",86,0,True,False,True,False,False,True,0.8994728084538944,0.9877342777284374,0.9854957932258429,0.8500487525006376,0.9775270876640794,0.9631318757996561,-0.43437431595239595
87,0,"{'mean': -0.29999999999999999, 'sd': 0.37}",-0.5,0,0.8199501037597656,0,"(0, 3)",87,0,False,False,True,False,False,True,0.8994728084538944,0.9877342777284374,0.9861544303936202,0.874760780477266,0.9826306826962583,0.9746431530966382,-0.467187157976198
88,0,"{'mean': -0.29999999999999999, 'sd': 0.37}",-0.5,0,0.4228248596191406,0,"(0, 3)",88,0,True,False,True,False,False,True,0.8994728084538944,0.9877342777284374,0.9862269544717289,0.8871167944655802,0.9851824802123479,0.9804350537841835,-0.48359357898809896
89,0,"{'mean': -0.29999999999999999, 'sd': 0.37}",-0.10000000000000009,1,0.921746015548706,0,"(1, 2)",89,0,False,False,True,False,False,True,0.6078481866369821,0.933111690027748,0.9254393927724714,0.7474824905512811,0.9591470851200479,0.9529372232783275,-0.2917967894940495
90,0,"{'mean': -0.29999999999999999, 'sd': 0.37}",0.30000000000000004,3,0.7290248870849609,0,"(1, 3)",90,0,False,False,False,True,True,False,0.21168000944053236,0.7073185337505506,0.5856515003981227,0.47958124999590673,0.8332328094352992,0.7692943618382251,0.00410160525297526
91,0,"{'mean': 0.29999999999999999, 'sd': 0.37}",0.7,3,0.7946169376373291,1,"(0, 3)",91,1,True,True,False,True,False,True,0.044449546858264494,0.2951069574554525,0.057751888859385606,0.2620153984270856,0.5641698834453759,0.41352312534880536,0.3520508026264876
92,0,"{'mean': 0.29999999999999999, 'sd': 0.37}",0.10000000000000009,3,0.7254040241241455,1,"(1, 3)",92,1,True,False,False,True,False,True,0.39215181336301785,0.06688830997225197,0.09948271620265521,0.3270836058950517,0.3155290967088139,0.2565029207757303,0.22602540131324383
93,0,"{'mean': 0.29999999999999999, 'sd': 0.37}",-0.10000000000000009,2,0.5736150741577148,1,"(0, 2)",93,1,False,False,False,True,False,True,0.6078481866369821,0.14692208625455871,0.2533399747156831,0.4674658962660169,0.2312255914816863,0.2549214477457067,0.06301270065662187
94,0,"{'mean': 0.29999999999999999, 'sd': 0.37}",0.8999999999999999,3,0.5662519931793213,1,"(1, 3)",94,1,False,False,False,True,False,True,0.018993448657483984,0.002146624791058985,0.008333599387895149,0.24322967246175045,0.11668610813637265,0.1316275235668009,0.4815063503283109
95,0,"{'mean': 0.29999999999999999, 'sd': 0.37}",0.7,3,0.7820658683776855,1,"(0, 3)",95,1,True,False,False,True,False,True,0.044449546858264494,0.005142002709015806,0.005523626939040095,0.14383960966000747,0.06091405542269423,0.0685755752529205,0.5907531751641555
96,0,"{'mean': 0.29999999999999999, 'sd': 0.37}",0.10000000000000009,2,0.6377599239349365,1,"(0, 2)",96,1,False,False,False,True,False,True,0.39215181336301785,0.06688830997225197,0.06995777223072883,0.2679957115115127,0.0639011826974731,0.06926667374182466,0.3453765875820778
97,0,"{'mean': 0.29999999999999999, 'sd': 0.37}",1.0,3,0.6367580890655518,1,"(1, 3)",97,1,False,False,False,True,False,True,0.012336726208602404,0.0013859456067248715,0.002302822564156705,0.14016621886005753,0.032643564152098986,0.03578474815299068,0.6726882937910389
98,0,"{'mean': 0.29999999999999999, 'sd': 0.37}",-0.5,1,1.0237700939178467,1,"(1, 2)",98,1,False,False,True,False,True,False,0.8994728084538944,0.498539002263731,0.5036149330725032,0.519819513656976,0.265591283207915,0.26969984061274693,0.08634414689551945
99,0,"{'mean': 0.29999999999999999, 'sd': 0.37}",0.30000000000000004,3,0.8036799430847168,1,"(1, 3)",99,1,False,False,False,True,True,True,0.21168000944053236,0.028971227448835405,0.2136168038175306,0.36574976154875416,0.1472812553283752,0.24165832221513878,0.19317207344775975
100,0,"{'mean': 0.29999999999999999, 'sd': 0.37}",0.7,2,1.0223109722137451,1,"(1, 2)",100,1,False,False,False,True,False,True,0.044449546858264494,0.005142002709015806,0.01698945244197895,0.20509965420350934,0.07621162901869549,0.12932388732855887,0.44658603672387986
102,0,"{'mean': 0.29999999999999999, 'sd': 0.37}",0.7,3,0.7402729988098145,1,"(0, 3)",102,1,False,False,False,True,False,True,0.044449546858264494,0.005142002709015806,0.005925769042398144,0.12477460053088692,0.04067681586385565,0.0676248281854785,0.5732930183619399
103,0,"{'mean': 0.29999999999999999, 'sd': 0.37}",-0.10000000000000009,1,1.067559003829956,1,"(1, 3)",103,1,False,False,True,False,True,False,0.6078481866369821,0.14692208625455871,0.1535076950168538,0.36631139358393455,0.09379945105920719,0.11056626160116614,0.2366465091809699
104,0,"{'mean': 0.29999999999999999, 'sd': 0.37}",0.5,3,0.7454521656036377,1,"(1, 3)",104,1,False,False,False,True,True,True,0.10052719154610551,0.012265722271562569,0.031045366324671485,0.23341929256502003,0.05303258666538488,0.07080581396291881,0.368323254590485
105,0,"{'mean': 0.29999999999999999, 'sd': 0.37}",0.10000000000000009,2,0.6847519874572754,1,"(1, 2)",105,1,False,False,False,True,False,True,0.39215181336301785,0.06688830997225197,0.08427090894141262,0.31278555296401894,0.05996044831881842,0.07753836145216572,0.23416162729524254
106,0,"{'mean': 0.29999999999999999, 'sd': 0.37}",0.7,3,1.0984292030334473,1,"(0, 3)",106,1,False,False,False,True,False,True,0.044449546858264494,0.005142002709015806,0.009267049623751572,0.1786175499111417,0.03255122551391711,0.04340270553795865,0.4670808136476212
107,0,"{'mean': 0.29999999999999999, 'sd': 0.37}",0.10000000000000009,2,0.6157770156860352,1,"(1, 2)",107,1,False,False,False,True,False,True,0.39215181336301785,0.06688830997225197,0.07204366989726668,0.28538468163707975,0.049719767743084536,0.057723187717612666,0.28354040682381065
108,0,"{'mean': 0.29999999999999999, 'sd': 0.37}",0.5,3,0.5284550189971924,1,"(0, 3)",108,1,False,False,False,True,False,True,0.10052719154610551,0.012265722271562569,0.020486051648900286,0.19295593659159263,0.030992745007323554,0.03910461968325647,0.3917702034119053
109,0,"{'mean': 0.29999999999999999, 'sd': 0.37}",0.30000000000000004,2,0.5604469776153564,1,"(1, 2)",109,1,False,False,False,True,False,True,0.21168000944053236,0.028971227448835405,0.03416112323048472,0.2023179730160625,0.02998198622807948,0.036632871456870594,0.34588510170595266
110,0,"{'mean': 0.29999999999999999, 'sd': 0.37}",-0.30000000000000004,0,0.9626240730285645,1,"(0, 3)",110,1,False,False,True,False,True,False,0.7883199905594676,0.29268146624944924,0.3520690282355545,0.495318981787765,0.16133172623876435,0.19435094984621257,0.022942550852976307
111,0,"{'mean': 0.29999999999999999, 'sd': 0.37}",-0.10000000000000009,0,0.9475200176239014,1,"(0, 2)",111,1,True,False,True,False,False,False,0.6078481866369821,0.14692208625455871,0.4889386955819139,0.5515835842123735,0.15412690624666153,0.3416448227140632,-0.03852872457351189
112,0,"{'mean': 0.29999999999999999, 'sd': 0.37}",-0.30000000000000004,1,0.7700321674346924,1,"(1, 3)",112,1,False,False,True,False,False,False,0.7883199905594676,0.29268146624944924,0.7823524739061724,0.6699517873859205,0.2234041862480554,0.5619986483101178,-0.16926436228675595
113,0,"{'mean': 0.29999999999999999, 'sd': 0.37}",0.5,3,0.9892148971557617,1,"(1, 2)",113,1,False,False,False,False,True,False,0.10052719154610551,0.012265722271562569,0.22836756147642082,0.38523948946601305,0.11783495425980897,0.3951831048932693,0.16536781885662202
114,0,"{'mean': 0.29999999999999999, 'sd': 0.37}",0.5,2,0.6745898723602295,1,"(0, 2)",114,1,False,False,False,True,False,True,0.10052719154610551,0.012265722271562569,0.04218791440218708,0.24288334050605928,0.06505033826568576,0.2186855096477282,0.332683909428311
115,0,"{'mean': 0.29999999999999999, 'sd': 0.37}",0.7,3,0.6467771530151367,1,"(0, 3)",115,1,False,False,False,True,False,True,0.044449546858264494,0.005142002709015806,0.0071311143723247275,0.1436664436821619,0.03509617048735079,0.11290831201002646,0.5163419547141554
116,0,"{'mean': 0.29999999999999999, 'sd': 0.37}",0.5,3,1.0867459774017334,1,"(0, 3)",116,1,True,False,False,True,False,True,0.10052719154610551,0.012265722271562569,0.013037976158309707,0.1220968176141337,0.02368094637945668,0.06297314408416808,0.5081709773570777
117,0,"{'mean': 0.29999999999999999, 'sd': 0.37}",0.10000000000000009,3,0.6079490184783936,1,"(0, 3)",117,1,True,False,False,True,False,True,0.39215181336301785,0.06688830997225197,0.07414955828158017,0.2571243154885758,0.045284628175854325,0.06856135118287413,0.3040854886785389
118,0,"{'mean': -0.29999999999999999, 'sd': 0.37}",-0.7000000000000001,1,0.7298598289489746,0,"(1, 3)",118,0,False,True,True,False,True,True,0.9555504531417355,0.7048930425445474,0.8029181777940768,0.6063373843151556,0.3750888353602009,0.43573976448847546,-0.19795725566073058
119,0,"{'mean': -0.29999999999999999, 'sd': 0.37}",0.10000000000000009,1,0.7284150123596191,0,"(1, 3)",119,0,True,False,True,False,False,True,0.39215181336301785,0.8530779137454413,0.6501871221687339,0.49924459883908673,0.6140833745528211,0.5429634433286047,-0.048978627830365246
120,0,"{'mean': -0.29999999999999999, 'sd': 0.37}",-0.30000000000000004,0,0.5171949863433838,0,"(0, 2)",120,0,False,False,True,False,False,True,0.7883199905594676,0.9710287725511645,0.8587579486820512,0.6437822946992772,0.7925560735519928,0.700860696005328,-0.17448931391518263
121,0,"{'mean': -0.29999999999999999, 'sd': 0.37}",-0.7000000000000001,0,0.5620729923248291,0,"(0, 2)",121,0,True,False,True,False,False,True,0.9555504531417355,0.9948579972909842,0.9875672050524467,0.7996663739205063,0.8937070354214884,0.8442139505288873,-0.43724465695759135
122,0,"{'mean': -0.29999999999999999, 'sd': 0.37}",-0.30000000000000004,0,0.573387861251831,0,"(0, 3)",122,0,True,False,True,False,False,True,0.7883199905594676,0.9710287725511645,0.9678952144251125,0.7939931822399869,0.9323679039863264,0.9060545824769999,-0.3686223284787957
123,0,"{'mean': -0.29999999999999999, 'sd': 0.37}",-0.30000000000000004,0,0.36988401412963867,0,"(0, 3)",123,0,True,False,True,False,False,True,0.7883199905594676,0.9710287725511645,0.9628345115343174,0.7911565863997272,0.9516983382687454,0.9344445470056586,-0.3343111642393979
124,0,"{'mean': -0.29999999999999999, 'sd': 0.37}",-1.0,1,0.654426097869873,0,"(1, 2)",124,0,False,False,True,False,False,True,0.9876632737913976,0.9986140543932752,0.9981414309267533,0.8894099300955625,0.9751561963310102,0.966292988966206,-0.6671555821196989
125,0,"{'mean': -0.29999999999999999, 'sd': 0.37}",0.10000000000000009,3,1.3645801544189453,0,"(0, 2)",125,0,False,False,False,False,True,False,0.39215181336301785,0.8530779137454413,0.8510088901579159,0.6407808717292902,0.9141170550382258,0.908650939562061,-0.2835777910598494
126,0,"{'mean': -0.29999999999999999, 'sd': 0.37}",-0.30000000000000004,0,1.1493210792541504,0,"(0, 2)",126,0,False,False,True,False,True,True,0.7883199905594676,0.9710287725511645,0.9299032668898901,0.7145504311443789,0.9425729137946952,0.9192771032259756,-0.2917888955299247
127,0,"{'mean': -0.29999999999999999, 'sd': 0.37}",-0.30000000000000004,0,0.39185595512390137,0,"(0, 2)",127,0,True,False,True,False,False,True,0.7883199905594676,0.9710287725511645,0.9526886170927481,0.7514352108519232,0.9568008431729298,0.9359828601593618,-0.2958944477649624
128,0,"{'mean': -0.29999999999999999, 'sd': 0.37}",-0.30000000000000004,0,0.5399651527404785,0,"(0, 3)",128,0,True,False,True,False,False,True,0.7883199905594676,0.9710287725511645,0.9588337514629618,0.7698776007056953,0.9639148078620472,0.9474083058111618,-0.2979472238824812
129,0,"{'mean': -0.29999999999999999, 'sd': 0.37}",-0.7000000000000001,0,0.9016900062561035,0,"(0, 2)",129,0,True,False,True,False,False,True,0.9555504531417355,0.9948579972909842,0.9929187881474684,0.8627140269237155,0.9793864025765158,0.9701635469793151,-0.4989736119412406
130,0,"{'mean': -0.29999999999999999, 'sd': 0.37}",-0.5,0,1.129958152770996,0,"(0, 3)",130,0,True,False,True,False,False,True,0.8994728084538944,0.9877342777284374,0.9869674579732908,0.881093417688805,0.9835603401524766,0.9785655024763029,-0.49948680597062034
131,0,"{'mean': -0.29999999999999999, 'sd': 0.37}",-0.10000000000000009,1,0.6831328868865967,0,"(1, 2)",131,0,False,False,True,False,False,True,0.6078481866369821,0.933111690027748,0.925853479806321,0.7444708021628936,0.9583360150901123,0.9522094911413119,-0.2997434029853102
132,0,"{'mean': -0.29999999999999999, 'sd': 0.37}",-0.30000000000000004,0,0.5138709545135498,0,"(0, 3)",132,0,False,False,True,False,False,True,0.7883199905594676,0.9710287725511645,0.9515769887432662,0.7663953963611806,0.9646823938206384,0.951893239942289,-0.29987170149265513
133,0,"{'mean': -0.29999999999999999, 'sd': 0.37}",-0.7000000000000001,1,0.6887001991271973,0,"(1, 2)",133,0,False,False,True,False,False,True,0.9555504531417355,0.9948579972909842,0.9925623941077546,0.860972924751458,0.9797701955558114,0.9722278170250218,-0.4999358507463276
134,0,"{'mean': -0.29999999999999999, 'sd': 0.37}",0.10000000000000009,2,0.8930990695953369,0,"(1, 2)",134,0,False,False,False,True,True,False,0.39215181336301785,0.8530779137454413,0.8448173197360074,0.626562369057238,0.9164240546506264,0.9085225683805146,-0.19996792537316377
135,0,"{'mean': -0.29999999999999999, 'sd': 0.37}",-0.9000000000000001,1,0.7409369945526123,0,"(1, 2)",135,0,False,False,True,False,True,True,0.981006551342516,0.9978533752089411,0.9944376179649876,0.8037844601998769,0.9571387149297838,0.9514800931727512,-0.5499839626865819
136,0,"{'mean': -0.29999999999999999, 'sd': 0.37}",-0.10000000000000009,1,0.7205870151519775,0,"(1, 2)",136,0,True,False,True,False,False,True,0.6078481866369821,0.933111690027748,0.930020656367625,0.7058163234184296,0.9451252024787659,0.9407503747701881,-0.324991981343291
137,0,"{'mean': -0.29999999999999999, 'sd': 0.37}",-0.5,0,0.5186660289764404,0,"(0, 3)",137,0,False,False,True,False,False,True,0.8994728084538944,0.9877342777284374,0.9797630887974481,0.8026445659361621,0.9664297401036016,0.9602567317838181,-0.4124959906716455
138,0,"{'mean': -0.29999999999999999, 'sd': 0.37}",-0.7000000000000001,1,0.8093011379241943,0,"(1, 3)",138,0,False,False,True,False,False,True,0.9555504531417355,0.9948579972909842,0.9939218167817692,0.8790975095389488,0.9806438686972929,0.9770892742827937,-0.5562479953358228
139,0,"{'mean': -0.29999999999999999, 'sd': 0.37}",-0.5,0,0.34273409843444824,0,"(0, 2)",139,0,False,False,True,False,False,True,0.8994728084538944,0.9877342777284374,0.9870765925943781,0.8892851589964217,0.9841890732128651,0.9820829334385859,-0.5281239976679114
140,0,"{'mean': -0.29999999999999999, 'sd': 0.37}",-0.5,1,0.5840549468994141,0,"(1, 2)",140,0,False,False,True,False,False,True,0.8994728084538944,0.9877342777284374,0.9863283694521943,0.8943789837251581,0.9859616754706513,0.9842056514453901,-0.5140619988339556
141,0,"{'mean': -0.29999999999999999, 'sd': 0.37}",-0.5,1,0.5337619781494141,0,"(1, 3)",141,0,True,False,True,False,False,True,0.8994728084538944,0.9877342777284374,0.9862460947382278,0.8969258960895263,0.9868479765995444,0.9852258730918089,-0.5070309994169778
142,0,"{'mean': -0.29999999999999999, 'sd': 0.37}",-0.30000000000000004,1,0.4268050193786621,0,"(1, 3)",142,0,True,False,True,False,False,True,0.7883199905594676,0.9710287725511645,0.9675593253748339,0.8426229433244969,0.9789383745753544,0.9763925992333213,-0.40351549970848893
143,0,"{'mean': -0.29999999999999999, 'sd': 0.37}",-0.10000000000000009,2,0.8022060394287109,0,"(0, 2)",143,0,False,False,False,True,True,False,0.6078481866369821,0.933111690027748,0.914940313171034,0.7252355649807396,0.9560250323015511,0.9456664562021777,-0.2517577498542445
144,0,"{'mean': -0.29999999999999999, 'sd': 0.37}",-0.30000000000000004,0,0.7087690830230713,0,"(0, 3)",144,0,False,False,True,False,True,True,0.7883199905594676,0.9710287725511645,0.9485515220100367,0.7567777777701036,0.9635269024263577,0.9471089891061072,-0.27587887492712226
145,0,"{'mean': 0.29999999999999999, 'sd': 0.37}",0.5,2,0.5955362319946289,1,"(0, 2)",145,1,False,True,False,True,True,True,0.10052719154610551,0.501460997736269,0.4047572300804103,0.42865248465810457,0.7324939500813133,0.6759331095932588,0.11206056253643887
146,0,"{'mean': 0.29999999999999999, 'sd': 0.37}",0.10000000000000009,2,0.5458109378814697,1,"(0, 2)",146,1,True,False,False,True,False,True,0.39215181336301785,0.8530779137454413,0.321814489596916,0.4104021490105612,0.7927859319133773,0.4988737995950874,0.10603028126821948
147,0,"{'mean': 0.29999999999999999, 'sd': 0.37}",-0.10000000000000009,3,0.7220420837402344,1,"(1, 3)",147,1,False,False,False,True,False,True,0.6078481866369821,0.933111690027748,0.46302609189124755,0.5091251678237717,0.8629488109705626,0.48094994574316746,0.003015140634109695
148,0,"{'mean': 0.29999999999999999, 'sd': 0.37}",0.30000000000000004,3,1.0102810859680176,1,"(1, 3)",148,1,True,False,False,True,False,True,0.21168000944053236,0.7073185337505506,0.19258764488966523,0.360402588632152,0.7851336723605566,0.33676879531641635,0.15150757031705486
149,0,"{'mean': 0.29999999999999999, 'sd': 0.37}",1.0,2,0.5386559963226318,1,"(0, 3)",149,1,False,False,False,False,False,False,0.012336726208602404,0.10105685032565147,0.004236457192913663,0.1863696574203772,0.44309526134310406,0.170502626254665,0.5757537851585275
150,0,"{'mean': 0.29999999999999999, 'sd': 0.37}",0.30000000000000004,3,0.47240710258483887,1,"(1, 3)",150,1,False,False,False,True,False,True,0.21168000944053236,0.028971227448835405,0.03003344258014055,0.1990248334304548,0.23603324439596973,0.10026803441740277,0.43787689257926377
151,0,"{'mean': 0.29999999999999999, 'sd': 0.37}",0.5,2,0.6259908676147461,1,"(1, 2)",151,1,False,False,False,True,False,True,0.10052719154610551,0.012265722271562569,0.01557763481278486,0.14977601248828015,0.12414948333376614,0.057922834615093816,0.4689384462896319
152,0,"{'mean': 0.29999999999999999, 'sd': 0.37}",0.30000000000000004,2,0.5543420314788818,1,"(0, 2)",152,1,True,False,False,True,False,True,0.21168000944053236,0.028971227448835405,0.03290528318209494,0.18072801096440627,0.07656035539130078,0.04541405889859437,0.38446922314481596
153,0,"{'mean': 0.29999999999999999, 'sd': 0.37}",0.10000000000000009,2,0.48856210708618164,1,"(0, 2)",153,1,True,False,False,True,False,True,0.39215181336301785,0.06688830997225197,0.08532247859569665,0.28643991216371206,0.07172433268177637,0.06536826874714552,0.24223461157240803
154,0,"{'mean': 0.29999999999999999, 'sd': 0.37}",-0.30000000000000004,1,1.0319910049438477,1,"(1, 3)",154,1,False,False,True,False,True,False,0.7883199905594676,0.29268146624944924,0.42967051634922704,0.5373799513615898,0.1822028994656128,0.24751939254818628,-0.02888269421379601
155,0,"{'mean': 0.29999999999999999, 'sd': 0.37}",0.7,3,0.7524700164794922,1,"(0, 3)",155,1,False,False,False,True,True,True,0.044449546858264494,0.005142002709015806,0.035779519469281706,0.29091474910992715,0.0936724510873143,0.141649456008734,0.335558652893102
156,0,"{'mean': 0.29999999999999999, 'sd': 0.37}",0.5,3,0.7875480651855469,1,"(0, 3)",156,1,True,False,False,True,False,True,0.10052719154610551,0.012265722271562569,0.016229466674400207,0.19572097032801633,0.052969086679438435,0.0789394613415671,0.417779326446551
157,0,"{'mean': 0.29999999999999999, 'sd': 0.37}",0.30000000000000004,3,0.556394100189209,1,"(1, 3)",157,1,True,False,False,True,False,True,0.21168000944053236,0.028971227448835405,0.03307160439261309,0.20370048988427436,0.04097015706413692,0.05600553286709009,0.35888966322327553
158,0,"{'mean': 0.29999999999999999, 'sd': 0.37}",0.10000000000000009,3,0.8983139991760254,1,"(1, 3)",158,1,True,False,False,True,False,True,0.39215181336301785,0.06688830997225197,0.08541657079523647,0.2979261516236461,0.05392923351819444,0.07071105183116327,0.2294448316116378
159,0,"{'mean': 0.29999999999999999, 'sd': 0.37}",-0.10000000000000009,3,1.0087039470672607,1,"(1, 3)",159,1,True,False,False,True,False,True,0.6078481866369821,0.14692208625455871,0.23881085958114115,0.4528871691303141,0.10042565988637658,0.15476095570615223,0.06472241580581886
160,0,"{'mean': 0.29999999999999999, 'sd': 0.37}",0.5,2,1.205113172531128,1,"(0, 3)",160,1,False,False,False,False,False,False,0.10052719154610551,0.012265722271562569,0.043869425921498596,0.27670718033820985,0.05634569107896958,0.09931519081382541,0.2823612079029094
161,0,"{'mean': 0.29999999999999999, 'sd': 0.37}",0.10000000000000009,3,0.8095588684082031,1,"(1, 3)",161,1,False,False,False,True,False,True,0.39215181336301785,0.06688830997225197,0.09154514753226228,0.33442949685061385,0.06161700052561077,0.09543016917304384,0.19118060395145475
162,0,"{'mean': 0.29999999999999999, 'sd': 0.37}",0.7,3,0.6158158779144287,1,"(0, 3)",162,1,True,False,False,True,False,True,0.044449546858264494,0.005142002709015806,0.00965290637657744,0.18943952185443919,0.03337950161731329,0.05254153777481064,0.44559030197572735
163,0,"{'mean': 0.29999999999999999, 'sd': 0.37}",1.0,2,0.4643208980560303,1,"(0, 2)",163,1,False,False,False,True,False,True,0.012336726208602404,0.0013859456067248715,0.001505713338411204,0.1008881240315208,0.01738272361201908,0.02702362555661092,0.7227951509878636
164,0,"{'mean': 0.29999999999999999, 'sd': 0.37}",0.5,3,0.9964861869812012,1,"(0, 3)",164,1,False,False,False,True,False,True,0.10052719154610551,0.012265722271562569,0.012428065170104573,0.10070765778881316,0.014824222941790824,0.019725845363357745,0.6113975754939318
165,0,"{'mean': -0.29999999999999999, 'sd': 0.37}",-0.10000000000000009,0,1.2831618785858154,0,"(1, 2)",165,0,False,True,False,False,False,False,0.6078481866369821,0.14692208625455871,0.16069676269528538,0.35427792221289767,0.08087315459817476,0.09021130402932157,0.25569878774696586
166,0,"{'mean': -0.29999999999999999, 'sd': 0.37}",-0.10000000000000009,1,0.6551990509033203,0,"(1, 2)",166,0,False,False,True,False,True,True,0.6078481866369821,0.14692208625455871,0.31470823407330156,0.4810630544249399,0.11389762042636674,0.20245976905131158,0.07784939387348289
167,0,"{'mean': -0.29999999999999999, 'sd': 0.37}",0.10000000000000009,2,0.9030249118804932,0,"(0, 2)",167,0,False,False,False,True,True,False,0.39215181336301785,0.06688830997225197,0.25930977489424273,0.4366074338939789,0.09039296519930935,0.23088477197277715,0.08892469693674149
168,0,"{'mean': -0.29999999999999999, 'sd': 0.37}",-0.7000000000000001,1,0.5687530040740967,0,"(1, 2)",168,0,False,False,True,False,True,True,0.9555504531417355,0.7048930425445474,0.9051543453169549,0.6960789435178572,0.3976430038719284,0.5680195586448661,-0.30553765153162926
169,0,"{'mean': -0.29999999999999999, 'sd': 0.37}",0.10000000000000009,2,0.9656538963317871,0,"(0, 2)",169,0,False,False,False,True,True,False,0.39215181336301785,0.8530779137454413,0.7514315901822682,0.5441153784404376,0.6253604588086848,0.6597255744135672,-0.10276882576581459
170,0,"{'mean': -0.29999999999999999, 'sd': 0.37}",0.10000000000000009,3,0.903419017791748,0,"(1, 3)",170,0,False,False,False,True,False,False,0.39215181336301785,0.8530779137454413,0.6021619441927644,0.4681335959017277,0.7392191862770631,0.6309437593031657,-0.0013844128829072488
171,0,"{'mean': -0.29999999999999999, 'sd': 0.37}",-0.5,1,0.9926841259002686,0,"(1, 3)",171,0,False,False,True,False,True,True,0.8994728084538944,0.9877342777284374,0.9256187134441972,0.6838032021778111,0.8634767320027502,0.7782812363736815,-0.2506922064414536
172,0,"{'mean': -0.29999999999999999, 'sd': 0.37}",0.30000000000000004,1,0.6162400245666504,0,"(1, 3)",172,0,True,False,True,False,False,True,0.21168000944053236,0.7073185337505506,0.5859110485132413,0.4477416058091717,0.7853976328766504,0.6820961424434614,0.02465389677927321
173,0,"{'mean': -0.29999999999999999, 'sd': 0.37}",-0.10000000000000009,2,0.8594329357147217,0,"(0, 2)",173,0,False,False,False,True,True,False,0.6078481866369821,0.933111690027748,0.6714924255087192,0.527794896223077,0.8592546614521992,0.6767942839760903,-0.03767305161036344
174,0,"{'mean': 0.29999999999999999, 'sd': 0.37}",0.5,2,0.5055110454559326,1,"(1, 2)",174,1,True,True,False,True,False,True,0.10052719154610551,0.501460997736269,0.1640805320461446,0.3141610438845912,0.6803578295942341,0.42043740801111745,0.23116347419481828
175,0,"{'mean': 0.29999999999999999, 'sd': 0.37}",0.5,3,0.86751389503479,1,"(0, 3)",175,1,False,False,False,True,False,True,0.10052719154610551,0.501460997736269,0.03252860923070069,0.20734411771534836,0.5909094136652515,0.22648300862090906,0.36558173709740915
176,0,"{'mean': 0.29999999999999999, 'sd': 0.37}",0.8999999999999999,2,0.9757390022277832,1,"(1, 2)",176,1,False,False,False,True,False,True,0.018993448657483984,0.14839306884368392,0.002784008263239306,0.11316878318641617,0.3696512412544677,0.11463350844207418,0.6327908685487045
177,0,"{'mean': 0.29999999999999999, 'sd': 0.37}",0.30000000000000004,3,0.8805809020996094,1,"(1, 3)",177,1,False,False,False,True,False,True,0.21168000944053236,0.028971227448835405,0.02966862599277708,0.16242439631347427,0.19931123435165155,0.07215106721742563,0.46639543427435226
178,0,"{'mean': 0.29999999999999999, 'sd': 0.37}",0.10000000000000009,3,0.8067641258239746,1,"(0, 3)",178,1,True,False,False,True,False,True,0.39215181336301785,0.06688830997225197,0.08349326824379258,0.27728810483824606,0.13309977216195176,0.0778221677306091,0.2831977171371762
179,0,"{'mean': 0.29999999999999999, 'sd': 0.37}",0.5,3,0.6862430572509766,1,"(1, 3)",179,1,True,False,False,True,False,True,0.10052719154610551,0.012265722271562569,0.021883463945134473,0.1889076481921758,0.07268274721675716,0.04985281583787179,0.3915988585685881
180,0,"{'mean': 0.29999999999999999, 'sd': 0.37}",-0.10000000000000009,0,1.126953125,1,"(0, 3)",180,1,False,False,True,False,True,False,0.6078481866369821,0.14692208625455871,0.17108188921815737,0.39837791741457895,0.10980241673565794,0.11046735252801458,0.145799429284294
181,0,"{'mean': 0.29999999999999999, 'sd': 0.37}",0.30000000000000004,2,0.8571949005126953,1,"(1, 2)",181,1,False,False,False,True,True,True,0.21168000944053236,0.028971227448835405,0.07693277311044751,0.30502896342755564,0.06938682209224667,0.09370006281923104,0.22289971464214703
182,0,"{'mean': -0.29999999999999999, 'sd': 0.37}",-0.10000000000000009,1,0.9021098613739014,0,"(1, 2)",182,0,False,True,True,False,True,True,0.6078481866369821,0.14692208625455871,0.22996797212269046,0.4564385750322689,0.10815445417340269,0.16183401747096077,0.06144985732107347
183,0,"{'mean': -0.29999999999999999, 'sd': 0.37}",-0.30000000000000004,1,0.5261149406433105,0,"(1, 3)",183,0,True,False,True,False,False,True,0.7883199905594676,0.29268146624944924,0.5962818338531368,0.6223792827958683,0.20041796021142597,0.37905792566204877,-0.11927507133946329
184,0,"{'mean': -0.29999999999999999, 'sd': 0.37}",-0.5,0,0.40157198905944824,0,"(0, 2)",184,0,False,False,True,False,False,True,0.8994728084538944,0.498539002263731,0.9242787592204147,0.7609260456248814,0.34947848123757846,0.6516683424412317,-0.3096375356697316
185,0,"{'mean': -0.29999999999999999, 'sd': 0.37}",-0.5,1,0.6061229705810547,0,"(1, 3)",185,0,False,False,True,False,False,True,0.8994728084538944,0.498539002263731,0.9790679956345242,0.830199427039388,0.4240087417506547,0.815368169037878,-0.4048187678348658
186,0,"{'mean': -0.29999999999999999, 'sd': 0.37}",-0.10000000000000009,0,0.8357329368591309,0,"(0, 3)",186,0,False,False,True,False,False,True,0.6078481866369821,0.14692208625455871,0.921426762030761,0.7190238068381851,0.2854654140026067,0.8683974655343195,-0.25240938391743295
187,0,"{'mean': -0.29999999999999999, 'sd': 0.37}",-0.5,0,0.6656088829040527,0,"(0, 3)",187,0,True,False,True,False,False,True,0.8994728084538944,0.498539002263731,0.9787202783026527,0.8092483076460397,0.3920022081331689,0.9235588719184862,-0.3762046919587165
188,0,"{'mean': -0.29999999999999999, 'sd': 0.37}",0.10000000000000009,2,0.801677942276001,0,"(0, 2)",188,0,False,False,False,True,True,False,0.39215181336301785,0.06688830997225197,0.8295787910409671,0.6007000605045287,0.22944525905271043,0.8765688314797266,-0.1381023459793582
189,0,"{'mean': -0.29999999999999999, 'sd': 0.37}",-0.10000000000000009,1,0.8274779319763184,0,"(1, 3)",189,0,False,False,True,False,True,True,0.6078481866369821,0.14692208625455871,0.8335701740274638,0.6042741235707554,0.18818367265363456,0.8550695027535953,-0.11905117298967914
190,0,"{'mean': -0.29999999999999999, 'sd': 0.37}",-0.10000000000000009,0,0.48962879180908203,0,"(0, 2)",190,0,False,False,True,False,False,True,0.6078481866369821,0.14692208625455871,0.8360215870145004,0.6060611551038688,0.16755287945409664,0.8455455448840479,-0.10952558649483962
191,0,"{'mean': -0.29999999999999999, 'sd': 0.37}",-0.10000000000000009,2,0.8519229888916016,0,"(0, 2)",191,0,False,False,False,True,True,False,0.6078481866369821,0.14692208625455871,0.8375241870416334,0.6069546708704254,0.15723748285432768,0.8415348659628407,-0.10476279324741986
192,0,"{'mean': -0.29999999999999999, 'sd': 0.37}",-0.5,1,0.6672859191894531,0,"(1, 3)",192,0,False,False,True,False,True,True,0.8994728084538944,0.498539002263731,0.967698316642576,0.7532137396621599,0.3278882425590293,0.9046165913027083,-0.30238139662370994
193,0,"{'mean': -0.29999999999999999, 'sd': 0.37}",-0.5,1,0.6927680969238281,0,"(1, 3)",193,0,True,False,True,False,False,True,0.8994728084538944,0.498539002263731,0.9841657730893241,0.8263432740580272,0.41321362241138015,0.9443911821960163,-0.40119069831185494
194,0,"{'mean': -0.29999999999999999, 'sd': 0.37}",-0.5,1,0.5762388706207275,0,"(1, 3)",194,0,True,False,True,False,False,True,0.8994728084538944,0.498539002263731,0.9860077487995776,0.8629080412559609,0.45587631233755554,0.9651994654977969,-0.45059534915592747
195,0,"{'mean': -0.29999999999999999, 'sd': 0.37}",0.30000000000000004,3,0.8754339218139648,0,"(0, 3)",195,0,False,False,False,True,True,False,0.21168000944053236,0.028971227448835405,0.6821730337756574,0.5372940253482467,0.24242376989319547,0.8236862496367272,-0.07529767457796371
196,0,"{'mean': -0.29999999999999999, 'sd': 0.37}",-0.7000000000000001,1,0.7239320278167725,0,"(1, 2)",196,0,False,False,True,False,True,True,0.9555504531417355,0.7048930425445474,0.9751150378609553,0.7464222392449911,0.47365840621887145,0.8994006437488413,-0.3876488372889819
197,0,"{'mean': -0.29999999999999999, 'sd': 0.37}",-0.30000000000000004,0,0.9855630397796631,0,"(0, 3)",197,0,False,False,True,False,False,True,0.7883199905594676,0.9710287725511645,0.9647066768872411,0.7673711149022293,0.722343589385018,0.9320536603180412,-0.343824418644491
198,0,"{'mean': -0.29999999999999999, 'sd': 0.37}",-0.30000000000000004,1,0.5619611740112305,0,"(1, 3)",198,0,False,False,True,False,False,True,0.7883199905594676,0.9710287725511645,0.962002137731641,0.7778455527308484,0.8466861809680912,0.9470278990248411,-0.3219122093222455
199,0,"{'mean': -0.29999999999999999, 'sd': 0.37}",-1.0,1,1.179521083831787,0,"(1, 2)",199,0,True,False,True,False,False,True,0.9876632737913976,0.9986140543932752,0.998130481141346,0.882754413261123,0.9226501176806832,0.9725791900830936,-0.6609561046611228
200,0,"{'mean': -0.29999999999999999, 'sd': 0.37}",0.7,3,0.8374800682067871,0,"(0, 3)",200,0,False,False,False,True,True,False,0.044449546858264494,0.2951069574554525,0.29168451437955634,0.4636019800596938,0.6088785375680679,0.632131852231325,0.0195219476694386
201,0,"{'mean': -0.29999999999999999, 'sd': 0.37}",0.10000000000000009,2,0.5076630115509033,0,"(0, 2)",201,0,False,False,False,True,False,False,0.39215181336301785,0.06688830997225197,0.24391038146648386,0.4278768967113558,0.3378834237701599,0.43802111684890443,0.059760973834719344
202,0,"{'mean': -0.29999999999999999, 'sd': 0.37}",-0.10000000000000009,3,0.5745120048522949,0,"(0, 3)",202,0,False,False,False,True,False,False,0.6078481866369821,0.14692208625455871,0.3935702095711008,0.517862541674169,0.2424027550123593,0.4157956632100026,-0.020119513082640372
203,0,"{'mean': 0.29999999999999999, 'sd': 0.37}",0.5,3,0.5183439254760742,1,"(0, 3)",203,1,True,True,False,True,False,True,0.10052719154610551,0.012265722271562569,0.07341983894493541,0.3091948666101373,0.12733423864196095,0.24460775107746902,0.2399402434586798
204,0,"{'mean': 0.29999999999999999, 'sd': 0.37}",0.7,3,0.5375721454620361,1,"(0, 3)",204,1,True,False,False,True,False,True,0.044449546858264494,0.005142002709015806,0.008700839591356927,0.1768222067342009,0.06623812067548837,0.12665429533441297,0.4699701217293399
205,0,"{'mean': 0.29999999999999999, 'sd': 0.37}",-0.10000000000000009,1,1.0617988109588623,1,"(1, 2)",205,1,False,False,True,False,True,False,0.6078481866369821,0.14692208625455871,0.1565806205501019,0.3923351966855915,0.10658010346502354,0.14161745794225744,0.1849850608646699
206,0,"{'mean': 0.29999999999999999, 'sd': 0.37}",0.7,2,0.7688689231872559,1,"(0, 2)",206,1,False,False,False,True,True,True,0.044449546858264494,0.005142002709015806,0.013344992361825287,0.218392371771928,0.05586105308701968,0.07748122515204137,0.44249253043233494
207,0,"{'mean': 0.29999999999999999, 'sd': 0.37}",0.30000000000000004,3,0.555976152420044,1,"(0, 3)",207,1,False,False,False,True,False,True,0.21168000944053236,0.028971227448835405,0.03233664913987689,0.2150361906062302,0.04241614026792754,0.054908937145959125,0.3712462652161675
208,0,"{'mean': 0.29999999999999999, 'sd': 0.37}",0.30000000000000004,2,0.7068419456481934,1,"(0, 2)",208,1,False,False,False,True,False,True,0.21168000944053236,0.028971227448835405,0.03722590154519675,0.2133581000233813,0.035693683858381474,0.04606741934557794,0.33562313260808374
209,0,"{'mean': -0.29999999999999999, 'sd': 0.37}",-0.7000000000000001,0,0.9390370845794678,0,"(0, 3)",209,0,False,True,True,False,True,True,0.9555504531417355,0.7048930425445474,0.762246186159148,0.5844542765825584,0.37029336320146444,0.40415680275236293,-0.18218843369595816
210,0,"{'mean': -0.29999999999999999, 'sd': 0.37}",-0.7000000000000001,1,0.6111869812011719,0,"(1, 3)",210,0,False,False,True,False,False,True,0.9555504531417355,0.9948579972909842,0.9813362291537657,0.770002364862147,0.6825756802462244,0.6927465159530644,-0.4410942168479791
211,0,"{'mean': -0.29999999999999999, 'sd': 0.37}",0.30000000000000004,3,1.13773512840271,0,"(0, 3)",211,0,False,False,False,True,True,False,0.21168000944053236,0.7073185337505506,0.6740378846490442,0.4908411871513397,0.6949471069983875,0.6833922003010543,-0.07054710842398954
212,0,"{'mean': -0.29999999999999999, 'sd': 0.37}",-0.7000000000000001,0,0.9864420890808105,0,"(0, 2)",212,0,False,False,True,False,True,True,0.9555504531417355,0.9948579972909842,0.9744181603419466,0.7231958201465376,0.8449025521446858,0.8289051803215004,-0.38527355421199483
214,0,"{'mean': -0.29999999999999999, 'sd': 0.37}",0.30000000000000004,3,1.237332820892334,0,"(1, 2)",214,0,False,False,False,False,True,False,0.21168000944053236,0.7073185337505506,0.6622196151121137,0.46743791479353497,0.7761105429476183,0.7455623977168071,-0.04263677710599739
215,0,"{'mean': -0.29999999999999999, 'sd': 0.37}",-0.10000000000000009,3,1.0678718090057373,0,"(1, 2)",215,0,True,False,False,False,False,False,0.6078481866369821,0.933111690027748,0.725025959639348,0.5376430507152585,0.8546111164876831,0.7352941786780776,-0.07131838855299874
216,0,"{'mean': -0.29999999999999999, 'sd': 0.37}",0.10000000000000009,2,0.6924831867218018,0,"(1, 2)",216,0,False,False,False,True,False,False,0.39215181336301785,0.8530779137454413,0.5782494025573197,0.4648974320391382,0.8538445151165621,0.6567717906176986,0.014340805723500674
217,0,"{'mean': -0.29999999999999999, 'sd': 0.37}",-0.5,1,0.7813658714294434,0,"(1, 2)",217,0,False,False,True,False,True,True,0.8994728084538944,0.9877342777284374,0.9200553576680808,0.6821851202465163,0.9207893964224998,0.7884135741428897,-0.24282959713824967
218,0,"{'mean': -0.29999999999999999, 'sd': 0.37}",-0.30000000000000004,0,0.5986740589141846,0,"(0, 3)",218,0,False,False,True,False,False,True,0.7883199905594676,0.9710287725511645,0.9499750373260942,0.735252555402992,0.9459090844868321,0.869194305734492,-0.27141479856912487
219,0,"{'mean': -0.29999999999999999, 'sd': 0.37}",-0.5,1,0.49657392501831055,0,"(1, 3)",219,0,False,False,True,False,False,True,0.8994728084538944,0.9877342777284374,0.982128320816279,0.8173626819284432,0.9668216811076347,0.9256613132753855,-0.38570739928456244
220,0,"{'mean': -0.29999999999999999, 'sd': 0.37}",-0.5,1,0.47438788414001465,0,"(1, 3)",220,0,True,False,True,False,False,True,0.8994728084538944,0.9877342777284374,0.9857824494396016,0.8584177451911688,0.977277979418036,0.9557218813574935,-0.4428536996422812
221,0,"{'mean': -0.29999999999999999, 'sd': 0.37}",0.10000000000000009,2,0.8813869953155518,0,"(1, 2)",221,0,False,False,False,True,True,False,0.39215181336301785,0.8530779137454413,0.8373315487689562,0.6252847792770933,0.9151779465817387,0.8965267150632248,-0.17142684982114056
222,0,"{'mean': -0.29999999999999999, 'sd': 0.37}",-0.30000000000000004,0,0.779055118560791,0,"(0, 2)",222,0,False,False,True,False,True,True,0.7883199905594676,0.9710287725511645,0.9256958398402119,0.7068023849182804,0.9431033595664515,0.9111112774517183,-0.2357134249105703
223,0,"{'mean': -0.29999999999999999, 'sd': 0.37}",0.30000000000000004,3,0.5387179851531982,0,"(1, 3)",223,0,False,False,False,True,True,False,0.21168000944053236,0.7073185337505506,0.5860227244860922,0.45924119717940637,0.8252109466585011,0.7485670009689052,0.03214328754471488
224,0,"{'mean': -0.29999999999999999, 'sd': 0.37}",0.10000000000000009,0,0.7376809120178223,0,"(0, 2)",224,0,False,False,True,False,True,True,0.39215181336301785,0.8530779137454413,0.45977583136878886,0.4256965052712121,0.8391444302019713,0.604171416168847,0.06607164377235748
225,0,"{'mean': -0.29999999999999999, 'sd': 0.37}",0.7,3,0.7125880718231201,0,"(0, 3)",225,0,False,False,False,True,True,False,0.044449546858264494,0.2951069574554525,0.03928525417722859,0.2350730260647383,0.5671256938287119,0.3217283351730378,0.38303582188617874
226,0,"{'mean': -0.29999999999999999, 'sd': 0.37}",-0.5,1,1.0053050518035889,0,"(1, 2)",226,0,False,False,True,False,True,True,0.8994728084538944,0.498539002263731,0.5751735381818209,0.5672729172593164,0.5328323480462215,0.44845093667742936,-0.05848208905691063
227,0,"{'mean': -0.29999999999999999, 'sd': 0.37}",-0.30000000000000004,0,0.803555965423584,0,"(0, 3)",227,0,False,False,True,False,False,True,0.7883199905594676,0.29268146624944924,0.8258582971000683,0.6777964539093919,0.41275690714783536,0.6371546168887489,-0.17924104452845535
228,0,"{'mean': -0.29999999999999999, 'sd': 0.37}",-1.0,1,1.1588220596313477,0,"(0, 2)",228,0,False,False,False,False,True,False,0.9876632737913976,0.8989431496743486,0.9960857468611526,0.8327298638503948,0.655850028411092,0.8166201818749508,-0.5896205222642277
229,0,"{'mean': -0.29999999999999999, 'sd': 0.37}",-0.9000000000000001,0,0.5261330604553223,0,"(0, 3)",229,0,False,False,True,False,True,True,0.981006551342516,0.9978533752089411,0.9977785926365673,0.9068682075964554,0.8268517018100165,0.9071993872557591,-0.7448102611321139
230,0,"{'mean': -0.29999999999999999, 'sd': 0.37}",-0.9000000000000001,1,0.5852069854736328,0,"(1, 3)",230,0,False,False,True,False,False,True,0.981006551342516,0.9978533752089411,0.9978109973988532,0.9439373794694856,0.9123525385094788,0.9525051923273061,-0.822405130566057
231,0,"{'mean': -0.29999999999999999, 'sd': 0.37}",-0.9000000000000001,1,0.7012770175933838,0,"(1, 2)",231,0,True,False,True,False,False,True,0.981006551342516,0.9978533752089411,0.9978116167641001,0.9624719654060008,0.95510295685921,0.9751584045457031,-0.8612025652830286
232,0,"{'mean': 0.29999999999999999, 'sd': 0.37}",0.5,3,0.6713709831237793,1,"(0, 3)",232,1,False,True,False,True,True,True,0.10052719154610551,0.501460997736269,0.4966353760245774,0.5314995784760531,0.7282819772977395,0.7358968902851403,-0.18060128264151432
233,0,"{'mean': -0.29999999999999999, 'sd': 0.37}",0.10000000000000009,3,0.8611040115356445,0,"(1, 3)",233,0,True,True,False,True,False,False,0.39215181336301785,0.8530779137454413,0.3895883219600329,0.4618256959195355,0.7906799455215904,0.5627426061225866,-0.040300641320757113
234,0,"{'mean': -0.29999999999999999, 'sd': 0.37}",0.10000000000000009,3,0.5190138816833496,0,"(1, 3)",234,0,True,False,False,True,False,False,0.39215181336301785,0.8530779137454413,0.31102335741765136,0.42698875464127667,0.8218789296335158,0.43688298177011897,0.029849679339621488
235,0,"{'mean': -0.29999999999999999, 'sd': 0.37}",-0.30000000000000004,0,1.0427331924438477,0,"(0, 3)",235,0,False,False,True,False,True,True,0.7883199905594676,0.9710287725511645,0.6660987149946765,0.6076543726003721,0.8964538510923401,0.5514908483823977,-0.1350751603301893
236,0,"{'mean': -0.29999999999999999, 'sd': 0.37}",-0.7000000000000001,0,0.48535704612731934,0,"(0, 3)",236,0,True,False,True,False,False,True,0.9555504531417355,0.9948579972909842,0.9737252412012197,0.7816024128710538,0.9456559241916622,0.7626080447918087,-0.4175375801650947
237,0,"{'mean': -0.29999999999999999, 'sd': 0.37}",-0.5,1,0.5585341453552246,0,"(1, 3)",237,0,False,False,True,False,False,True,0.8994728084538944,0.9877342777284374,0.9848455216159839,0.8405376106624741,0.9666951009600497,0.8737267832038963,-0.45876879008254734
238,0,"{'mean': -0.29999999999999999, 'sd': 0.37}",-0.10000000000000009,3,0.8325259685516357,0,"(0, 3)",238,0,False,False,False,True,True,False,0.6078481866369821,0.933111690027748,0.9246664156134856,0.7241928986497281,0.9499033954938989,0.899196599408691,-0.2793843950412737
239,0,"{'mean': -0.29999999999999999, 'sd': 0.37}",0.10000000000000009,2,0.5628809928894043,0,"(1, 2)",239,0,False,False,False,True,False,False,0.39215181336301785,0.8530779137454413,0.7717057011649815,0.5581723560063729,0.9014906546196702,0.8354511502868363,-0.08969219752063681
240,0,"{'mean': -0.29999999999999999, 'sd': 0.37}",-0.30000000000000004,1,0.9796950817108154,0,"(1, 3)",240,0,False,False,True,False,True,True,0.7883199905594676,0.9710287725511645,0.9043269780876183,0.6732461732829202,0.9362597135854174,0.8698890641872272,-0.19484609876031844
241,0,"{'mean': -0.29999999999999999, 'sd': 0.37}",-0.5,1,0.4349241256713867,0,"(0, 3)",241,0,True,False,False,False,True,False,0.8994728084538944,0.9877342777284374,0.9766004072670936,0.7863594908684073,0.9619969956569274,0.9232447357271605,-0.3474230493801592
242,0,"{'mean': -0.29999999999999999, 'sd': 0.37}",-0.30000000000000004,0,0.341825008392334,0,"(0, 3)",242,0,False,False,True,False,True,True,0.7883199905594676,0.9710287725511645,0.9650896978724439,0.7873397407139374,0.966512884104046,0.9441672167998022,-0.32371152469007963
243,0,"{'mean': -0.29999999999999999, 'sd': 0.37}",-0.10000000000000009,3,1.1860661506652832,0,"(0, 2)",243,0,False,False,False,False,True,False,0.6078481866369821,0.933111690027748,0.913542610236681,0.6975939636754598,0.9498122870658969,0.9288549135182416,-0.21185576234503986
244,0,"{'mean': -0.29999999999999999, 'sd': 0.37}",-0.9000000000000001,0,0.755760908126831,0,"(0, 3)",244,0,False,False,True,False,True,True,0.981006551342516,0.9978533752089411,0.9960733536486471,0.8393002575089878,0.973832831137419,0.9624641335834443,-0.55592788117252
245,0,"{'mean': -0.29999999999999999, 'sd': 0.37}",-0.10000000000000009,0,0.9246540069580078,0,"(0, 3)",245,0,True,False,True,False,False,True,0.6078481866369821,0.933111690027748,0.9309306917106793,0.723574222072985,0.9534722605825835,0.9466974126470618,-0.32796394058626005
246,0,"{'mean': -0.29999999999999999, 'sd': 0.37}",-0.30000000000000004,1,0.7918469905853271,0,"(1, 2)",246,0,False,False,True,False,False,True,0.7883199905594676,0.9710287725511645,0.9529696902592368,0.7559471063162263,0.962250516566874,0.9498335514531493,-0.31398197029313
247,0,"{'mean': -0.29999999999999999, 'sd': 0.37}",-0.30000000000000004,1,0.4529550075531006,0,"(1, 2)",247,0,True,False,True,False,False,True,0.7883199905594676,0.9710287725511645,0.9589084182226483,0.7721335484378469,0.9666396445590193,0.9543709848378987,-0.30699098514656503
248,0,"{'mean': -0.29999999999999999, 'sd': 0.37}",-0.30000000000000004,1,0.42702507972717285,0,"(1, 2)",248,0,True,False,True,False,False,True,0.7883199905594676,0.9710287725511645,0.9604796741257834,0.7802267694986572,0.9688342085550918,0.9574253294818411,-0.30349549257328257
249,0,"{'mean': -0.29999999999999999, 'sd': 0.37}",-0.10000000000000009,1,1.1480181217193604,0,"(1, 3)",249,0,True,False,True,False,False,True,0.6078481866369821,0.933111690027748,0.9109280345173562,0.6940374780678197,0.9509729492914198,0.9341766819995987,-0.20174774628664133
250,0,"{'mean': -0.29999999999999999, 'sd': 0.37}",-0.5,1,0.6209208965301514,0,"(1, 2)",250,0,True,False,True,False,False,True,0.8994728084538944,0.9877342777284374,0.9774259447393063,0.7967551432608571,0.9693536135099285,0.9558013133694525,-0.35087387314332064
251,0,"{'mean': 0.29999999999999999, 'sd': 0.37}",0.5,2,0.948883056640625,1,"(1, 2)",251,1,False,True,False,True,True,True,0.10052719154610551,0.501460997736269,0.4550114369691442,0.44864116740348126,0.7354073056230988,0.7054063751692984,0.07456306342833968
252,0,"{'mean': 0.29999999999999999, 'sd': 0.37}",0.30000000000000004,3,0.6724178791046143,1,"(1, 3)",252,1,False,False,False,True,False,True,0.21168000944053236,0.7073185337505506,0.1886140208347365,0.3301605884220068,0.7213629196868248,0.44701019800201747,0.18728153171416986
253,0,"{'mean': 0.29999999999999999, 'sd': 0.37}",0.30000000000000004,2,0.747528076171875,1,"(1, 2)",253,1,False,False,False,True,False,True,0.21168000944053236,0.7073185337505506,0.08251220107339294,0.27092029893126957,0.7143407267186876,0.2647611995377052,0.24364076585708494
254,0,"{'mean': 0.29999999999999999, 'sd': 0.37}",0.10000000000000009,2,0.5689690113067627,1,"(0, 2)",254,1,True,False,False,True,False,True,0.39215181336301785,0.8530779137454413,0.11380493279443517,0.3315360561471437,0.7837093202320644,0.18928306616607019,0.17182038292854251
255,0,"{'mean': -0.29999999999999999, 'sd': 0.37}",-0.5,0,0.7121100425720215,0,"(0, 3)",255,0,False,True,True,False,True,True,0.8994728084538944,0.9877342777284374,0.6787731622780627,0.6155044323005191,0.8857217989802508,0.43402811422206644,-0.16408980853572874
256,0,"{'mean': -0.29999999999999999, 'sd': 0.37}",-0.30000000000000004,1,0.6044750213623047,0,"(1, 3)",256,0,False,False,True,False,False,True,0.7883199905594676,0.9710287725511645,0.8702665978891968,0.7019122114299934,0.9283752857657077,0.6521473560556317,-0.2320449042678644
257,0,"{'mean': -0.29999999999999999, 'sd': 0.37}",-0.7000000000000001,1,0.5399219989776611,0,"(1, 3)",257,0,True,False,True,False,False,True,0.9555504531417355,0.9948579972909842,0.9882342374882279,0.8287313322858645,0.961616641528346,0.8201907967719297,-0.46602245213393223
258,0,"{'mean': -0.29999999999999999, 'sd': 0.37}",-0.10000000000000009,1,0.8637089729309082,0,"(1, 2)",258,0,True,False,True,False,False,True,0.6078481866369821,0.933111690027748,0.9265614386313218,0.7182897594614233,0.9473641657780469,0.8733761177016257,-0.28301122606696616
259,0,"{'mean': -0.29999999999999999, 'sd': 0.37}",-0.5,0,0.4941370487213135,0,"(0, 3)",259,0,False,False,True,False,False,True,0.8994728084538944,0.9877342777284374,0.9793451192457493,0.8088812839576589,0.9675492217532422,0.9263606184736874,-0.3915056130334831
260,0,"{'mean': -0.29999999999999999, 'sd': 0.37}",-0.30000000000000004,1,0.6521689891815186,0,"(1, 3)",260,0,False,False,True,False,False,True,0.7883199905594676,0.9710287725511645,0.9657955408020857,0.7986006372585632,0.9692889971522034,0.9460780796378866,-0.34575280651674156
261,0,"{'mean': -0.29999999999999999, 'sd': 0.37}",-0.5,0,0.47107911109924316,0,"(0, 3)",261,0,False,False,True,False,False,True,0.8994728084538944,0.9877342777284374,0.9839498044334035,0.8490367228562288,0.9785116374403204,0.9650139420356451,-0.4228764032583708
262,0,"{'mean': -0.29999999999999999, 'sd': 0.37}",-0.30000000000000004,1,1.2447609901428223,0,"(1, 2)",262,0,False,False,True,False,False,True,0.7883199905594676,0.9710287725511645,0.9669741521537328,0.8186783567078482,0.9747702049957425,0.965994047094689,-0.3614382016291854
263,0,"{'mean': -0.29999999999999999, 'sd': 0.37}",0.10000000000000009,2,0.9750261306762695,0,"(0, 2)",263,0,False,False,False,True,True,False,0.39215181336301785,0.8530779137454413,0.8167838301382554,0.605415085035433,0.913924059370592,0.8913889386164722,-0.13071910081459265
264,0,"{'mean': -0.29999999999999999, 'sd': 0.37}",0.10000000000000009,3,1.2022130489349365,0,"(1, 2)",264,0,False,False,False,False,False,False,0.39215181336301785,0.8530779137454413,0.6634481023256029,0.4987834491992254,0.8835009865580166,0.7774185204710375,-0.01535955040729628
265,0,"{'mean': -0.29999999999999999, 'sd': 0.37}",-0.5,0,0.6816480159759521,0,"(0, 2)",265,0,False,False,True,False,True,True,0.8994728084538944,0.9877342777284374,0.9385926855112411,0.69912812882656,0.935617632143227,0.8580056029911394,-0.25767977520364815
266,0,"{'mean': -0.29999999999999999, 'sd': 0.37}",-1.0,0,0.6549370288848877,0,"(0, 2)",266,0,True,False,True,False,False,True,0.9876632737913976,0.9986140543932752,0.997815616305854,0.8433957013089788,0.9671158432682512,0.9279106096484967,-0.6288398876018241
267,0,"{'mean': -0.29999999999999999, 'sd': 0.37}",-0.5,0,0.508059024810791,0,"(0, 2)",267,0,True,False,True,False,False,True,0.8994728084538944,0.9877342777284374,0.9874986371318807,0.8714342548814367,0.9774250604983443,0.9577046233901887,-0.5644199438009121
268,0,"{'mean': -0.29999999999999999, 'sd': 0.37}",-0.30000000000000004,0,0.4587829113006592,0,"(0, 2)",268,0,True,False,True,False,False,True,0.7883199905594676,0.9710287725511645,0.9678777950959553,0.8298771227204521,0.9742269165247543,0.9627912092430719,-0.43220997190045607
269,0,"{'mean': -0.29999999999999999, 'sd': 0.37}",-0.7000000000000001,1,0.5940179824829102,0,"(1, 2)",269,0,False,False,True,False,False,True,0.9555504531417355,0.9948579972909842,0.9933566842207416,0.8927137879310938,0.9845424569078693,0.9780739467319068,-0.5661049859502281
270,0,"{'mean': -0.29999999999999999, 'sd': 0.37}",0.30000000000000004,3,0.8894391059875488,0,"(0, 3)",270,0,False,False,False,True,True,False,0.21168000944053236,0.7073185337505506,0.6952312404704845,0.5521968986858131,0.8459304953292099,0.8366525936011957,-0.133052492975114
271,0,"{'mean': -0.29999999999999999, 'sd': 0.37}",-0.30000000000000004,0,0.7661130428314209,0,"(0, 3)",271,0,False,False,True,False,True,True,0.7883199905594676,0.9710287725511645,0.8766592306814396,0.6702584446226403,0.9084796339401873,0.8566559121413176,-0.21652624648755703
272,0,"{'mean': -0.29999999999999999, 'sd': 0.37}",-0.7000000000000001,0,0.4731760025024414,0,"(0, 2)",272,0,True,False,True,False,False,True,0.9555504531417355,0.9948579972909842,0.9885985079082362,0.8129044488821879,0.9516688156155857,0.922627210024777,-0.45826312324377855
273,0,"{'mean': -0.29999999999999999, 'sd': 0.37}",-0.10000000000000009,1,1.0499849319458008,0,"(1, 3)",273,0,False,False,True,False,False,True,0.6078481866369821,0.933111690027748,0.9267649185870285,0.710376317759585,0.9423902528216668,0.9246960643059028,-0.27913156162188935
274,0,"{'mean': -0.29999999999999999, 'sd': 0.37}",-0.7000000000000001,0,0.7882840633392334,0,"(1, 2)",274,0,False,False,False,False,True,False,0.9555504531417355,0.9948579972909842,0.9913087054644883,0.8329633854506602,0.9686241250563254,0.9580023848851955,-0.4895657808109447
275,0,"{'mean': -0.29999999999999999, 'sd': 0.37}",-0.5,1,0.5352699756622314,0,"(1, 3)",275,0,False,False,True,False,True,True,0.8994728084538944,0.9877342777284374,0.9867919133421847,0.8662180969522773,0.9781792013923813,0.9723971491136901,-0.49478289040547235
276,0,"{'mean': 0.29999999999999999, 'sd': 0.37}",0.30000000000000004,3,0.9260509014129639,1,"(1, 3)",276,1,False,True,False,True,True,True,0.21168000944053236,0.7073185337505506,0.6835510833219283,0.5389490531964048,0.842748867571466,0.8279741162178091,-0.09739144520273615
277,0,"{'mean': 0.29999999999999999, 'sd': 0.37}",1.0,3,0.858043909072876,1,"(0, 3)",277,1,True,False,False,True,False,True,0.012336726208602404,0.10105685032565147,0.022366302389284706,0.2756428897025036,0.47190285894855877,0.42517020930354693,0.45130427739863194
278,0,"{'mean': 0.29999999999999999, 'sd': 0.37}",-0.10000000000000009,3,1.1035730838775635,1,"(0, 3)",278,1,True,False,False,True,False,True,0.6078481866369821,0.14692208625455871,0.1716100261758764,0.4417455381697429,0.30941247260155874,0.2983901177397117,0.17565213869931592
279,0,"{'mean': 0.29999999999999999, 'sd': 0.37}",-0.10000000000000009,2,0.9127590656280518,1,"(0, 2)",279,1,False,False,False,True,False,True,0.6078481866369821,0.14692208625455871,0.32534184182530246,0.5247968624033625,0.22816727942805873,0.3118659797825071,0.03782606934965792
280,0,"{'mean': 0.29999999999999999, 'sd': 0.37}",0.7,3,0.6705279350280762,1,"(1, 2)",280,1,False,False,False,False,False,False,0.044449546858264494,0.005142002709015806,0.025528241501046177,0.28462320463081353,0.11665464106853726,0.16869711064177662,0.36891303467482894
281,0,"{'mean': 0.29999999999999999, 'sd': 0.37}",0.30000000000000004,3,0.5165209770202637,1,"(0, 3)",281,1,True,False,False,True,False,True,0.21168000944053236,0.028971227448835405,0.03545942728575466,0.24815160703567296,0.07281293425868633,0.10207826896376564,0.3344565173374145
282,0,"{'mean': 0.29999999999999999, 'sd': 0.37}",0.30000000000000004,2,0.6186740398406982,1,"(0, 2)",282,1,False,False,False,True,False,True,0.21168000944053236,0.028971227448835405,0.03804131802331078,0.22991580823810265,0.05089208085376087,0.0700597934935382,0.3172282586687073
283,0,"{'mean': 0.29999999999999999, 'sd': 0.37}",0.8999999999999999,2,0.8194191455841064,1,"(1, 2)",283,1,True,False,False,True,False,True,0.018993448657483984,0.002146624791058985,0.0028957238288798075,0.12445462844779331,0.026519352822409924,0.036477758661209,0.6086141293343537
284,0,"{'mean': -0.29999999999999999, 'sd': 0.37}",-0.30000000000000004,1,0.9467778205871582,0,"(1, 2)",284,0,False,True,True,False,True,True,0.7883199905594676,0.29268146624944924,0.2979837905273122,0.45638730950363043,0.15960040953592958,0.1672307745942606,0.1543070646671768
285,0,"{'mean': -0.29999999999999999, 'sd': 0.37}",-0.10000000000000009,0,0.7522029876708984,0,"(0, 3)",285,0,False,False,True,False,False,True,0.6078481866369821,0.14692208625455871,0.4422058911183582,0.5321177480703063,0.15326124789524415,0.3047183328563094,0.02715353233358836
286,0,"{'mean': -0.29999999999999999, 'sd': 0.37}",-0.9000000000000001,0,0.7481670379638672,0,"(0, 2)",286,0,True,False,True,False,False,True,0.981006551342516,0.8516069311563164,0.9772241218575265,0.7565621497064112,0.5024340895257803,0.6409712273569179,-0.4364232338332059
287,0,"{'mean': -0.29999999999999999, 'sd': 0.37}",-0.30000000000000004,0,0.5569300651550293,0,"(0, 2)",287,0,True,False,True,False,False,True,0.7883199905594676,0.9710287725511645,0.9652503131508537,0.7724410701329394,0.7367314310384724,0.8031107702538858,-0.368211616916603
288,0,"{'mean': -0.29999999999999999, 'sd': 0.37}",-0.5,1,0.5765151977539062,0,"(1, 3)",288,0,False,False,True,False,False,True,0.8994728084538944,0.9877342777284374,0.983887798629653,0.835956939293417,0.8622328543834549,0.8934992844417694,-0.4341058084583015
289,0,"{'mean': -0.29999999999999999, 'sd': 0.37}",-0.5,1,0.5372748374938965,0,"(1, 3)",289,0,True,False,True,False,False,True,0.8994728084538944,0.9877342777284374,0.9859770533859592,0.8677148738736558,0.9249835660559461,0.9397381689138643,-0.46705290422915074
290,0,"{'mean': 0.29999999999999999, 'sd': 0.37}",0.30000000000000004,3,0.9153778553009033,1,"(0, 3)",290,1,False,True,False,True,True,True,0.21168000944053236,0.7073185337505506,0.6821191647874011,0.5396974416570941,0.8161510499032484,0.8109286668506327,-0.08352645211457535
291,0,"{'mean': 0.29999999999999999, 'sd': 0.37}",-0.10000000000000009,2,0.9565238952636719,1,"(0, 2)",291,1,False,False,False,True,False,True,0.6078481866369821,0.933111690027748,0.7385501839294,0.5737728141470382,0.8746313699654982,0.7747394253900164,-0.09176322605728772
292,0,"{'mean': 0.29999999999999999, 'sd': 0.37}",0.5,2,0.47887182235717773,1,"(0, 2)",292,1,True,False,False,True,False,True,0.10052719154610551,0.501460997736269,0.19983425738408003,0.3371500028465718,0.6880461838508836,0.4872868413870482,0.20411838697135615
293,0,"{'mean': 0.29999999999999999, 'sd': 0.37}",0.30000000000000004,3,0.6770951747894287,1,"(1, 3)",293,1,False,False,False,True,False,True,0.21168000944053236,0.7073185337505506,0.08615711033898839,0.2744150061435521,0.697682358800717,0.2867219758630183,0.25205919348567807
294,0,"{'mean': 0.29999999999999999, 'sd': 0.37}",0.7,2,0.3171370029449463,1,"(0, 2)",294,1,False,False,False,True,False,True,0.044449546858264494,0.2951069574554525,0.009366611665233542,0.1594322765009083,0.4963946581280848,0.14804429376412592,0.476029596742839
295,0,"{'mean': -0.29999999999999999, 'sd': 0.37}",-0.5,0,1.0648791790008545,0,"(0, 3)",295,0,False,True,True,False,True,True,0.8994728084538944,0.498539002263731,0.5186850341791024,0.5294525424774014,0.49746683019590787,0.33336466397161413,-0.011985201628580494
296,0,"{'mean': -0.29999999999999999, 'sd': 0.37}",-0.10000000000000009,1,0.803239107131958,0,"(1, 2)",296,0,False,False,True,False,False,True,0.6078481866369821,0.14692208625455871,0.6220094396989698,0.5686503645571918,0.3221944582252333,0.477687051835292,-0.05599260081429029
297,0,"{'mean': -0.29999999999999999, 'sd': 0.37}",0.10000000000000009,3,1.1462769508361816,0,"(0, 3)",297,0,False,False,False,True,True,False,0.39215181336301785,0.06688830997225197,0.48930920582224036,0.4804010889601048,0.19454138409874264,0.4834981288287662,0.0220036995928549
299,0,"{'mean': -0.29999999999999999, 'sd': 0.37}",-0.7000000000000001,1,0.577639102935791,0,"(1, 2)",299,0,False,False,True,False,True,True,0.9555504531417355,0.7048930425445474,0.9540743982086544,0.7179757710509201,0.44971721332164505,0.7187862635187103,-0.3389981502035726
300,0,"{'mean': -0.29999999999999999, 'sd': 0.37}",0.30000000000000004,2,0.873572826385498,0,"(0, 2)",300,0,False,False,False,True,True,False,0.21168000944053236,0.7073185337505506,0.6289703613861914,0.46482789024572624,0.5785178735360978,0.6738783124524509,-0.01949907510178628
301,0,"{'mean': -0.29999999999999999, 'sd': 0.37}",0.10000000000000009,2,0.8060870170593262,0,"(1, 2)",301,0,True,False,False,True,False,False,0.39215181336301785,0.8530779137454413,0.49511047201263303,0.42848985180437205,0.7157978936407696,0.584494392232542,0.040250462449106905
302,0,"{'mean': -0.29999999999999999, 'sd': 0.37}",-0.30000000000000004,1,0.8809788227081299,0,"(1, 2)",302,0,False,False,True,False,True,True,0.7883199905594676,0.9710287725511645,0.7856972041748651,0.6084049211819198,0.843413333095967,0.6850957982037036,-0.12987476877544657
303,0,"{'mean': -0.29999999999999999, 'sd': 0.37}",-0.10000000000000009,1,0.5271198749542236,0,"(1, 2)",303,0,True,False,True,False,False,True,0.6078481866369821,0.933111690027748,0.8062138294381958,0.6081265539094509,0.8882625115618574,0.7456548138209497,-0.11493738438772333
304,0,"{'mean': -0.29999999999999999, 'sd': 0.37}",-0.5,0,0.947437047958374,0,"(0, 2)",304,0,False,False,True,False,False,True,0.8994728084538944,0.9877342777284374,0.9631498362834567,0.7537996811816727,0.9379983946451473,0.8544023250522033,-0.30746869219386164
305,0,"{'mean': -0.29999999999999999, 'sd': 0.37}",-0.30000000000000004,0,0.415391206741333,0,"(0, 2)",305,0,True,False,True,False,False,True,0.7883199905594676,0.9710287725511645,0.9615944748662086,0.7710598358705701,0.954513583598156,0.907998399959206,-0.30373434609693084
306,0,"{'mean': -0.29999999999999999, 'sd': 0.37}",-0.5,0,0.5052618980407715,0,"(0, 3)",306,0,True,False,True,False,False,True,0.8994728084538944,0.9877342777284374,0.9834706356507323,0.8352663221622323,0.9711239306632966,0.9457345178049692,-0.4018671730484654
307,0,"{'mean': -0.29999999999999999, 'sd': 0.37}",-0.30000000000000004,1,0.6030690670013428,0,"(1, 2)",307,0,False,False,True,False,False,True,0.7883199905594676,0.9710287725511645,0.9668518273458948,0.8117931563608499,0.9710763516072305,0.956293172575432,-0.35093358652423273
308,0,"{'mean': -0.29999999999999999, 'sd': 0.37}",-0.5,1,0.526115894317627,0,"(1, 2)",308,0,True,False,True,False,False,True,0.8994728084538944,0.9877342777284374,0.9840697761986894,0.8556329824073722,0.9794053146678339,0.9701814743870607,-0.42546679326211634
309,0,"{'mean': -0.29999999999999999, 'sd': 0.37}",-0.10000000000000009,0,0.6144790649414062,0,"(0, 3)",309,0,False,False,True,False,False,True,0.6078481866369821,0.933111690027748,0.9242320723912393,0.7317405845221772,0.956258502347791,0.94720677338915,-0.2627333966310582
310,0,"{'mean': -0.29999999999999999, 'sd': 0.37}",-0.10000000000000009,0,0.47034502029418945,0,"(0, 3)",310,0,True,False,True,False,False,True,0.6078481866369821,0.933111690027748,0.8901173449231287,0.6697943855795796,0.9446850961877695,0.9186620591561394,-0.18136669831552915
311,0,"{'mean': -0.29999999999999999, 'sd': 0.37}",0.30000000000000004,0,0.8240160942077637,0,"(0, 2)",311,0,True,False,True,False,False,True,0.21168000944053236,0.7073185337505506,0.537142727056774,0.44073719751005597,0.8260018149691601,0.7279023931064568,0.05931665084223545
312,0,"{'mean': -0.29999999999999999, 'sd': 0.37}",-0.5,1,0.8546328544616699,0,"(1, 3)",312,0,False,False,True,False,False,True,0.8994728084538944,0.9877342777284374,0.9097328613961385,0.6701050029819752,0.9068680463487988,0.8188176272512977,-0.22034167457888226
313,0,"{'mean': -0.29999999999999999, 'sd': 0.37}",-0.7000000000000001,1,0.5849378108978271,0,"(1, 3)",313,0,True,False,True,False,False,True,0.9555504531417355,0.9948579972909842,0.9904152556694408,0.8128277280618553,0.9508630218198915,0.9046164414603692,-0.4601708372894412
314,0,"{'mean': -0.29999999999999999, 'sd': 0.37}",0.30000000000000004,3,1.2238531112670898,0,"(0, 3)",314,0,False,False,False,True,True,False,0.21168000944053236,0.7073185337505506,0.6899658453795348,0.5122538687511938,0.829090777785221,0.797291143419952,-0.08008541864472057
315,0,"{'mean': -0.29999999999999999, 'sd': 0.37}",0.10000000000000009,3,0.8259210586547852,0,"(1, 3)",315,0,True,False,False,True,False,False,0.39215181336301785,0.8530779137454413,0.5472202446681701,0.45220284105710584,0.8410843457653312,0.672255694044061,0.009957290677639757
316,0,"{'mean': -0.29999999999999999, 'sd': 0.37}",0.5,2,0.401796817779541,0,"(1, 2)",316,0,False,False,False,True,False,False,0.10052719154610551,0.501460997736269,0.11506802648839781,0.2763650163016057,0.6712726717508001,0.3936618602662294,0.25497864533881986
317,0,"{'mean': -0.29999999999999999, 'sd': 0.37}",0.30000000000000004,2,0.34586286544799805,0,"(1, 2)",317,0,True,False,False,True,False,False,0.21168000944053236,0.7073185337505506,0.05999949485310474,0.24402251287106902,0.6892956027506754,0.22683067755966707,0.27748932266940995
318,0,"{'mean': -0.29999999999999999, 'sd': 0.37}",-0.10000000000000009,2,0.7516508102416992,0,"(1, 2)",318,0,True,False,False,True,False,False,0.6078481866369821,0.933111690027748,0.21213542568465973,0.4259353497540256,0.8112036463892116,0.21948305162216342,0.08874466133470493
319,0,"{'mean': -0.29999999999999999, 'sd': 0.37}",-0.5,0,0.8575830459594727,0,"(0, 2)",319,0,False,False,True,False,True,True,0.8994728084538944,0.9877342777284374,0.7676836541123838,0.66270407910396,0.8994689620588245,0.4935833528672736,-0.20562766933264753
320,0,"{'mean': -0.29999999999999999, 'sd': 0.37}",-0.30000000000000004,0,0.4073669910430908,0,"(0, 2)",320,0,True,False,True,False,False,True,0.7883199905594676,0.9710287725511645,0.9029498445098874,0.7255120348317138,0.9352488673049946,0.6982665986885805,-0.2528138346663238
321,0,"{'mean': 0.29999999999999999, 'sd': 0.37}",-0.10000000000000009,1,0.7166330814361572,1,"(1, 2)",321,1,False,True,True,False,False,False,0.6078481866369821,0.933111690027748,0.8776856884027642,0.666680110734348,0.9341802786663713,0.7879761435456724,-0.17640691733316194
322,0,"{'mean': 0.29999999999999999, 'sd': 0.37}",0.7,3,0.9884419441223145,1,"(0, 3)",322,1,False,False,False,True,True,True,0.044449546858264494,0.2951069574554525,0.1586702569392939,0.35556482879630624,0.614643618060912,0.47332320024248314,0.261796541333419
323,0,"{'mean': 0.29999999999999999, 'sd': 0.37}",0.30000000000000004,3,0.47885990142822266,1,"(0, 3)",323,1,True,False,False,True,False,True,0.21168000944053236,0.028971227448835405,0.07306588168603716,0.2836224191184193,0.3218074227548737,0.27319454096426016,0.2808982706667095
324,0,"{'mean': 0.29999999999999999, 'sd': 0.37}",-0.10000000000000009,2,0.9519720077514648,1,"(1, 2)",324,1,False,False,False,True,False,True,0.6078481866369821,0.14692208625455871,0.22591725999776105,0.4457353028777007,0.2343647545047162,0.24955590048101062,0.09044913533335472
325,0,"{'mean': 0.29999999999999999, 'sd': 0.37}",0.30000000000000004,2,0.40602993965148926,1,"(0, 2)",325,1,True,False,False,True,False,True,0.21168000944053236,0.028971227448835405,0.09486296818240349,0.3287076561591165,0.1316679909767758,0.17220943433170705,0.1952245676666774
326,0,"{'mean': 0.29999999999999999, 'sd': 0.37}",0.7,2,0.5566070079803467,1,"(1, 2)",326,1,True,False,False,True,False,True,0.044449546858264494,0.005142002709015806,0.009830606224069598,0.1865786015086905,0.0684049968428958,0.09102002027788832,0.4476122838333387
327,0,"{'mean': 0.29999999999999999, 'sd': 0.37}",0.7,2,0.39031195640563965,1,"(0, 2)",327,1,True,False,False,True,False,True,0.044449546858264494,0.005142002709015806,0.005592753025710618,0.11551407418347749,0.03677349977595581,0.04830638665179947,0.5738061419166693
328,0,"{'mean': 0.29999999999999999, 'sd': 0.37}",0.10000000000000009,3,1.0556039810180664,1,"(0, 3)",328,1,False,False,False,True,False,True,0.39215181336301785,0.06688830997225197,0.06999624871733505,0.25383294377324767,0.051830904874103884,0.05915131768456726,0.3369030709583347
329,0,"{'mean': 0.29999999999999999, 'sd': 0.37}",0.10000000000000009,3,0.583158016204834,1,"(0, 3)",329,1,True,False,False,True,False,True,0.39215181336301785,0.06688830997225197,0.10653863592693621,0.3229923785681328,0.059359607423177925,0.08284497680575173,0.2184515354791674
330,0,"{'mean': 0.29999999999999999, 'sd': 0.37}",0.7,3,0.6341300010681152,1,"(0, 3)",330,1,True,False,False,True,False,True,0.044449546858264494,0.005142002709015806,0.01046463171267988,0.18372096271319865,0.032250805066096865,0.0466548042592158,0.4592257677395837
331,0,"{'mean': 0.29999999999999999, 'sd': 0.37}",-0.10000000000000009,2,0.9554359912872314,1,"(1, 2)",331,1,False,False,False,True,False,True,0.6078481866369821,0.14692208625455871,0.15853004337513835,0.39578457467509043,0.0895864456603278,0.10259242381717708,0.1796128838697918
332,0,"{'mean': -0.29999999999999999, 'sd': 0.37}",-0.5,1,1.0451030731201172,0,"(1, 2)",332,0,False,True,True,False,True,True,0.8994728084538944,0.498539002263731,0.7241314488882705,0.6476286915644924,0.29406272396202937,0.4133619363527238,-0.1601935580651041
333,0,"{'mean': 0.29999999999999999, 'sd': 0.37}",0.5,3,1.329657793045044,1,"(0, 3)",333,1,False,True,False,True,True,True,0.10052719154610551,0.012265722271562569,0.1914214731292975,0.37407794155529894,0.15316422311679598,0.3023917047410106,0.16990322096744795
334,0,"{'mean': 0.29999999999999999, 'sd': 0.37}",0.30000000000000004,3,0.598146915435791,1,"(1, 3)",334,1,True,False,False,True,False,True,0.21168000944053236,0.028971227448835405,0.08341869571380268,0.29287897549791564,0.09106772528281569,0.19290520022740665,0.23495161048372398
335,0,"{'mean': 0.29999999999999999, 'sd': 0.37}",0.10000000000000009,3,0.7769708633422852,1,"(1, 3)",335,1,True,False,False,True,False,True,0.39215181336301785,0.06688830997225197,0.11433334132862824,0.34251539443046675,0.07897801762753383,0.15361927077801746,0.16747580524186204
336,0,"{'mean': 0.29999999999999999, 'sd': 0.37}",0.5,3,0.6602392196655273,1,"(0, 3)",336,1,True,False,False,True,False,True,0.10052719154610551,0.012265722271562569,0.02578375368997927,0.22152129298828613,0.0456218699495482,0.08970151223399836,0.333737902620931
337,0,"{'mean': 0.29999999999999999, 'sd': 0.37}",0.5,2,0.45679497718811035,1,"(1, 2)",337,1,False,False,False,True,False,True,0.10052719154610551,0.012265722271562569,0.015099387490493998,0.1610242422671958,0.028943796110555385,0.05240044986224618,0.41686895131046553
338,0,"{'mean': 0.29999999999999999, 'sd': 0.37}",-0.10000000000000009,1,0.8590579032897949,1,"(1, 3)",338,1,False,False,True,False,True,False,0.6078481866369821,0.14692208625455871,0.16363899990623826,0.384436214452089,0.08793294118255705,0.10801972488424222,0.15843447565523272
339,0,"{'mean': 0.29999999999999999, 'sd': 0.37}",0.5,2,0.8865690231323242,1,"(1, 2)",339,1,False,False,False,True,True,True,0.10052719154610551,0.012265722271562569,0.03246610654591377,0.24248170299909724,0.05009933172705981,0.07024291571507799,0.32921723782761636
340,0,"{'mean': -0.29999999999999999, 'sd': 0.37}",-0.30000000000000004,1,0.6886439323425293,0,"(1, 3)",340,0,False,True,True,False,True,True,0.7883199905594676,0.29268146624944924,0.3492775406924715,0.5154008467792824,0.17139039898825453,0.20976022820377477,0.014608618913808158
341,0,"{'mean': 0.29999999999999999, 'sd': 0.37}",0.30000000000000004,2,0.6204180717468262,1,"(1, 2)",341,1,False,True,False,True,True,True,0.21168000944053236,0.028971227448835405,0.14102162940044768,0.3635404281099074,0.10018081321854497,0.1753909288021112,0.1573043094569041
342,0,"{'mean': -0.29999999999999999, 'sd': 0.37}",-0.30000000000000004,1,0.4626920223236084,0,"(1, 3)",342,0,False,True,True,False,True,True,0.7883199905594676,0.29268146624944924,0.501700504731994,0.5759302093346874,0.19643113973399712,0.3385457167670526,-0.07134784527154797
343,0,"{'mean': -0.29999999999999999, 'sd': 0.37}",-0.30000000000000004,0,0.7408630847930908,0,"(0, 3)",343,0,False,False,True,False,False,True,0.7883199905594676,0.29268146624944924,0.7892266190591796,0.6821250999470775,0.24455630299172318,0.5638861679131161,-0.185673922635774
344,0,"{'mean': -0.29999999999999999, 'sd': 0.37}",-0.10000000000000009,1,1.0517687797546387,0,"(1, 2)",344,0,False,False,True,False,False,True,0.6078481866369821,0.14692208625455871,0.8084419724333913,0.6449866432920298,0.19573919462314093,0.6861640701732536,-0.14283696131788703
345,0,"{'mean': -0.29999999999999999, 'sd': 0.37}",-0.5,0,0.5393059253692627,0,"(0, 2)",345,0,False,False,True,False,False,True,0.8994728084538944,0.498539002263731,0.9634821508430362,0.7722297258729621,0.34713909844343593,0.8248231105081449,-0.3214184806589435
346,0,"{'mean': -0.29999999999999999, 'sd': 0.37}",-0.5,1,0.5882351398468018,0,"(1, 3)",346,0,False,False,True,False,False,True,0.8994728084538944,0.498539002263731,0.9836863416416494,0.8358512671634283,0.4228390503535835,0.9042547260748972,-0.41070924032947176
347,0,"{'mean': -0.29999999999999999, 'sd': 0.37}",-0.10000000000000009,0,0.7844431400299072,0,"(0, 2)",347,0,False,False,True,False,False,True,0.6078481866369821,0.14692208625455871,0.9240173121209053,0.7218497269002052,0.2848805683040711,0.9141360190979013,-0.2553546201647359
348,0,"{'mean': -0.29999999999999999, 'sd': 0.37}",-0.7000000000000001,0,0.8029239177703857,0,"(0, 3)",348,0,True,False,True,False,False,True,0.9555504531417355,0.7048930425445474,0.9911664292093295,0.8387000900209703,0.4948868054243093,0.9526512241536154,-0.477677310082368
349,0,"{'mean': -0.29999999999999999, 'sd': 0.37}",-0.9000000000000001,0,0.43913698196411133,0,"(0, 3)",349,0,True,False,True,False,False,True,0.981006551342516,0.9978533752089411,0.9976838803875677,0.9098533206817432,0.7463700903166253,0.9751675522705916,-0.688838655041184
350,0,"{'mean': -0.29999999999999999, 'sd': 0.37}",-0.10000000000000009,0,0.6576271057128906,0,"(0, 3)",350,0,True,False,True,False,False,True,0.6078481866369821,0.933111690027748,0.9318258454669323,0.7588507536593627,0.8397408901721866,0.9534966988687619,-0.39441932752059206
351,0,"{'mean': -0.29999999999999999, 'sd': 0.37}",-0.10000000000000009,0,0.453902006149292,0,"(0, 3)",351,0,True,False,True,False,False,True,0.6078481866369821,0.933111690027748,0.8945146486904604,0.6833494701481724,0.8864262900999673,0.9240056737796112,-0.24720966376029607
352,0,"{'mean': -0.29999999999999999, 'sd': 0.37}",-0.30000000000000004,1,0.6655001640319824,0,"(1, 2)",352,0,False,False,True,False,False,True,0.7883199905594676,0.9710287725511645,0.9427688603377468,0.73583473035382,0.9287275313255658,0.9333872670586789,-0.27360483188014806
353,0,"{'mean': -0.29999999999999999, 'sd': 0.37}",-0.10000000000000009,1,1.130842924118042,0,"(1, 3)",353,0,True,False,True,False,False,True,0.6078481866369821,0.933111690027748,0.9008162233153072,0.6718414584954011,0.9309196106766569,0.9171017451869931,-0.18680241594007407
354,0,"{'mean': -0.29999999999999999, 'sd': 0.37}",-0.10000000000000009,1,0.5047030448913574,0,"(1, 2)",354,0,True,False,True,False,False,True,0.6078481866369821,0.933111690027748,0.8764305215725042,0.6398448225661917,0.9320156503522024,0.8967661333797486,-0.14340120797003708
355,0,"{'mean': -0.29999999999999999, 'sd': 0.37}",-0.7000000000000001,1,0.7121081352233887,0,"(1, 2)",355,0,True,False,True,False,False,True,0.9555504531417355,0.9948579972909842,0.9885855510240172,0.7976976378539635,0.9634368238215933,0.9426758422018829,-0.4217006039850186
356,0,"{'mean': -0.29999999999999999, 'sd': 0.37}",-0.30000000000000004,0,1.1131250858306885,0,"(0, 3)",356,0,False,False,True,False,False,True,0.7883199905594676,0.9710287725511645,0.9681537411821267,0.7930088142067155,0.9672327981863789,0.9554147916920048,-0.36085030199250934
357,0,"{'mean': -0.29999999999999999, 'sd': 0.37}",-0.30000000000000004,0,0.49611902236938477,0,"(0, 3)",357,0,True,False,True,False,False,True,0.7883199905594676,0.9710287725511645,0.9629018505429053,0.7906644023830915,0.9691307853687716,0.959158321117455,-0.3304251509962547
358,0,"{'mean': -0.29999999999999999, 'sd': 0.37}",-0.10000000000000009,1,0.6017580032348633,0,"(1, 3)",358,0,False,False,True,False,False,True,0.6078481866369821,0.933111690027748,0.9123026666382987,0.6992562945100369,0.9511212376982598,0.9357304938778769,-0.2152125754981274
359,0,"{'mean': 0.29999999999999999, 'sd': 0.37}",0.30000000000000004,2,0.733281135559082,1,"(0, 2)",359,1,False,True,False,True,True,True,0.21168000944053236,0.7073185337505506,0.5670144680441012,0.4554681519752846,0.8292198857244053,0.751372480960989,0.04239371225093633
360,0,"{'mean': 0.29999999999999999, 'sd': 0.37}",0.7,2,0.4391288757324219,1,"(0, 2)",360,1,True,False,False,True,False,True,0.044449546858264494,0.2951069574554525,0.05454403439959261,0.24995884941677454,0.5621634215899289,0.4029582576802908,0.37119685612546816
361,0,"{'mean': 0.29999999999999999, 'sd': 0.37}",0.10000000000000009,2,0.78507399559021,1,"(0, 2)",361,1,True,False,False,True,False,True,0.39215181336301785,0.06688830997225197,0.09764270632071133,0.32105533138989617,0.31452586578109043,0.2503004820005011,0.23559842806273412
362,0,"{'mean': 0.29999999999999999, 'sd': 0.37}",0.10000000000000009,3,0.8680717945098877,1,"(0, 3)",362,1,False,False,False,True,False,True,0.39215181336301785,0.06688830997225197,0.12266273465362484,0.356603572376457,0.1907070878766712,0.18648160832706295,0.1677992140313671
363,0,"{'mean': 0.29999999999999999, 'sd': 0.37}",0.5,2,0.832097053527832,1,"(0, 2)",363,1,False,False,False,True,False,True,0.10052719154610551,0.012265722271562569,0.026872739159881788,0.22856538196128126,0.10148640507411688,0.10667717374347237,0.33389960701568355
364,0,"{'mean': 0.29999999999999999, 'sd': 0.37}",0.7,2,0.5528898239135742,1,"(0, 3)",364,1,True,False,False,False,False,False,0.044449546858264494,0.005142002709015806,0.006392280514391111,0.13650746440977288,0.053314203891566346,0.05653472712893174,0.5169498035078417
365,0,"{'mean': 0.29999999999999999, 'sd': 0.37}",0.7,3,0.5917880535125732,1,"(0, 3)",365,1,False,False,False,True,False,True,0.044449546858264494,0.005142002709015806,0.00543424550570381,0.09047850563401869,0.029228103300291075,0.030984486317317775,0.6084749017539208
366,0,"{'mean': -0.29999999999999999, 'sd': 0.37}",-0.30000000000000004,1,0.7450969219207764,0,"(1, 2)",366,0,False,True,True,False,True,True,0.7883199905594676,0.29268146624944924,0.3025891822840261,0.43939924809674313,0.16095478477487016,0.16678683430067193,0.1542374508769604
367,0,"{'mean': -0.29999999999999999, 'sd': 0.37}",-0.30000000000000004,1,0.6564991474151611,0,"(1, 3)",367,0,True,False,True,False,False,True,0.7883199905594676,0.29268146624944924,0.6594291089780377,0.6138596193281054,0.22681812551215969,0.41310797163935487,-0.07288127456151983
368,0,"{'mean': -0.29999999999999999, 'sd': 0.37}",0.7,2,0.6777431964874268,0,"(1, 2)",368,0,False,False,False,True,True,False,0.044449546858264494,0.005142002709015806,0.07267942662997204,0.32915458309318496,0.11598006411058774,0.24289369913466347,0.31355936271924006
369,0,"{'mean': -0.29999999999999999, 'sd': 0.37}",-0.5,1,1.1006269454956055,0,"(1, 3)",369,0,False,False,True,False,True,True,0.8994728084538944,0.498539002263731,0.6269780241742338,0.6143136957735397,0.3072595331871594,0.43493586165444864,-0.09322031864037997
370,0,"{'mean': -0.29999999999999999, 'sd': 0.37}",-0.10000000000000009,1,0.6427888870239258,0,"(1, 2)",370,0,True,False,True,False,False,True,0.6078481866369821,0.14692208625455871,0.7006382527405861,0.6110809412052609,0.22709080972085904,0.5677870571975174,-0.09661015932019003
