trial_count,FB,c_dis,context,response,rt,state,stim,trial_count,ts,rep_resp,switch,con_shape,con_orient,correct
1,1,"{'mean': -0.29999999999999999, 'sd': 0.37}",-0.30000000000000004,1,0.5,1,"(1, 2)",1,0,False,False,True,False,True
2,1,"{'mean': -0.29999999999999999, 'sd': 0.37}",-0.5,0,0.5,1,"(0, 3)",2,0,False,False,True,False,True
3,1,"{'mean': -0.29999999999999999, 'sd': 0.37}",-0.30000000000000004,1,0.5,1,"(1, 3)",3,0,False,False,True,False,True
4,1,"{'mean': -0.29999999999999999, 'sd': 0.37}",0.10000000000000009,0,0.5,1,"(0, 3)",4,0,False,False,True,False,True
5,1,"{'mean': -0.29999999999999999, 'sd': 0.37}",-0.7000000000000001,0,0.5,1,"(0, 3)",5,0,True,False,True,False,True
6,1,"{'mean': -0.29999999999999999, 'sd': 0.37}",-0.7000000000000001,1,0.5,1,"(1, 3)",6,0,False,False,True,False,True
7,1,"{'mean': -0.29999999999999999, 'sd': 0.37}",-0.30000000000000004,1,0.5,1,"(1, 2)",7,0,True,False,True,False,True
8,1,"{'mean': -0.29999999999999999, 'sd': 0.37}",-0.7000000000000001,0,0.5,1,"(0, 3)",8,0,False,False,True,False,True
9,1,"{'mean': -0.29999999999999999, 'sd': 0.37}",-0.9000000000000001,0,0.5,1,"(0, 2)",9,0,True,False,True,False,True
10,1,"{'mean': -0.29999999999999999, 'sd': 0.37}",-0.10000000000000009,1,0.5,1,"(1, 2)",10,0,False,False,True,False,True
11,0,"{'mean': 0.29999999999999999, 'sd': 0.37}",-0.10000000000000009,1,0.5,1,"(1, 3)",11,1,True,True,True,False,False
12,0,"{'mean': 0.29999999999999999, 'sd': 0.37}",-0.30000000000000004,0,0.5,1,"(0, 3)",12,1,False,False,True,False,False
13,1,"{'mean': -0.29999999999999999, 'sd': 0.37}",-0.5,1,0.5,1,"(1, 3)",13,0,False,True,True,False,True
14,0,"{'mean': 0.29999999999999999, 'sd': 0.37}",0.30000000000000004,1,0.5,1,"(1, 3)",14,1,True,True,True,False,False
15,1,"{'mean': 0.29999999999999999, 'sd': 0.37}",0.5,3,0.5,1,"(0, 3)",15,1,False,False,False,True,True
16,1,"{'mean': 0.29999999999999999, 'sd': 0.37}",0.7,2,0.5,1,"(1, 2)",16,1,False,False,False,True,True
17,1,"{'mean': 0.29999999999999999, 'sd': 0.37}",0.5,2,0.5,1,"(0, 2)",17,1,True,False,False,True,True
18,1,"{'mean': 0.29999999999999999, 'sd': 0.37}",0.5,3,0.5,1,"(0, 3)",18,1,False,False,False,True,True
19,1,"{'mean': 0.29999999999999999, 'sd': 0.37}",0.10000000000000009,2,0.5,1,"(0, 2)",19,1,False,False,False,True,True
20,1,"{'mean': 0.29999999999999999, 'sd': 0.37}",0.30000000000000004,2,0.5,1,"(1, 2)",20,1,True,False,False,True,True
21,1,"{'mean': 0.29999999999999999, 'sd': 0.37}",0.10000000000000009,3,0.5,1,"(1, 3)",21,1,False,False,False,True,True
22,1,"{'mean': 0.29999999999999999, 'sd': 0.37}",0.30000000000000004,2,0.5,1,"(1, 2)",22,1,False,False,False,True,True
23,1,"{'mean': 0.29999999999999999, 'sd': 0.37}",-0.10000000000000009,3,0.5,1,"(0, 3)",23,1,False,False,False,True,True
24,1,"{'mean': 0.29999999999999999, 'sd': 0.37}",0.5,3,0.5,1,"(0, 3)",24,1,True,False,False,True,True
25,1,"{'mean': 0.29999999999999999, 'sd': 0.37}",0.5,2,0.5,1,"(0, 2)",25,1,False,False,False,True,True
26,1,"{'mean': 0.29999999999999999, 'sd': 0.37}",0.30000000000000004,2,0.5,1,"(1, 2)",26,1,True,False,False,True,True
27,1,"{'mean': 0.29999999999999999, 'sd': 0.37}",0.5,3,0.5,1,"(1, 3)",27,1,False,False,False,True,True
28,1,"{'mean': 0.29999999999999999, 'sd': 0.37}",0.7,2,0.5,1,"(1, 2)",28,1,False,False,False,True,True
29,1,"{'mean': 0.29999999999999999, 'sd': 0.37}",0.5,2,0.5,1,"(0, 2)",29,1,True,False,False,True,True
30,1,"{'mean': 0.29999999999999999, 'sd': 0.37}",-0.10000000000000009,2,0.5,1,"(0, 2)",30,1,True,False,False,True,True
31,1,"{'mean': 0.29999999999999999, 'sd': 0.37}",0.30000000000000004,2,0.5,1,"(1, 2)",31,1,True,False,False,True,True
32,1,"{'mean': 0.29999999999999999, 'sd': 0.37}",0.30000000000000004,3,0.5,1,"(0, 3)",32,1,False,False,False,True,True
33,1,"{'mean': 0.29999999999999999, 'sd': 0.37}",0.10000000000000009,2,0.5,1,"(1, 2)",33,1,False,False,False,True,True
34,1,"{'mean': 0.29999999999999999, 'sd': 0.37}",0.10000000000000009,2,0.5,1,"(0, 2)",34,1,True,False,False,True,True
35,1,"{'mean': 0.29999999999999999, 'sd': 0.37}",1.0,2,0.5,1,"(0, 2)",35,1,True,False,False,True,True
36,1,"{'mean': 0.29999999999999999, 'sd': 0.37}",0.8999999999999999,3,0.5,1,"(0, 3)",36,1,False,False,False,True,True
37,1,"{'mean': 0.29999999999999999, 'sd': 0.37}",0.7,3,0.5,1,"(1, 3)",37,1,True,False,False,True,True
38,1,"{'mean': 0.29999999999999999, 'sd': 0.37}",0.5,3,0.5,1,"(0, 3)",38,1,True,False,False,True,True
39,1,"{'mean': 0.29999999999999999, 'sd': 0.37}",-0.30000000000000004,3,0.5,1,"(1, 3)",39,1,True,False,False,True,True
40,1,"{'mean': 0.29999999999999999, 'sd': 0.37}",0.10000000000000009,2,0.5,1,"(1, 2)",40,1,False,False,False,True,True
41,0,"{'mean': -0.29999999999999999, 'sd': 0.37}",0.10000000000000009,2,0.5,1,"(0, 2)",41,0,True,True,False,True,False
42,1,"{'mean': -0.29999999999999999, 'sd': 0.37}",-0.7000000000000001,0,0.5,1,"(0, 2)",42,0,False,False,True,False,True
43,0,"{'mean': -0.29999999999999999, 'sd': 0.37}",0.7,3,0.5,1,"(1, 3)",43,0,False,False,False,True,False
44,0,"{'mean': -0.29999999999999999, 'sd': 0.37}",0.30000000000000004,3,0.5,1,"(0, 3)",44,0,True,False,False,True,False
45,0,"{'mean': -0.29999999999999999, 'sd': 0.37}",0.5,2,0.5,1,"(0, 2)",45,0,False,False,False,True,False
46,0,"{'mean': -0.29999999999999999, 'sd': 0.37}",0.10000000000000009,3,0.5,1,"(1, 3)",46,0,False,False,False,True,False
47,0,"{'mean': -0.29999999999999999, 'sd': 0.37}",-0.30000000000000004,3,0.5,1,"(1, 3)",47,0,True,False,False,True,False
48,1,"{'mean': -0.29999999999999999, 'sd': 0.37}",-0.7000000000000001,1,0.5,1,"(1, 3)",48,0,False,False,True,False,True
49,1,"{'mean': -0.29999999999999999, 'sd': 0.37}",0.10000000000000009,0,0.5,1,"(0, 2)",49,0,False,False,True,False,True
50,1,"{'mean': -0.29999999999999999, 'sd': 0.37}",0.10000000000000009,0,0.5,1,"(0, 2)",50,0,True,False,True,False,True
51,1,"{'mean': -0.29999999999999999, 'sd': 0.37}",-0.5,0,0.5,1,"(0, 3)",51,0,True,False,True,False,True
52,1,"{'mean': -0.29999999999999999, 'sd': 0.37}",-0.30000000000000004,0,0.5,1,"(0, 3)",52,0,True,False,True,False,True
53,1,"{'mean': -0.29999999999999999, 'sd': 0.37}",-0.10000000000000009,0,0.5,1,"(0, 2)",53,0,True,False,True,False,True
54,1,"{'mean': -0.29999999999999999, 'sd': 0.37}",0.10000000000000009,0,0.5,1,"(0, 2)",54,0,True,False,True,False,True
55,1,"{'mean': -0.29999999999999999, 'sd': 0.37}",-0.10000000000000009,1,0.5,1,"(1, 3)",55,0,False,False,True,False,True
56,1,"{'mean': -0.29999999999999999, 'sd': 0.37}",-0.5,0,0.5,1,"(0, 3)",56,0,False,False,True,False,True
57,1,"{'mean': -0.29999999999999999, 'sd': 0.37}",-0.30000000000000004,0,0.5,1,"(0, 2)",57,0,True,False,True,False,True
58,1,"{'mean': -0.29999999999999999, 'sd': 0.37}",-0.7000000000000001,1,0.5,1,"(1, 3)",58,0,False,False,True,False,True
59,1,"{'mean': -0.29999999999999999, 'sd': 0.37}",-0.7000000000000001,1,0.5,1,"(1, 2)",59,0,True,False,True,False,True
60,1,"{'mean': -0.29999999999999999, 'sd': 0.37}",0.30000000000000004,0,0.5,1,"(0, 2)",60,0,False,False,True,False,True
61,1,"{'mean': -0.29999999999999999, 'sd': 0.37}",-0.10000000000000009,1,0.5,1,"(1, 2)",61,0,False,False,True,False,True
62,0,"{'mean': 0.29999999999999999, 'sd': 0.37}",0.10000000000000009,0,0.5,1,"(0, 2)",62,1,False,True,True,False,False
63,1,"{'mean': 0.29999999999999999, 'sd': 0.37}",0.5,2,0.5,1,"(0, 2)",63,1,False,False,False,True,True
64,1,"{'mean': 0.29999999999999999, 'sd': 0.37}",0.5,3,0.5,1,"(1, 3)",64,1,False,False,False,True,True
65,1,"{'mean': 0.29999999999999999, 'sd': 0.37}",0.5,3,0.5,1,"(0, 3)",65,1,True,False,False,True,True
66,1,"{'mean': 0.29999999999999999, 'sd': 0.37}",0.5,3,0.5,1,"(1, 3)",66,1,True,False,False,True,True
67,1,"{'mean': 0.29999999999999999, 'sd': 0.37}",-0.10000000000000009,2,0.5,1,"(0, 2)",67,1,False,False,False,True,True
68,1,"{'mean': 0.29999999999999999, 'sd': 0.37}",1.0,2,0.5,1,"(0, 2)",68,1,True,False,False,True,True
69,1,"{'mean': 0.29999999999999999, 'sd': 0.37}",0.10000000000000009,2,0.5,1,"(1, 2)",69,1,True,False,False,True,True
70,1,"{'mean': 0.29999999999999999, 'sd': 0.37}",0.30000000000000004,2,0.5,1,"(0, 2)",70,1,True,False,False,True,True
71,1,"{'mean': 0.29999999999999999, 'sd': 0.37}",0.30000000000000004,2,0.5,1,"(0, 2)",71,1,True,False,False,True,True
72,1,"{'mean': 0.29999999999999999, 'sd': 0.37}",0.8999999999999999,2,0.5,1,"(1, 2)",72,1,True,False,False,True,True
73,1,"{'mean': 0.29999999999999999, 'sd': 0.37}",0.10000000000000009,3,0.5,1,"(0, 3)",73,1,False,False,False,True,True
74,1,"{'mean': 0.29999999999999999, 'sd': 0.37}",0.10000000000000009,3,0.5,1,"(0, 3)",74,1,True,False,False,True,True
75,1,"{'mean': 0.29999999999999999, 'sd': 0.37}",0.10000000000000009,3,0.5,1,"(0, 3)",75,1,True,False,False,True,True
76,1,"{'mean': 0.29999999999999999, 'sd': 0.37}",0.30000000000000004,2,0.5,1,"(1, 2)",76,1,False,False,False,True,True
77,1,"{'mean': 0.29999999999999999, 'sd': 0.37}",0.5,2,0.5,1,"(1, 2)",77,1,True,False,False,True,True
78,1,"{'mean': 0.29999999999999999, 'sd': 0.37}",1.0,3,0.5,1,"(1, 3)",78,1,False,False,False,True,True
79,1,"{'mean': 0.29999999999999999, 'sd': 0.37}",0.5,2,0.5,1,"(1, 2)",79,1,False,False,False,True,True
80,0,"{'mean': -0.29999999999999999, 'sd': 0.37}",-0.30000000000000004,3,0.5,1,"(1, 3)",80,0,False,True,False,True,False
81,1,"{'mean': -0.29999999999999999, 'sd': 0.37}",-0.5,1,0.5,1,"(1, 2)",81,0,False,False,True,False,True
82,1,"{'mean': -0.29999999999999999, 'sd': 0.37}",0.10000000000000009,0,0.5,1,"(0, 3)",82,0,False,False,True,False,True
83,1,"{'mean': -0.29999999999999999, 'sd': 0.37}",-0.5,0,0.5,1,"(0, 2)",83,0,True,False,True,False,True
84,1,"{'mean': -0.29999999999999999, 'sd': 0.37}",-0.9000000000000001,1,0.5,1,"(1, 3)",84,0,False,False,True,False,True
85,1,"{'mean': -0.29999999999999999, 'sd': 0.37}",-0.30000000000000004,1,0.5,1,"(1, 2)",85,0,True,False,True,False,True
86,1,"{'mean': -0.29999999999999999, 'sd': 0.37}",0.10000000000000009,0,0.5,1,"(0, 3)",86,0,False,False,True,False,True
87,1,"{'mean': -0.29999999999999999, 'sd': 0.37}",-0.5,1,0.5,1,"(1, 2)",87,0,False,False,True,False,True
88,1,"{'mean': -0.29999999999999999, 'sd': 0.37}",-0.10000000000000009,1,0.5,1,"(1, 3)",88,0,True,False,True,False,True
89,1,"{'mean': -0.29999999999999999, 'sd': 0.37}",-0.5,0,0.5,1,"(0, 3)",89,0,False,False,True,False,True
90,0,"{'mean': 0.29999999999999999, 'sd': 0.37}",-0.7000000000000001,1,0.5,1,"(1, 3)",90,1,False,True,True,False,False
91,0,"{'mean': 0.29999999999999999, 'sd': 0.37}",0.10000000000000009,1,0.5,1,"(1, 2)",91,1,True,False,True,False,False
92,0,"{'mean': 0.29999999999999999, 'sd': 0.37}",0.10000000000000009,0,0.5,1,"(0, 2)",92,1,False,False,True,False,False
93,1,"{'mean': 0.29999999999999999, 'sd': 0.37}",0.5,3,0.5,1,"(1, 3)",93,1,False,False,False,True,True
94,1,"{'mean': 0.29999999999999999, 'sd': 0.37}",0.30000000000000004,2,0.5,1,"(0, 2)",94,1,False,False,False,True,True
95,1,"{'mean': 0.29999999999999999, 'sd': 0.37}",0.5,3,0.5,1,"(0, 3)",95,1,False,False,False,True,True
96,1,"{'mean': 0.29999999999999999, 'sd': 0.37}",0.30000000000000004,2,0.5,1,"(1, 2)",96,1,False,False,False,True,True
97,1,"{'mean': 0.29999999999999999, 'sd': 0.37}",0.10000000000000009,3,0.5,1,"(0, 3)",97,1,False,False,False,True,True
98,1,"{'mean': 0.29999999999999999, 'sd': 0.37}",0.7,3,0.5,1,"(0, 3)",98,1,True,False,False,True,True
99,1,"{'mean': 0.29999999999999999, 'sd': 0.37}",-0.10000000000000009,3,0.5,1,"(1, 3)",99,1,True,False,False,True,True
100,1,"{'mean': 0.29999999999999999, 'sd': 0.37}",0.8999999999999999,2,0.5,1,"(0, 2)",100,1,False,False,False,True,True
101,1,"{'mean': 0.29999999999999999, 'sd': 0.37}",0.30000000000000004,3,0.5,1,"(0, 3)",101,1,False,False,False,True,True
102,1,"{'mean': 0.29999999999999999, 'sd': 0.37}",0.30000000000000004,3,0.5,1,"(0, 3)",102,1,True,False,False,True,True
103,1,"{'mean': 0.29999999999999999, 'sd': 0.37}",0.7,3,0.5,1,"(0, 3)",103,1,True,False,False,True,True
104,1,"{'mean': 0.29999999999999999, 'sd': 0.37}",0.7,3,0.5,1,"(1, 3)",104,1,True,False,False,True,True
105,1,"{'mean': 0.29999999999999999, 'sd': 0.37}",-0.30000000000000004,2,0.5,1,"(0, 2)",105,1,False,False,False,True,True
106,1,"{'mean': 0.29999999999999999, 'sd': 0.37}",-0.10000000000000009,2,0.5,1,"(1, 2)",106,1,True,False,False,True,True
107,1,"{'mean': 0.29999999999999999, 'sd': 0.37}",0.5,2,0.5,1,"(1, 2)",107,1,True,False,False,True,True
108,1,"{'mean': 0.29999999999999999, 'sd': 0.37}",0.30000000000000004,2,0.5,1,"(1, 2)",108,1,True,False,False,True,True
109,1,"{'mean': 0.29999999999999999, 'sd': 0.37}",0.5,2,0.5,1,"(1, 2)",109,1,True,False,False,True,True
110,1,"{'mean': 0.29999999999999999, 'sd': 0.37}",0.10000000000000009,3,0.5,1,"(0, 3)",110,1,False,False,False,True,True
111,1,"{'mean': 0.29999999999999999, 'sd': 0.37}",0.5,3,0.5,1,"(1, 3)",111,1,True,False,False,True,True
112,1,"{'mean': 0.29999999999999999, 'sd': 0.37}",0.8999999999999999,2,0.5,1,"(0, 2)",112,1,False,False,False,True,True
113,1,"{'mean': 0.29999999999999999, 'sd': 0.37}",0.5,2,0.5,1,"(1, 2)",113,1,True,False,False,True,True
114,1,"{'mean': -0.29999999999999999, 'sd': 0.37}",-0.5,1,0.5,1,"(1, 2)",114,0,False,True,True,False,True
115,1,"{'mean': -0.29999999999999999, 'sd': 0.37}",-0.30000000000000004,1,0.5,1,"(1, 2)",115,0,True,False,True,False,True
116,1,"{'mean': -0.29999999999999999, 'sd': 0.37}",-0.30000000000000004,0,0.5,1,"(0, 3)",116,0,False,False,True,False,True
117,1,"{'mean': -0.29999999999999999, 'sd': 0.37}",-0.5,1,0.5,1,"(1, 2)",117,0,False,False,True,False,True
118,1,"{'mean': -0.29999999999999999, 'sd': 0.37}",-0.30000000000000004,1,0.5,1,"(1, 3)",118,0,True,False,True,False,True
119,1,"{'mean': -0.29999999999999999, 'sd': 0.37}",-0.30000000000000004,0,0.5,1,"(0, 3)",119,0,False,False,True,False,True
120,1,"{'mean': -0.29999999999999999, 'sd': 0.37}",0.30000000000000004,1,0.5,1,"(1, 3)",120,0,False,False,True,False,True
121,1,"{'mean': -0.29999999999999999, 'sd': 0.37}",-0.30000000000000004,1,0.5,1,"(1, 2)",121,0,True,False,True,False,True
122,1,"{'mean': -0.29999999999999999, 'sd': 0.37}",-0.5,1,0.5,1,"(1, 3)",122,0,True,False,True,False,True
123,1,"{'mean': -0.29999999999999999, 'sd': 0.37}",-0.5,1,0.5,1,"(1, 3)",123,0,True,False,True,False,True
124,1,"{'mean': -0.29999999999999999, 'sd': 0.37}",-0.5,1,0.5,1,"(1, 2)",124,0,True,False,True,False,True
125,1,"{'mean': -0.29999999999999999, 'sd': 0.37}",0.30000000000000004,0,0.5,1,"(0, 3)",125,0,False,False,True,False,True
126,1,"{'mean': -0.29999999999999999, 'sd': 0.37}",-0.9000000000000001,1,0.5,1,"(1, 2)",126,0,False,False,True,False,True
127,1,"{'mean': -0.29999999999999999, 'sd': 0.37}",-0.5,1,0.5,1,"(1, 2)",127,0,True,False,True,False,True
128,1,"{'mean': -0.29999999999999999, 'sd': 0.37}",-0.5,0,0.5,1,"(0, 2)",128,0,False,False,True,False,True
129,1,"{'mean': -0.29999999999999999, 'sd': 0.37}",-0.5,0,0.5,1,"(0, 3)",129,0,True,False,True,False,True
130,1,"{'mean': -0.29999999999999999, 'sd': 0.37}",-0.7000000000000001,0,0.5,1,"(0, 2)",130,0,True,False,True,False,True
131,1,"{'mean': 0.29999999999999999, 'sd': 0.37}",0.5,3,0.5,1,"(1, 3)",131,1,False,True,False,True,True
132,1,"{'mean': 0.29999999999999999, 'sd': 0.37}",0.7,2,0.5,1,"(0, 2)",132,1,False,False,False,True,True
133,1,"{'mean': 0.29999999999999999, 'sd': 0.37}",-0.10000000000000009,3,0.5,1,"(0, 3)",133,1,False,False,False,True,True
134,1,"{'mean': 0.29999999999999999, 'sd': 0.37}",0.30000000000000004,2,0.5,1,"(1, 2)",134,1,False,False,False,True,True
135,1,"{'mean': 0.29999999999999999, 'sd': 0.37}",0.30000000000000004,3,0.5,1,"(1, 3)",135,1,False,False,False,True,True
136,1,"{'mean': 0.29999999999999999, 'sd': 0.37}",0.30000000000000004,3,0.5,1,"(0, 3)",136,1,True,False,False,True,True
137,1,"{'mean': -0.29999999999999999, 'sd': 0.37}",-0.7000000000000001,1,0.5,1,"(1, 3)",137,0,False,True,True,False,True
138,1,"{'mean': -0.29999999999999999, 'sd': 0.37}",-0.5,1,0.5,1,"(1, 2)",138,0,True,False,True,False,True
139,1,"{'mean': -0.29999999999999999, 'sd': 0.37}",0.30000000000000004,0,0.5,1,"(0, 3)",139,0,False,False,True,False,True
140,1,"{'mean': -0.29999999999999999, 'sd': 0.37}",-0.7000000000000001,0,0.5,1,"(0, 2)",140,0,True,False,True,False,True
141,1,"{'mean': -0.29999999999999999, 'sd': 0.37}",-0.7000000000000001,1,0.5,1,"(1, 3)",141,0,False,False,True,False,True
142,1,"{'mean': -0.29999999999999999, 'sd': 0.37}",0.10000000000000009,1,0.5,1,"(1, 3)",142,0,True,False,True,False,True
143,0,"{'mean': -0.29999999999999999, 'sd': 0.37}",0.30000000000000004,3,0.5,1,"(0, 3)",143,0,False,False,False,True,False
144,1,"{'mean': 0.29999999999999999, 'sd': 0.37}",0.7,3,0.5,1,"(1, 3)",144,1,True,True,False,True,True
145,1,"{'mean': 0.29999999999999999, 'sd': 0.37}",-0.10000000000000009,3,0.5,1,"(0, 3)",145,1,True,False,False,True,True
146,1,"{'mean': 0.29999999999999999, 'sd': 0.37}",0.30000000000000004,2,0.5,1,"(0, 2)",146,1,False,False,False,True,True
147,1,"{'mean': 0.29999999999999999, 'sd': 0.37}",0.8999999999999999,3,0.5,1,"(1, 3)",147,1,False,False,False,True,True
148,1,"{'mean': 0.29999999999999999, 'sd': 0.37}",0.10000000000000009,2,0.5,1,"(1, 2)",148,1,False,False,False,True,True
149,1,"{'mean': -0.29999999999999999, 'sd': 0.37}",-0.9000000000000001,1,0.5,1,"(1, 3)",149,0,False,True,True,False,True
150,1,"{'mean': -0.29999999999999999, 'sd': 0.37}",-0.9000000000000001,1,0.5,1,"(1, 2)",150,0,True,False,True,False,True
151,1,"{'mean': -0.29999999999999999, 'sd': 0.37}",-0.5,1,0.5,1,"(1, 3)",151,0,True,False,True,False,True
152,1,"{'mean': -0.29999999999999999, 'sd': 0.37}",-0.30000000000000004,1,0.5,1,"(1, 2)",152,0,True,False,True,False,True
153,1,"{'mean': -0.29999999999999999, 'sd': 0.37}",-0.7000000000000001,1,0.5,1,"(1, 2)",153,0,True,False,True,False,True
154,1,"{'mean': -0.29999999999999999, 'sd': 0.37}",0.10000000000000009,0,0.5,1,"(0, 3)",154,0,False,False,True,False,True
155,1,"{'mean': -0.29999999999999999, 'sd': 0.37}",-0.7000000000000001,0,0.5,1,"(0, 2)",155,0,True,False,True,False,True
156,1,"{'mean': -0.29999999999999999, 'sd': 0.37}",-0.10000000000000009,1,0.5,1,"(1, 3)",156,0,False,False,True,False,True
157,1,"{'mean': -0.29999999999999999, 'sd': 0.37}",-0.30000000000000004,0,0.5,1,"(0, 2)",157,0,False,False,True,False,True
158,1,"{'mean': -0.29999999999999999, 'sd': 0.37}",-0.30000000000000004,0,0.5,1,"(0, 2)",158,0,True,False,True,False,True
159,1,"{'mean': -0.29999999999999999, 'sd': 0.37}",-0.10000000000000009,0,0.5,1,"(0, 3)",159,0,True,False,True,False,True
160,1,"{'mean': -0.29999999999999999, 'sd': 0.37}",-0.10000000000000009,0,0.5,1,"(0, 2)",160,0,True,False,True,False,True
161,1,"{'mean': -0.29999999999999999, 'sd': 0.37}",-0.7000000000000001,0,0.5,1,"(0, 2)",161,0,True,False,True,False,True
162,1,"{'mean': -0.29999999999999999, 'sd': 0.37}",0.30000000000000004,1,0.5,1,"(1, 2)",162,0,False,False,True,False,True
163,1,"{'mean': 0.29999999999999999, 'sd': 0.37}",0.5,2,0.5,1,"(1, 2)",163,1,False,True,False,True,True
164,1,"{'mean': 0.29999999999999999, 'sd': 0.37}",0.30000000000000004,3,0.5,1,"(1, 3)",164,1,False,False,False,True,True
165,1,"{'mean': 0.29999999999999999, 'sd': 0.37}",0.10000000000000009,3,0.5,1,"(0, 3)",165,1,True,False,False,True,True
166,1,"{'mean': 0.29999999999999999, 'sd': 0.37}",0.7,2,0.5,1,"(1, 2)",166,1,False,False,False,True,True
167,1,"{'mean': 0.29999999999999999, 'sd': 0.37}",0.5,3,0.5,1,"(1, 3)",167,1,False,False,False,True,True
168,1,"{'mean': 0.29999999999999999, 'sd': 0.37}",0.30000000000000004,2,0.5,1,"(0, 2)",168,1,False,False,False,True,True
169,1,"{'mean': 0.29999999999999999, 'sd': 0.37}",0.30000000000000004,2,0.5,1,"(0, 2)",169,1,True,False,False,True,True
170,1,"{'mean': 0.29999999999999999, 'sd': 0.37}",-0.10000000000000009,3,0.5,1,"(1, 3)",170,1,False,False,False,True,True
171,1,"{'mean': -0.29999999999999999, 'sd': 0.37}",-0.30000000000000004,1,0.5,1,"(1, 3)",171,0,False,True,True,False,True
172,1,"{'mean': -0.29999999999999999, 'sd': 0.37}",-0.10000000000000009,1,0.5,1,"(1, 3)",172,0,True,False,True,False,True
173,1,"{'mean': -0.29999999999999999, 'sd': 0.37}",-0.7000000000000001,0,0.5,1,"(0, 3)",173,0,False,False,True,False,True
174,1,"{'mean': -0.29999999999999999, 'sd': 0.37}",-0.30000000000000004,1,0.5,1,"(1, 2)",174,0,False,False,True,False,True
175,1,"{'mean': -0.29999999999999999, 'sd': 0.37}",-0.5,0,0.5,1,"(0, 3)",175,0,False,False,True,False,True
176,1,"{'mean': -0.29999999999999999, 'sd': 0.37}",0.10000000000000009,0,0.5,1,"(0, 2)",176,0,True,False,True,False,True
177,1,"{'mean': -0.29999999999999999, 'sd': 0.37}",-0.7000000000000001,1,0.5,1,"(1, 3)",177,0,False,False,True,False,True
178,1,"{'mean': -0.29999999999999999, 'sd': 0.37}",-0.10000000000000009,0,0.5,1,"(0, 3)",178,0,False,False,True,False,True
179,1,"{'mean': -0.29999999999999999, 'sd': 0.37}",-0.5,0,0.5,1,"(0, 2)",179,0,True,False,True,False,True
180,1,"{'mean': -0.29999999999999999, 'sd': 0.37}",-1.0,0,0.5,1,"(0, 2)",180,0,True,False,True,False,True
181,0,"{'mean': 0.29999999999999999, 'sd': 0.37}",0.30000000000000004,0,0.5,1,"(0, 2)",181,1,True,True,True,False,False
182,1,"{'mean': 0.29999999999999999, 'sd': 0.37}",0.30000000000000004,2,0.5,1,"(0, 2)",182,1,False,False,False,True,True
183,1,"{'mean': 0.29999999999999999, 'sd': 0.37}",-0.10000000000000009,2,0.5,1,"(1, 2)",183,1,True,False,False,True,True
184,0,"{'mean': 0.29999999999999999, 'sd': 0.37}",-0.30000000000000004,0,0.5,1,"(0, 3)",184,1,False,False,True,False,False
