{"FBDuration": 0.5, "FBonset": 0, "ITI": 0.4066752358401583, "displayFB": true, "onset": 2, "punishment_amount": 0, "responseWindow": 1.5, "reward_amount": 1, "stim": {"motionDirection": "in", "oriBase": -60, "oriDirection": -1, "oriStrength": 0.775, "speedDirection": 1, "speedStrength": 0.775, "speed_start": 0.12, "speed_end": 0.12373811806451243, "ori_start": -60, "ori_end": -90, "motion_direction": "in"}, "stimResponseInterval": 0.510115203376986, "stimulusDuration": 1.5, "trial_count": 1, "ts": "motion", "trial_type": "threshold_estimation", "exp_stage": "adaptive_procedure", "decision_var": 0.0037381180645124357, "response": "down", "rt": 0.4950104859963176, "FB": 0, "quest_estimate": 0.003923196575565523, "trial_time": 3.0355745880005998}
{"FBDuration": 0.5, "FBonset": 0, "ITI": 0.5208493928983888, "displayFB": true, "onset": 6.416790439217144, "punishment_amount": 0, "responseWindow": 1.5, "reward_amount": 1, "stim": {"motionDirection": "in", "oriBase": -60, "oriDirection": 1, "oriStrength": 0.775, "speedDirection": 1, "speedStrength": 0.775, "speed_start": 0.12, "speed_end": 0.12756122109691137, "ori_start": -60, "ori_end": -30, "motion_direction": "in"}, "stimResponseInterval": 0.9053767591279311, "stimulusDuration": 1.5, "trial_count": 2, "ts": "motion", "trial_type": "threshold_estimation", "exp_stage": "adaptive_procedure", "decision_var": 0.007561221096911375, "response": "down", "rt": 0.7119581940060016, "FB": 0, "quest_estimate": 0.007742045606894288, "trial_time": 3.650261035996664}
{"FBDuration": 0.5, "FBonset": 0, "ITI": 0.8348932730599867, "displayFB": true, "onset": 11.343016591243464, "punishment_amount": 0, "responseWindow": 1.5, "reward_amount": 1, "stim": {"motionDirection": "in", "oriBase": 30, "oriDirection": 1, "oriStrength": 0.775, "speedDirection": -1, "speedStrength": 0.775, "speed_start": 0.12, "speed_end": 0.09761946136582605, "ori_start": 30, "ori_end": 60, "motion_direction": "in"}, "stimResponseInterval": 0.5961577977868289, "stimulusDuration": 1.5, "trial_count": 3, "ts": "motion", "trial_type": "intensity-95", "exp_stage": "adaptive_procedure", "decision_var": 0.022380538634173948, "response": "down", "rt": 0.3664329919993179, "FB": 1, "trial_time": 3.0041351309992024}
{"FBDuration": 0.5, "FBonset": 0, "ITI": 0.1010312699744369, "displayFB": true, "onset": 16.274067662090278, "punishment_amount": 0, "responseWindow": 1.5, "reward_amount": 1, "stim": {"motionDirection": "out", "oriBase": 30, "oriDirection": 1, "oriStrength": 0.775, "speedDirection": 1, "speedStrength": 0.775, "speed_start": 0.12, "speed_end": 0.1303692600752255, "ori_start": 30, "ori_end": 60, "motion_direction": "out"}, "stimResponseInterval": 0.9221147583345908, "stimulusDuration": 1.5, "trial_count": 4, "ts": "motion", "trial_type": "threshold_estimation", "exp_stage": "adaptive_procedure", "decision_var": 0.010369260075225512, "response": "up", "rt": 0.4816294289994403, "FB": 1, "quest_estimate": 0.005544846938961172, "trial_time": 3.4340166309993947}
{"FBDuration": 0.5, "FBonset": 0, "ITI": 0.25033074652309917, "displayFB": true, "onset": 20.797213690399303, "punishment_amount": 0, "responseWindow": 1.5, "reward_amount": 1, "stim": {"motionDirection": "in", "oriBase": 30, "oriDirection": -1, "oriStrength": 0.775, "speedDirection": -1, "speedStrength": 0.775, "speed_start": 0.12, "speed_end": 0.11076287403108755, "ori_start": 30, "ori_end": 0, "motion_direction": "in"}, "stimResponseInterval": 0.05715044741376396, "stimulusDuration": 1.5, "trial_count": 5, "ts": "motion", "trial_type": "threshold_estimation", "exp_stage": "adaptive_procedure", "decision_var": 0.009237125968912449, "response": "down", "rt": 0.5719008529995335, "FB": 1, "quest_estimate": 0.004473619671972934, "trial_time": 2.670456076004484}
{"FBDuration": 0.5, "FBonset": 0, "ITI": 0.8627625378048338, "displayFB": true, "onset": 24.604694884336165, "punishment_amount": 0, "responseWindow": 1.5, "reward_amount": 1, "stim": {"motionDirection": "out", "oriBase": -60, "oriDirection": 1, "oriStrength": 0.775, "speedDirection": 1, "speedStrength": 0.775, "speed_start": 0.12, "speed_end": 0.12812452818841308, "ori_start": -60, "ori_end": -30, "motion_direction": "out"}, "stimResponseInterval": 0.6758387274310924, "stimulusDuration": 1.5, "trial_count": 6, "ts": "motion", "trial_type": "threshold_estimation", "exp_stage": "adaptive_procedure", "decision_var": 0.00812452818841309, "response": "up", "rt": 0.47016625099786324, "FB": 1, "quest_estimate": 0.0034226470513047252, "trial_time": 3.181755644000077}
{"FBDuration": 0.5, "FBonset": 0, "ITI": 0.07107652349099702, "displayFB": true, "onset": 29.64329614957209, "punishment_amount": 0, "responseWindow": 1.5, "reward_amount": 1, "stim": {"motionDirection": "in", "oriBase": 30, "oriDirection": -1, "oriStrength": 0.775, "speedDirection": -1, "speedStrength": 0.775, "speed_start": 0.12, "speed_end": 0.11296915139475747, "ori_start": 30, "ori_end": 0, "motion_direction": "in"}, "stimResponseInterval": 0.8835438005582694, "stimulusDuration": 1.5, "trial_count": 7, "ts": "motion", "trial_type": "threshold_estimation", "exp_stage": "adaptive_procedure", "decision_var": 0.007030848605242536, "response": "down", "rt": 0.3064538739999989, "FB": 1, "quest_estimate": 0.0023915206250157903, "trial_time": 3.2242343750040163}
{"FBDuration": 0.5, "FBonset": 0, "ITI": 0.451820289315087, "displayFB": true, "onset": 34.09791647362136, "punishment_amount": 0, "responseWindow": 1.5, "reward_amount": 1, "stim": {"motionDirection": "in", "oriBase": 30, "oriDirection": 1, "oriStrength": 0.775, "speedDirection": 1, "speedStrength": 0.775, "speed_start": 0.12, "speed_end": 0.12275007438895304, "ori_start": 30, "ori_end": 60, "motion_direction": "in"}, "stimResponseInterval": 0.22035532272188907, "stimulusDuration": 1.5, "trial_count": 8, "ts": "motion", "trial_type": "intensity-65", "exp_stage": "adaptive_procedure", "decision_var": 0.0027500743889530355, "response": "up", "rt": 0.3514641140063759, "FB": 1, "trial_time": 2.6022415609986638}
{"FBDuration": 0.5, "FBonset": 0, "ITI": 0.3895576790755694, "displayFB": true, "onset": 38.270092085658334, "punishment_amount": 0, "responseWindow": 1.5, "reward_amount": 1, "stim": {"motionDirection": "out", "oriBase": 30, "oriDirection": 1, "oriStrength": 0.775, "speedDirection": -1, "speedStrength": 0.775, "speed_start": 0.12, "speed_end": 0.11510252193592864, "ori_start": 30, "ori_end": 60, "motion_direction": "out"}, "stimResponseInterval": 0.025965469811005004, "stimulusDuration": 1.5, "trial_count": 9, "ts": "motion", "trial_type": "threshold_estimation", "exp_stage": "adaptive_procedure", "decision_var": 0.004897478064071356, "response": "down", "rt": 1.1607666319978307, "FB": 1, "quest_estimate": 0.00038618904235688395, "trial_time": 3.2295868110013544}
{"FBDuration": 0.5, "FBonset": 0, "ITI": 0.8251534439410309, "displayFB": true, "onset": 42.18561523454491, "punishment_amount": 0, "responseWindow": 1.5, "reward_amount": 1, "stim": {"motionDirection": "in", "oriBase": 30, "oriDirection": 1, "oriStrength": 0.775, "speedDirection": -1, "speedStrength": 0.775, "speed_start": 0.12, "speed_end": 0.11614200609952915, "ori_start": 30, "ori_end": 60, "motion_direction": "in"}, "stimResponseInterval": 0.17918367433878124, "stimulusDuration": 1.5, "trial_count": 10, "ts": "motion", "trial_type": "threshold_estimation", "exp_stage": "adaptive_procedure", "decision_var": 0.003857993900470841, "response": "down", "rt": 0.4975436080057989, "FB": 1, "quest_estimate": -0.0005877352145449433, "trial_time": 2.706395312998211}
{"FBDuration": 0.5, "FBonset": 0, "ITI": 0.6945207952394621, "displayFB": true, "onset": 46.689952352824726, "punishment_amount": 0, "responseWindow": 1.5, "reward_amount": 1, "stim": {"motionDirection": "out", "oriBase": 30, "oriDirection": 1, "oriStrength": 0.775, "speedDirection": -1, "speedStrength": 0.775, "speed_start": 0.12, "speed_end": 0.11724992561104695, "ori_start": 30, "ori_end": 60, "motion_direction": "out"}, "stimResponseInterval": 0.626959487470341, "stimulusDuration": 1.5, "trial_count": 11, "ts": "motion", "trial_type": "intensity-65", "exp_stage": "adaptive_procedure", "decision_var": 0.0027500743889530355, "response": "down", "rt": 0.32976812699780567, "FB": 1, "trial_time": 3.0008034380007302}
{"FBDuration": 0.5, "FBonset": 0, "ITI": 0.38142891649221444, "displayFB": true, "onset": 51.51143263553453, "punishment_amount": 0, "responseWindow": 1.5, "reward_amount": 1, "stim": {"motionDirection": "in", "oriBase": -60, "oriDirection": -1, "oriStrength": 0.775, "speedDirection": -1, "speedStrength": 0.775, "speed_start": 0.12, "speed_end": 0.10920305045504998, "ori_start": -60, "ori_end": -90, "motion_direction": "in"}, "stimResponseInterval": 0.7506491455174324, "stimulusDuration": 1.5, "trial_count": 12, "ts": "motion", "trial_type": "intensity-85", "exp_stage": "adaptive_procedure", "decision_var": 0.010796949544950014, "response": "down", "rt": 0.29115162899688585, "FB": 1, "trial_time": 3.0834361340021132}
{"FBDuration": 0.5, "FBonset": 0, "ITI": 0.9547325373187463, "displayFB": true, "onset": 56.14351069754418, "punishment_amount": 0, "responseWindow": 1.5, "reward_amount": 1, "stim": {"motionDirection": "in", "oriBase": -60, "oriDirection": -1, "oriStrength": 0.775, "speedDirection": 1, "speedStrength": 0.775, "speed_start": 0.12, "speed_end": 0.12084825554490776, "ori_start": -60, "ori_end": -90, "motion_direction": "in"}, "stimResponseInterval": 0.20476343943856967, "stimulusDuration": 1.5, "trial_count": 13, "ts": "motion", "trial_type": "threshold_estimation", "exp_stage": "adaptive_procedure", "decision_var": 0.0008482555449077639, "response": "up", "rt": 0.5393325589975575, "FB": 1, "quest_estimate": -0.0033946311217092073, "trial_time": 2.771753141001682}
{"FBDuration": 0.5, "FBonset": 0, "ITI": 0.9957583758025477, "displayFB": true, "onset": 60.8030066743015, "punishment_amount": 0, "responseWindow": 1.5, "reward_amount": 1, "stim": {"motionDirection": "out", "oriBase": -60, "oriDirection": 1, "oriStrength": 0.775, "speedDirection": 1, "speedStrength": 0.775, "speed_start": 0.12, "speed_end": 0.12000999999999999, "ori_start": -60, "ori_end": -30, "motion_direction": "out"}, "stimResponseInterval": 0.08292833088149398, "stimulusDuration": 1.5, "trial_count": 14, "ts": "motion", "trial_type": "threshold_estimation", "exp_stage": "adaptive_procedure", "decision_var": 1e-05, "response": "down", "rt": 0.4405256859972724, "FB": 0, "quest_estimate": -0.0001893750918874476, "trial_time": 2.5611156829982065}
{"FBDuration": 0.5, "FBonset": 0, "ITI": 0.2530901259877766, "displayFB": true, "onset": 65.38169338098554, "punishment_amount": 0, "responseWindow": 1.5, "reward_amount": 1, "stim": {"motionDirection": "in", "oriBase": -60, "oriDirection": 1, "oriStrength": 0.775, "speedDirection": -1, "speedStrength": 0.775, "speed_start": 0.12, "speed_end": 0.11675007385542255, "ori_start": -60, "ori_end": -30, "motion_direction": "in"}, "stimResponseInterval": 0.34359971072534756, "stimulusDuration": 1.5, "trial_count": 15, "ts": "motion", "trial_type": "threshold_estimation", "exp_stage": "adaptive_procedure", "decision_var": 0.0032499261445774544, "response": "up", "rt": 0.4585300430044299, "FB": 0, "quest_estimate": 0.0031535704274308143, "trial_time": 2.8463737330021104}
{"FBDuration": 0.5, "FBonset": 0, "ITI": 0.33110858603982074, "displayFB": true, "onset": 69.47838321769866, "punishment_amount": 0, "responseWindow": 1.5, "reward_amount": 1, "stim": {"motionDirection": "in", "oriBase": -60, "oriDirection": -1, "oriStrength": 0.775, "speedDirection": -1, "speedStrength": 0.775, "speed_start": 0.12, "speed_end": 0.11327198476236215, "ori_start": -60, "ori_end": -90, "motion_direction": "in"}, "stimResponseInterval": 0.037381501337752754, "stimulusDuration": 1.5, "trial_count": 16, "ts": "motion", "trial_type": "threshold_estimation", "exp_stage": "adaptive_procedure", "decision_var": 0.006728015237637844, "response": "up", "rt": 0.5912054159998661, "FB": 0, "quest_estimate": 0.0066285845906750365, "trial_time": 2.6608835810038727}
{"FBDuration": 0.5, "FBonset": 0, "ITI": 0.18413553769294855, "displayFB": true, "onset": 73.34687330507623, "punishment_amount": 0, "responseWindow": 1.5, "reward_amount": 1, "stim": {"motionDirection": "out", "oriBase": 30, "oriDirection": -1, "oriStrength": 0.775, "speedDirection": 1, "speedStrength": 0.775, "speed_start": 0.12, "speed_end": 0.13030855800682123, "ori_start": 30, "ori_end": 0, "motion_direction": "out"}, "stimResponseInterval": 0.22860544531180438, "stimulusDuration": 1.5, "trial_count": 17, "ts": "motion", "trial_type": "threshold_estimation", "exp_stage": "adaptive_procedure", "decision_var": 0.010308558006821233, "response": "up", "rt": 0.5158648950018687, "FB": 1, "quest_estimate": 0.005619758227116432, "trial_time": 2.777572359998885}
{"FBDuration": 0.5, "FBonset": 0, "ITI": 0.781745694723516, "displayFB": true, "onset": 77.25961428808098, "punishment_amount": 0, "responseWindow": 1.5, "reward_amount": 1, "stim": {"motionDirection": "out", "oriBase": 30, "oriDirection": -1, "oriStrength": 0.775, "speedDirection": -1, "speedStrength": 0.775, "speed_start": 0.12, "speed_end": 0.11073299555495446, "ori_start": 30, "ori_end": 0, "motion_direction": "out"}, "stimResponseInterval": 0.225456654852477, "stimulusDuration": 1.5, "trial_count": 18, "ts": "motion", "trial_type": "threshold_estimation", "exp_stage": "adaptive_procedure", "decision_var": 0.009267004445045537, "response": "down", "rt": 0.4242978220063378, "FB": 1, "quest_estimate": 0.0046279665934050584, "trial_time": 2.695454732005601}
{"FBDuration": 0.5, "FBonset": 0, "ITI": 0.6711434674627754, "displayFB": true, "onset": 81.76681663765697, "punishment_amount": 0, "responseWindow": 1.5, "reward_amount": 1, "stim": {"motionDirection": "in", "oriBase": -60, "oriDirection": 1, "oriStrength": 0.775, "speedDirection": 1, "speedStrength": 0.775, "speed_start": 0.12, "speed_end": 0.12411829474749067, "ori_start": -60, "ori_end": -30, "motion_direction": "in"}, "stimResponseInterval": 0.9484557289974829, "stimulusDuration": 1.5, "trial_count": 19, "ts": "motion", "trial_type": "intensity-70", "exp_stage": "adaptive_procedure", "decision_var": 0.004118294747490676, "response": "up", "rt": 0.49416529099835316, "FB": 1, "trial_time": 3.4764018999994732}
{"FBDuration": 0.5, "FBonset": 0, "ITI": 0.5365841454941112, "displayFB": true, "onset": 86.88641583411723, "punishment_amount": 0, "responseWindow": 1.5, "reward_amount": 1, "stim": {"motionDirection": "out", "oriBase": -60, "oriDirection": 1, "oriStrength": 0.775, "speedDirection": -1, "speedStrength": 0.775, "speed_start": 0.12, "speed_end": 0.11276953144900054, "ori_start": -60, "ori_end": -30, "motion_direction": "out"}, "stimResponseInterval": 0.29406838134298896, "stimulusDuration": 1.5, "trial_count": 20, "ts": "motion", "trial_type": "threshold_estimation", "exp_stage": "adaptive_procedure", "decision_var": 0.007230468550999465, "response": "down", "rt": 0.437938208997366, "FB": 1, "quest_estimate": 0.0026929256604420262, "trial_time": 2.7646527660035645}
{"FBDuration": 0.5, "FBonset": 0, "ITI": 0.5702442625979682, "displayFB": true, "onset": 91.21706836095433, "punishment_amount": 0, "responseWindow": 1.5, "reward_amount": 1, "stim": {"motionDirection": "in", "oriBase": 30, "oriDirection": 1, "oriStrength": 0.775, "speedDirection": 1, "speedStrength": 0.775, "speed_start": 0.12, "speed_end": 0.12623581100639433, "ori_start": 30, "ori_end": 60, "motion_direction": "in"}, "stimResponseInterval": 0.9811744205930393, "stimulusDuration": 1.5, "trial_count": 21, "ts": "motion", "trial_type": "threshold_estimation", "exp_stage": "adaptive_procedure", "decision_var": 0.00623581100639433, "response": "up", "rt": 0.4547337339972728, "FB": 1, "quest_estimate": 0.0017502586471126666, "trial_time": 3.47385468500579}
{"FBDuration": 0.5, "FBonset": 0, "ITI": 0.9345089451142838, "displayFB": true, "onset": 96.26848704414533, "punishment_amount": 0, "responseWindow": 1.5, "reward_amount": 1, "stim": {"motionDirection": "out", "oriBase": -60, "oriDirection": 1, "oriStrength": 0.775, "speedDirection": 1, "speedStrength": 0.775, "speed_start": 0.12, "speed_end": 0.1252562854453982, "ori_start": -60, "ori_end": -30, "motion_direction": "out"}, "stimResponseInterval": 0.014903539481141315, "stimulusDuration": 1.5, "trial_count": 22, "ts": "motion", "trial_type": "threshold_estimation", "exp_stage": "adaptive_procedure", "decision_var": 0.005256285445398218, "response": "down", "rt": 0.43711320699367207, "FB": 0, "quest_estimate": 0.00504554287034354, "trial_time": 2.4954613440058893}
{"FBDuration": 0.5, "FBonset": 0, "ITI": 0.8883002467990702, "displayFB": true, "onset": 100.71789952874076, "punishment_amount": 0, "responseWindow": 1.5, "reward_amount": 1, "stim": {"motionDirection": "in", "oriBase": 30, "oriDirection": -1, "oriStrength": 0.775, "speedDirection": 1, "speedStrength": 0.775, "speed_start": 0.12, "speed_end": 0.1286554113275667, "ori_start": 30, "ori_end": 0, "motion_direction": "in"}, "stimResponseInterval": 0.0914125161663959, "stimulusDuration": 1.5, "trial_count": 23, "ts": "motion", "trial_type": "threshold_estimation", "exp_stage": "adaptive_procedure", "decision_var": 0.008655411327566705, "response": "up", "rt": 0.3937012210008106, "FB": 1, "quest_estimate": 0.004088025241960572, "trial_time": 2.5260259760034387}
{"FBDuration": 0.5, "FBonset": 0, "ITI": 0.9622519534911891, "displayFB": true, "onset": 105.19761229170622, "punishment_amount": 0, "responseWindow": 1.5, "reward_amount": 1, "stim": {"motionDirection": "out", "oriBase": 30, "oriDirection": 1, "oriStrength": 0.775, "speedDirection": 1, "speedStrength": 0.775, "speed_start": 0.12, "speed_end": 0.1276657606643083, "ori_start": 30, "ori_end": 60, "motion_direction": "out"}, "stimResponseInterval": 0.31114610965949396, "stimulusDuration": 1.5, "trial_count": 24, "ts": "motion", "trial_type": "threshold_estimation", "exp_stage": "adaptive_procedure", "decision_var": 0.00766576066430831, "response": "up", "rt": 0.3532754509942606, "FB": 1, "quest_estimate": 0.003146016369995487, "trial_time": 2.694497535994742}
{"FBDuration": 0.5, "FBonset": 0, "ITI": 0.3164453969465999, "displayFB": true, "onset": 109.9710103548569, "punishment_amount": 0, "responseWindow": 1.5, "reward_amount": 1, "stim": {"motionDirection": "in", "oriBase": -60, "oriDirection": 1, "oriStrength": 0.775, "speedDirection": 1, "speedStrength": 0.775, "speed_start": 0.12, "speed_end": 0.14238053863417394, "ori_start": -60, "ori_end": -30, "motion_direction": "in"}, "stimResponseInterval": 0.595978691724127, "stimulusDuration": 1.5, "trial_count": 25, "ts": "motion", "trial_type": "intensity-95", "exp_stage": "adaptive_procedure", "decision_var": 0.022380538634173948, "response": "up", "rt": 0.3385522149983444, "FB": 1, "trial_time": 2.9763744459996815}
{"FBDuration": 0.5, "FBonset": 0, "ITI": 0.9306123901875183, "displayFB": true, "onset": 114.38343444352763, "punishment_amount": 0, "responseWindow": 1.5, "reward_amount": 1, "stim": {"motionDirection": "in", "oriBase": 30, "oriDirection": -1, "oriStrength": 0.775, "speedDirection": 1, "speedStrength": 0.775, "speed_start": 0.12, "speed_end": 0.12574225894768737, "ori_start": 30, "ori_end": 0, "motion_direction": "in"}, "stimResponseInterval": 0.0032040809298619077, "stimulusDuration": 1.5, "trial_count": 26, "ts": "motion", "trial_type": "threshold_estimation", "exp_stage": "adaptive_procedure", "decision_var": 0.005742258947687373, "response": "down", "rt": 0.5274899349969928, "FB": 0, "quest_estimate": 0.005472355835910388, "trial_time": 2.572173294996901}
{"FBDuration": 0.5, "FBonset": 0, "ITI": 0.12717134899056415, "displayFB": true, "onset": 118.81725091464502, "punishment_amount": 0, "responseWindow": 1.5, "reward_amount": 1, "stim": {"motionDirection": "out", "oriBase": 30, "oriDirection": 1, "oriStrength": 0.775, "speedDirection": 1, "speedStrength": 0.775, "speed_start": 0.12, "speed_end": 0.12907636104497838, "ori_start": 30, "ori_end": 60, "motion_direction": "out"}, "stimResponseInterval": 0.3458693864579152, "stimulusDuration": 1.5, "trial_count": 27, "ts": "motion", "trial_type": "threshold_estimation", "exp_stage": "adaptive_procedure", "decision_var": 0.009076361044978373, "response": "up", "rt": 0.9515115910035092, "FB": 1, "quest_estimate": 0.004532615241989196, "trial_time": 3.3306049809980323}
{"FBDuration": 0.5, "FBonset": 0, "ITI": 0.3912293646228586, "displayFB": true, "onset": 122.7902916500935, "punishment_amount": 0, "responseWindow": 1.5, "reward_amount": 1, "stim": {"motionDirection": "out", "oriBase": -60, "oriDirection": -1, "oriStrength": 0.775, "speedDirection": -1, "speedStrength": 0.775, "speed_start": 0.12, "speed_end": 0.11189310401723457, "ori_start": -60, "ori_end": -90, "motion_direction": "out"}, "stimResponseInterval": 0.3330470561273443, "stimulusDuration": 1.5, "trial_count": 28, "ts": "motion", "trial_type": "threshold_estimation", "exp_stage": "adaptive_procedure", "decision_var": 0.008106895982765434, "response": "down", "rt": 0.4203531839957577, "FB": 1, "quest_estimate": 0.0036076307345155184, "trial_time": 2.7818764799958444}
{"FBDuration": 0.5, "FBonset": 0, "ITI": 0.6200152881887508, "displayFB": true, "onset": 127.0145680708437, "punishment_amount": 0, "responseWindow": 1.5, "reward_amount": 1, "stim": {"motionDirection": "out", "oriBase": 30, "oriDirection": -1, "oriStrength": 0.775, "speedDirection": -1, "speedStrength": 0.775, "speed_start": 0.12, "speed_end": 0.11284860241976022, "ori_start": 30, "ori_end": 0, "motion_direction": "out"}, "stimResponseInterval": 0.8194920629832154, "stimulusDuration": 1.5, "trial_count": 29, "ts": "motion", "trial_type": "threshold_estimation", "exp_stage": "adaptive_procedure", "decision_var": 0.007151397580239777, "response": "down", "rt": 0.40975562099629315, "FB": 1, "quest_estimate": 0.00269704228064771, "trial_time": 3.269391320995055}
{"FBDuration": 0.5, "FBonset": 0, "ITI": 0.6716938262315959, "displayFB": true, "onset": 131.95407542201565, "punishment_amount": 0, "responseWindow": 1.5, "reward_amount": 1, "stim": {"motionDirection": "out", "oriBase": -60, "oriDirection": -1, "oriStrength": 0.775, "speedDirection": -1, "speedStrength": 0.775, "speed_start": 0.12, "speed_end": 0.11379062293901243, "ori_start": -60, "ori_end": -90, "motion_direction": "out"}, "stimResponseInterval": 0.48353820388432567, "stimulusDuration": 1.5, "trial_count": 30, "ts": "motion", "trial_type": "threshold_estimation", "exp_stage": "adaptive_procedure", "decision_var": 0.006209377060987571, "response": "down", "rt": 0.33057277199986856, "FB": 1, "quest_estimate": 0.0018007007497821345, "trial_time": 2.849546081000881}
{"FBDuration": 0.5, "FBonset": 0, "ITI": 0.7270904603291122, "displayFB": true, "onset": 136.60930745213156, "punishment_amount": 0, "responseWindow": 1.5, "reward_amount": 1, "stim": {"motionDirection": "in", "oriBase": 30, "oriDirection": 1, "oriStrength": 0.775, "speedDirection": -1, "speedStrength": 0.775, "speed_start": 0.12, "speed_end": 0.11471927305740916, "ori_start": 30, "ori_end": 60, "motion_direction": "in"}, "stimResponseInterval": 0.9251940130183427, "stimulusDuration": 1.5, "trial_count": 31, "ts": "motion", "trial_type": "threshold_estimation", "exp_stage": "adaptive_procedure", "decision_var": 0.005280726942590838, "response": "up", "rt": 0.4673948310010019, "FB": 0, "quest_estimate": 0.00493620778304725, "trial_time": 3.4258984810003312}
{"FBDuration": 0.5, "FBonset": 0, "ITI": 0.33172221946254143, "displayFB": true, "onset": 141.76159192547902, "punishment_amount": 0, "responseWindow": 1.5, "reward_amount": 1, "stim": {"motionDirection": "in", "oriBase": 30, "oriDirection": 1, "oriStrength": 0.775, "speedDirection": 1, "speedStrength": 0.775, "speed_start": 0.12, "speed_end": 0.13079694954495, "ori_start": 30, "ori_end": 60, "motion_direction": "in"}, "stimResponseInterval": 0.22230496431806346, "stimulusDuration": 1.5, "trial_count": 32, "ts": "motion", "trial_type": "intensity-85", "exp_stage": "adaptive_procedure", "decision_var": 0.010796949544950014, "response": "down", "rt": 0.4345705209998414, "FB": 0, "trial_time": 2.6890968079969753}
{"FBDuration": 0.5, "FBonset": 0, "ITI": 0.18126225808689034, "displayFB": true, "onset": 145.81561910925961, "punishment_amount": 0, "responseWindow": 1.5, "reward_amount": 1, "stim": {"motionDirection": "in", "oriBase": -60, "oriDirection": 1, "oriStrength": 0.775, "speedDirection": -1, "speedStrength": 0.775, "speed_start": 0.12, "speed_end": 0.10813305576099302, "ori_start": -60, "ori_end": -30, "motion_direction": "in"}, "stimResponseInterval": 0.6483269545329458, "stimulusDuration": 1.5, "trial_count": 33, "ts": "motion", "trial_type": "threshold_estimation", "exp_stage": "adaptive_procedure", "decision_var": 0.011866944239006971, "response": "down", "rt": 0.34815841599629493, "FB": 1, "quest_estimate": 0.007297256843628502, "trial_time": 3.0274422930015135}
{"FBDuration": 0.5, "FBonset": 0, "ITI": 0.2848887260902143, "displayFB": true, "onset": 150.14520832187947, "punishment_amount": 0, "responseWindow": 1.5, "reward_amount": 1, "stim": {"motionDirection": "in", "oriBase": -60, "oriDirection": -1, "oriStrength": 0.775, "speedDirection": 1, "speedStrength": 0.775, "speed_start": 0.12, "speed_end": 0.13090859375588443, "ori_start": -60, "ori_end": -90, "motion_direction": "in"}, "stimResponseInterval": 0.9356662860008278, "stimulusDuration": 1.5, "trial_count": 34, "ts": "motion", "trial_type": "threshold_estimation", "exp_stage": "adaptive_procedure", "decision_var": 0.010908593755884419, "response": "up", "rt": 0.3738949729959131, "FB": 1, "quest_estimate": 0.006376848291417075, "trial_time": 3.3457654020021437}
{"FBDuration": 0.5, "FBonset": 0, "ITI": 0.8844558843222607, "displayFB": true, "onset": 154.8657633339705, "punishment_amount": 0, "responseWindow": 1.5, "reward_amount": 1, "stim": {"motionDirection": "in", "oriBase": -60, "oriDirection": -1, "oriStrength": 0.775, "speedDirection": -1, "speedStrength": 0.775, "speed_start": 0.12, "speed_end": 0.11588170525250932, "ori_start": -60, "ori_end": -90, "motion_direction": "in"}, "stimResponseInterval": 0.08054251122779721, "stimulusDuration": 1.5, "trial_count": 35, "ts": "motion", "trial_type": "intensity-70", "exp_stage": "adaptive_procedure", "decision_var": 0.004118294747490676, "response": "down", "rt": 0.42334499900607625, "FB": 1, "trial_time": 2.5376851440014434}
{"FBDuration": 0.5, "FBonset": 0, "ITI": 0.09414337719304988, "displayFB": true, "onset": 159.33076172952056, "punishment_amount": 0, "responseWindow": 1.5, "reward_amount": 1, "stim": {"motionDirection": "out", "oriBase": 30, "oriDirection": 1, "oriStrength": 0.775, "speedDirection": 1, "speedStrength": 0.775, "speed_start": 0.12, "speed_end": 0.129029600584955, "ori_start": 30, "ori_end": 60, "motion_direction": "out"}, "stimResponseInterval": 0.08151822212956761, "stimulusDuration": 1.5, "trial_count": 36, "ts": "motion", "trial_type": "threshold_estimation", "exp_stage": "adaptive_procedure", "decision_var": 0.009029600584955007, "response": "up", "rt": 0.4893559970005299, "FB": 1, "quest_estimate": 0.004574580384038851, "trial_time": 2.608653292998497}
{"FBDuration": 0.5, "FBonset": 0, "ITI": 0.540397673275137, "displayFB": true, "onset": 163.00642332884317, "punishment_amount": 0, "responseWindow": 1.5, "reward_amount": 1, "stim": {"motionDirection": "in", "oriBase": 30, "oriDirection": -1, "oriStrength": 0.775, "speedDirection": 1, "speedStrength": 0.775, "speed_start": 0.12, "speed_end": 0.1281095782428108, "ori_start": 30, "ori_end": 0, "motion_direction": "in"}, "stimResponseInterval": 0.37312749909278997, "stimulusDuration": 1.5, "trial_count": 37, "ts": "motion", "trial_type": "threshold_estimation", "exp_stage": "adaptive_procedure", "decision_var": 0.008109578242810805, "response": "up", "rt": 0.30529427000146825, "FB": 1, "quest_estimate": 0.003693749282102317, "trial_time": 2.709901392001484}
{"FBDuration": 0.5, "FBonset": 0, "ITI": 0.21072480588252618, "displayFB": true, "onset": 167.4199485012111, "punishment_amount": 0, "responseWindow": 1.5, "reward_amount": 1, "stim": {"motionDirection": "in", "oriBase": -60, "oriDirection": 1, "oriStrength": 0.775, "speedDirection": -1, "speedStrength": 0.775, "speed_start": 0.12, "speed_end": 0.11279802748660765, "ori_start": -60, "ori_end": -30, "motion_direction": "in"}, "stimResponseInterval": 0.6366821859315581, "stimulusDuration": 1.5, "trial_count": 38, "ts": "motion", "trial_type": "threshold_estimation", "exp_stage": "adaptive_procedure", "decision_var": 0.0072019725133923435, "response": "up", "rt": 0.31017332000192255, "FB": 0, "quest_estimate": 0.006778077031230935, "trial_time": 2.982701291999547}
{"FBDuration": 0.5, "FBonset": 0, "ITI": 0.15681563158891942, "displayFB": true, "onset": 171.7673554930252, "punishment_amount": 0, "responseWindow": 1.5, "reward_amount": 1, "stim": {"motionDirection": "in", "oriBase": -60, "oriDirection": 1, "oriStrength": 0.775, "speedDirection": 1, "speedStrength": 0.775, "speed_start": 0.12, "speed_end": 0.13035212015803382, "ori_start": -60, "ori_end": -30, "motion_direction": "in"}, "stimResponseInterval": 0.17622644577664104, "stimulusDuration": 1.5, "trial_count": 39, "ts": "motion", "trial_type": "threshold_estimation", "exp_stage": "adaptive_procedure", "decision_var": 0.010352120158033815, "response": "up", "rt": 0.4597189480045927, "FB": 1, "quest_estimate": 0.005887063890332167, "trial_time": 2.6760090660027345}
{"FBDuration": 0.5, "FBonset": 0, "ITI": 0.49754485687892713, "displayFB": true, "onset": 175.60039757039075, "punishment_amount": 0, "responseWindow": 1.5, "reward_amount": 1, "stim": {"motionDirection": "out", "oriBase": 30, "oriDirection": 1, "oriStrength": 0.775, "speedDirection": -1, "speedStrength": 0.775, "speed_start": 0.12, "speed_end": 0.11588170525250932, "ori_start": 30, "ori_end": 60, "motion_direction": "out"}, "stimResponseInterval": 0.7417622008824898, "stimulusDuration": 1.5, "trial_count": 40, "ts": "motion", "trial_type": "intensity-70", "exp_stage": "adaptive_procedure", "decision_var": 0.004118294747490676, "response": "down", "rt": 0.40983312299795216, "FB": 1, "trial_time": 3.1949218869995093}
{"FBDuration": 0.5, "FBonset": 0, "ITI": 0.6131135829292123, "displayFB": true, "onset": 180.33970462815216, "punishment_amount": 0, "responseWindow": 1.5, "reward_amount": 1, "stim": {"motionDirection": "in", "oriBase": 30, "oriDirection": -1, "oriStrength": 0.775, "speedDirection": 1, "speedStrength": 0.775, "speed_start": 0.12, "speed_end": 0.12853346236238972, "ori_start": 30, "ori_end": 0, "motion_direction": "in"}, "stimResponseInterval": 0.7711436881035969, "stimulusDuration": 1.5, "trial_count": 41, "ts": "motion", "trial_type": "threshold_estimation", "exp_stage": "adaptive_procedure", "decision_var": 0.008533462362389721, "response": "up", "rt": 0.34993288200348616, "FB": 1, "quest_estimate": 0.004141053181463086, "trial_time": 3.159523006004747}
{"FBDuration": 0.5, "FBonset": 0, "ITI": 0.5107955870352541, "displayFB": true, "onset": 185.22396189918499, "punishment_amount": 0, "responseWindow": 1.5, "reward_amount": 1, "stim": {"motionDirection": "in", "oriBase": -60, "oriDirection": -1, "oriStrength": 0.775, "speedDirection": -1, "speedStrength": 0.775, "speed_start": 0.12, "speed_end": 0.11235777152913592, "ori_start": -60, "ori_end": -90, "motion_direction": "in"}, "stimResponseInterval": 0.5699820235793043, "stimulusDuration": 1.5, "trial_count": 42, "ts": "motion", "trial_type": "threshold_estimation", "exp_stage": "adaptive_procedure", "decision_var": 0.007642228470864064, "response": "up", "rt": 0.48940088800009107, "FB": 0, "quest_estimate": 0.007177604127267617, "trial_time": 3.0995884600051795}
{"FBDuration": 0.5, "FBonset": 0, "ITI": 0.8247885481903356, "displayFB": true, "onset": 189.80473950979953, "punishment_amount": 0, "responseWindow": 1.5, "reward_amount": 1, "stim": {"motionDirection": "out", "oriBase": -60, "oriDirection": 1, "oriStrength": 0.775, "speedDirection": -1, "speedStrength": 0.775, "speed_start": 0.12, "speed_end": 0.10926216151604692, "ori_start": -60, "ori_end": -30, "motion_direction": "out"}, "stimResponseInterval": 0.10324131469252384, "stimulusDuration": 1.5, "trial_count": 43, "ts": "motion", "trial_type": "threshold_estimation", "exp_stage": "adaptive_procedure", "decision_var": 0.010737838483953065, "response": "down", "rt": 0.4115925520018209, "FB": 1, "quest_estimate": 0.006302154506760006, "trial_time": 2.5425271640051506}
{"FBDuration": 0.5, "FBonset": 0, "ITI": 0.48029712799850866, "displayFB": true, "onset": 194.23276937268238, "punishment_amount": 0, "responseWindow": 1.5, "reward_amount": 1, "stim": {"motionDirection": "in", "oriBase": 30, "oriDirection": 1, "oriStrength": 0.775, "speedDirection": 1, "speedStrength": 0.775, "speed_start": 0.12, "speed_end": 0.12984024005463318, "ori_start": 30, "ori_end": 60, "motion_direction": "in"}, "stimResponseInterval": 0.7129227798142674, "stimulusDuration": 1.5, "trial_count": 44, "ts": "motion", "trial_type": "threshold_estimation", "exp_stage": "adaptive_procedure", "decision_var": 0.0098402400546332, "response": "up", "rt": 0.44612705699546495, "FB": 1, "quest_estimate": 0.005438650988015277, "trial_time": 3.194835497000895}
{"FBDuration": 0.5, "FBonset": 0, "ITI": 0.9637835215979842, "displayFB": true, "onset": 198.92598928049517, "punishment_amount": 0, "responseWindow": 1.5, "reward_amount": 1, "stim": {"motionDirection": "out", "oriBase": 30, "oriDirection": -1, "oriStrength": 0.775, "speedDirection": -1, "speedStrength": 0.775, "speed_start": 0.12, "speed_end": 0.11104594997796507, "ori_start": 30, "ori_end": 0, "motion_direction": "out"}, "stimResponseInterval": 0.25209844928032776, "stimulusDuration": 1.5, "trial_count": 45, "ts": "motion", "trial_type": "threshold_estimation", "exp_stage": "adaptive_procedure", "decision_var": 0.00895405002203492, "response": "down", "rt": 0.35005692500271834, "FB": 1, "quest_estimate": 0.00458696827361272, "trial_time": 2.6302330839971546}
{"FBDuration": 0.5, "FBonset": 0, "ITI": 0.5709806690417512, "displayFB": true, "onset": 203.6418712513735, "punishment_amount": 0, "responseWindow": 1.5, "reward_amount": 1, "stim": {"motionDirection": "in", "oriBase": 30, "oriDirection": 1, "oriStrength": 0.775, "speedDirection": -1, "speedStrength": 0.775, "speed_start": 0.12, "speed_end": 0.11192071969173707, "ori_start": 30, "ori_end": 60, "motion_direction": "in"}, "stimResponseInterval": 0.5081872567227377, "stimulusDuration": 1.5, "trial_count": 46, "ts": "motion", "trial_type": "threshold_estimation", "exp_stage": "adaptive_procedure", "decision_var": 0.008079280308262923, "response": "up", "rt": 0.3179240059980657, "FB": 0, "quest_estimate": 0.00757605003694288, "trial_time": 2.857283590004954}
{"FBDuration": 0.5, "FBonset": 0, "ITI": 0.902726079057911, "displayFB": true, "onset": 208.22103917713798, "punishment_amount": 0, "responseWindow": 1.5, "reward_amount": 1, "stim": {"motionDirection": "out", "oriBase": 30, "oriDirection": -1, "oriStrength": 0.775, "speedDirection": -1, "speedStrength": 0.775, "speed_start": 0.12, "speed_end": 0.10920305045504998, "ori_start": 30, "ori_end": 0, "motion_direction": "out"}, "stimResponseInterval": 0.1431079549291282, "stimulusDuration": 1.5, "trial_count": 47, "ts": "motion", "trial_type": "intensity-85", "exp_stage": "adaptive_procedure", "decision_var": 0.010796949544950014, "response": "down", "rt": 0.4588904289994389, "FB": 1, "trial_time": 2.638673433000804}
{"FBDuration": 0.5, "FBonset": 0, "ITI": 0.26215686886249034, "displayFB": true, "onset": 212.76687321112502, "punishment_amount": 0, "responseWindow": 1.5, "reward_amount": 1, "stim": {"motionDirection": "in", "oriBase": -60, "oriDirection": -1, "oriStrength": 0.775, "speedDirection": 1, "speedStrength": 0.775, "speed_start": 0.12, "speed_end": 0.1302401125708434, "ori_start": -60, "ori_end": -90, "motion_direction": "in"}, "stimResponseInterval": 0.4982361133606249, "stimulusDuration": 1.5, "trial_count": 48, "ts": "motion", "trial_type": "threshold_estimation", "exp_stage": "adaptive_procedure", "decision_var": 0.010240112570843382, "response": "up", "rt": 0.3266507990047103, "FB": 1, "quest_estimate": 0.005867027749178411, "trial_time": 2.8681583139987197}
{"FBDuration": 0.5, "FBonset": 0, "ITI": 0.08342170985056718, "displayFB": true, "onset": 217.02726619334814, "punishment_amount": 0, "responseWindow": 1.5, "reward_amount": 1, "stim": {"motionDirection": "out", "oriBase": -60, "oriDirection": -1, "oriStrength": 0.775, "speedDirection": -1, "speedStrength": 0.775, "speed_start": 0.12, "speed_end": 0.11062971151753237, "ori_start": -60, "ori_end": -90, "motion_direction": "out"}, "stimResponseInterval": 0.35456633693194195, "stimulusDuration": 1.5, "trial_count": 49, "ts": "motion", "trial_type": "threshold_estimation", "exp_stage": "adaptive_procedure", "decision_var": 0.009370288482467633, "response": "up", "rt": 0.37930568000592757, "FB": 0, "quest_estimate": 0.008842158833540642, "trial_time": 2.768303675002244}
{"FBDuration": 0.5, "FBonset": 0, "ITI": 0.5095007526476389, "displayFB": true, "onset": 220.96525424013066, "punishment_amount": 0, "responseWindow": 1.5, "reward_amount": 1, "stim": {"motionDirection": "out", "oriBase": -60, "oriDirection": 1, "oriStrength": 0.775, "speedDirection": -1, "speedStrength": 0.775, "speed_start": 0.12, "speed_end": 0.10760986740592332, "ori_start": -60, "ori_end": -30, "motion_direction": "out"}, "stimResponseInterval": 0.7103170280826046, "stimulusDuration": 1.5, "trial_count": 50, "ts": "motion", "trial_type": "threshold_estimation", "exp_stage": "adaptive_procedure", "decision_var": 0.012390132594076668, "response": "down", "rt": 0.5040632320014993, "FB": 1, "quest_estimate": 0.007985746997541933, "trial_time": 3.2465888329970767}
{"FBDuration": 0.5, "FBonset": 0, "ITI": 0.2156397560649499, "displayFB": true, "onset": 225.6850720208609, "punishment_amount": 0, "responseWindow": 1.5, "reward_amount": 1, "stim": {"motionDirection": "in", "oriBase": 30, "oriDirection": -1, "oriStrength": 0.775, "speedDirection": -1, "speedStrength": 0.775, "speed_start": 0.12, "speed_end": 0.09761946136582605, "ori_start": 30, "ori_end": 0, "motion_direction": "in"}, "stimResponseInterval": 0.30860580726406783, "stimulusDuration": 1.5, "trial_count": 51, "ts": "motion", "trial_type": "intensity-95", "exp_stage": "adaptive_procedure", "decision_var": 0.022380538634173948, "response": "down", "rt": 0.4910026340003242, "FB": 1, "trial_time": 2.8300912710037665}
{"FBDuration": 0.5, "FBonset": 0, "ITI": 0.9587081494343912, "displayFB": true, "onset": 229.70931758418993, "punishment_amount": 0, "responseWindow": 1.5, "reward_amount": 1, "stim": {"motionDirection": "in", "oriBase": -60, "oriDirection": 1, "oriStrength": 0.775, "speedDirection": -1, "speedStrength": 0.775, "speed_start": 0.12, "speed_end": 0.109343307118138, "ori_start": -60, "ori_end": -30, "motion_direction": "in"}, "stimResponseInterval": 0.3616692402734094, "stimulusDuration": 1.5, "trial_count": 52, "ts": "motion", "trial_type": "threshold_estimation", "exp_stage": "adaptive_procedure", "decision_var": 0.010656692881861995, "response": "down", "rt": 0.36967084499337943, "FB": 1, "quest_estimate": 0.00631309846357854, "trial_time": 2.7733654429976013}
{"FBDuration": 0.5, "FBonset": 0, "ITI": 0.08521531518941683, "displayFB": true, "onset": 234.52969497389773, "punishment_amount": 0, "responseWindow": 1.5, "reward_amount": 1, "stim": {"motionDirection": "out", "oriBase": 30, "oriDirection": 1, "oriStrength": 0.775, "speedDirection": -1, "speedStrength": 0.775, "speed_start": 0.12, "speed_end": 0.09761946136582605, "ori_start": 30, "ori_end": 60, "motion_direction": "out"}, "stimResponseInterval": 0.6446661858321097, "stimulusDuration": 1.5, "trial_count": 53, "ts": "motion", "trial_type": "intensity-95", "exp_stage": "adaptive_procedure", "decision_var": 0.022380538634173948, "response": "down", "rt": 0.36367274999793153, "FB": 1, "trial_time": 3.0488022930003353}
{"FBDuration": 0.5, "FBonset": 0, "ITI": 0.10589049334703826, "displayFB": true, "onset": 238.75957647491927, "punishment_amount": 0, "responseWindow": 1.5, "reward_amount": 1, "stim": {"motionDirection": "out", "oriBase": -60, "oriDirection": -1, "oriStrength": 0.775, "speedDirection": 1, "speedStrength": 0.775, "speed_start": 0.12, "speed_end": 0.12275007438895304, "ori_start": -60, "ori_end": -90, "motion_direction": "out"}, "stimResponseInterval": 0.4866990768458308, "stimulusDuration": 1.5, "trial_count": 54, "ts": "motion", "trial_type": "intensity-65", "exp_stage": "adaptive_procedure", "decision_var": 0.0027500743889530355, "response": "up", "rt": 0.38354457099922, "FB": 1, "trial_time": 2.8992024940016563}
{"FBDuration": 0.5, "FBonset": 0, "ITI": 0.29462329063860604, "displayFB": true, "onset": 242.85216604511214, "punishment_amount": 0, "responseWindow": 1.5, "reward_amount": 1, "stim": {"motionDirection": "in", "oriBase": 30, "oriDirection": -1, "oriStrength": 0.775, "speedDirection": -1, "speedStrength": 0.775, "speed_start": 0.12, "speed_end": 0.11186697102626314, "ori_start": 30, "ori_end": 0, "motion_direction": "in"}, "stimResponseInterval": 0.8319992265277942, "stimulusDuration": 1.5, "trial_count": 55, "ts": "motion", "trial_type": "threshold_estimation", "exp_stage": "adaptive_procedure", "decision_var": 0.008133028973736849, "response": "down", "rt": 0.40077912699780427, "FB": 1, "quest_estimate": 0.0038816039896572424, "trial_time": 3.271859057000256}
{"FBDuration": 0.5, "FBonset": 0, "ITI": 0.09679705801687122, "displayFB": true, "onset": 247.47878856227854, "punishment_amount": 0, "responseWindow": 1.5, "reward_amount": 1, "stim": {"motionDirection": "out", "oriBase": -60, "oriDirection": -1, "oriStrength": 0.775, "speedDirection": 1, "speedStrength": 0.775, "speed_start": 0.12, "speed_end": 0.12730973453582237, "ori_start": -60, "ori_end": -90, "motion_direction": "out"}, "stimResponseInterval": 0.5432531581170752, "stimulusDuration": 1.5, "trial_count": 56, "ts": "motion", "trial_type": "threshold_estimation", "exp_stage": "adaptive_procedure", "decision_var": 0.007309734535822378, "response": "up", "rt": 0.39828465299797244, "FB": 1, "quest_estimate": 0.003089488726837869, "trial_time": 2.9719534320029197}
{"FBDuration": 0.5, "FBonset": 0, "ITI": 0.6617143310511435, "displayFB": true, "onset": 251.61883877841248, "punishment_amount": 0, "responseWindow": 1.5, "reward_amount": 1, "stim": {"motionDirection": "out", "oriBase": -60, "oriDirection": -1, "oriStrength": 0.775, "speedDirection": 1, "speedStrength": 0.775, "speed_start": 0.12, "speed_end": 0.13079694954495, "ori_start": -60, "ori_end": -90, "motion_direction": "out"}, "stimResponseInterval": 0.14656214430665138, "stimulusDuration": 1.5, "trial_count": 57, "ts": "motion", "trial_type": "intensity-85", "exp_stage": "adaptive_procedure", "decision_var": 0.010796949544950014, "response": "up", "rt": 0.4042008970063762, "FB": 1, "trial_time": 2.5925123340057326}
{"FBDuration": 0.5, "FBonset": 0, "ITI": 0.8683969117413131, "displayFB": true, "onset": 255.92711525377027, "punishment_amount": 0, "responseWindow": 1.5, "reward_amount": 1, "stim": {"motionDirection": "out", "oriBase": -60, "oriDirection": 1, "oriStrength": 0.775, "speedDirection": -1, "speedStrength": 0.775, "speed_start": 0.12, "speed_end": 0.11588170525250932, "ori_start": -60, "ori_end": -30, "motion_direction": "out"}, "stimResponseInterval": 0.38451358610015407, "stimulusDuration": 1.5, "trial_count": 58, "ts": "motion", "trial_type": "intensity-70", "exp_stage": "adaptive_procedure", "decision_var": 0.004118294747490676, "response": "down", "rt": 0.47180636799748754, "FB": 1, "trial_time": 2.892186009994475}
{"FBDuration": 0.5, "FBonset": 0, "ITI": 0.8066430173338448, "displayFB": true, "onset": 260.6800257516117, "punishment_amount": 0, "responseWindow": 1.5, "reward_amount": 1, "stim": {"motionDirection": "out", "oriBase": -60, "oriDirection": -1, "oriStrength": 0.775, "speedDirection": 1, "speedStrength": 0.775, "speed_start": 0.12, "speed_end": 0.12489867104500918, "ori_start": -60, "ori_end": -90, "motion_direction": "out"}, "stimResponseInterval": 0.179663568327891, "stimulusDuration": 1.5, "trial_count": 59, "ts": "motion", "trial_type": "threshold_estimation", "exp_stage": "adaptive_procedure", "decision_var": 0.004898671045009177, "response": "up", "rt": 0.46058086099947104, "FB": 1, "quest_estimate": 0.0007742376084006811, "trial_time": 2.675723273001495}
{"FBDuration": 0.5, "FBonset": 0, "ITI": 0.9487953318288664, "displayFB": true, "onset": 265.16633233727345, "punishment_amount": 0, "responseWindow": 1.5, "reward_amount": 1, "stim": {"motionDirection": "out", "oriBase": -60, "oriDirection": -1, "oriStrength": 0.775, "speedDirection": -1, "speedStrength": 0.775, "speed_start": 0.12, "speed_end": 0.11588690020078546, "ori_start": -60, "ori_end": -90, "motion_direction": "out"}, "stimResponseInterval": 0.9063992318747043, "stimulusDuration": 1.5, "trial_count": 60, "ts": "motion", "trial_type": "threshold_estimation", "exp_stage": "adaptive_procedure", "decision_var": 0.004113099799214537, "response": "down", "rt": 0.3436975970034837, "FB": 1, "quest_estimate": 2.1434485857181607e-05, "trial_time": 3.2849141379992943}
{"FBDuration": 0.5, "FBonset": 0, "ITI": 0.5686569590859603, "displayFB": true, "onset": 270.521526900977, "punishment_amount": 0, "responseWindow": 1.5, "reward_amount": 1, "stim": {"motionDirection": "out", "oriBase": 30, "oriDirection": -1, "oriStrength": 0.775, "speedDirection": 1, "speedStrength": 0.775, "speed_start": 0.12, "speed_end": 0.12333663037642811, "ori_start": 30, "ori_end": 0, "motion_direction": "out"}, "stimResponseInterval": 0.9700627902422307, "stimulusDuration": 1.5, "trial_count": 61, "ts": "motion", "trial_type": "threshold_estimation", "exp_stage": "adaptive_procedure", "decision_var": 0.003336630376428125, "response": "down", "rt": 0.36714079300145386, "FB": 0, "quest_estimate": 0.0026589453759212137, "trial_time": 3.3692969559997437}
{"FBDuration": 0.5, "FBonset": 0, "ITI": 0.3721906990390441, "displayFB": true, "onset": 275.5602466503052, "punishment_amount": 0, "responseWindow": 1.5, "reward_amount": 1, "stim": {"motionDirection": "out", "oriBase": 30, "oriDirection": -1, "oriStrength": 0.775, "speedDirection": 1, "speedStrength": 0.775, "speed_start": 0.12, "speed_end": 0.12603325080001768, "ori_start": 30, "ori_end": 0, "motion_direction": "out"}, "stimResponseInterval": 0.7044440887029391, "stimulusDuration": 1.5, "trial_count": 62, "ts": "motion", "trial_type": "threshold_estimation", "exp_stage": "adaptive_procedure", "decision_var": 0.006033250800017674, "response": "up", "rt": 0.38950976999331033, "FB": 1, "quest_estimate": 0.0018983384801927114, "trial_time": 3.1229740300041158}
{"FBDuration": 0.5, "FBonset": 0, "ITI": 0.3048450839281771, "displayFB": true, "onset": 280.13688143804717, "punishment_amount": 0, "responseWindow": 1.5, "reward_amount": 1, "stim": {"motionDirection": "out", "oriBase": 30, "oriDirection": -1, "oriStrength": 0.775, "speedDirection": 1, "speedStrength": 0.775, "speed_start": 0.12, "speed_end": 0.12275007438895304, "ori_start": 30, "ori_end": 0, "motion_direction": "out"}, "stimResponseInterval": 0.29351109399015096, "stimulusDuration": 1.5, "trial_count": 63, "ts": "motion", "trial_type": "intensity-65", "exp_stage": "adaptive_procedure", "decision_var": 0.0027500743889530355, "response": "up", "rt": 0.4563385650035343, "FB": 1, "trial_time": 2.7869774179998785}
{"FBDuration": 0.5, "FBonset": 0, "ITI": 0.9840013094519746, "displayFB": true, "onset": 284.2352376159655, "punishment_amount": 0, "responseWindow": 1.5, "reward_amount": 1, "stim": {"motionDirection": "out", "oriBase": -60, "oriDirection": 1, "oriStrength": 0.775, "speedDirection": 1, "speedStrength": 0.775, "speed_start": 0.12, "speed_end": 0.12447796540439052, "ori_start": -60, "ori_end": -30, "motion_direction": "out"}, "stimResponseInterval": 0.24959856931462698, "stimulusDuration": 1.5, "trial_count": 64, "ts": "motion", "trial_type": "threshold_estimation", "exp_stage": "adaptive_procedure", "decision_var": 0.0044779654043905145, "response": "down", "rt": 0.48606537399609806, "FB": 0, "quest_estimate": 0.0037788246006504322, "trial_time": 2.7763292950039613}
