{"FBDuration": 0.5, "FBonset": 0, "ITI": 0.10048361018492413, "displayFB": true, "onset": 2, "punishment_amount": 0, "responseWindow": 1.5, "reward_amount": 1, "stim": {"motionDirection": "in", "oriBase": 30, "oriDirection": -1, "oriStrength": 0.775, "speedDirection": 1, "speedStrength": 0.775, "speed_start": 0.12, "speed_end": 0.1244496693313941, "ori_start": 30, "ori_end": 21.44987173814096, "motion_direction": "in"}, "stimResponseInterval": 0.1829799703256697, "stimulusDuration": 1.5, "trial_count": 1, "ts": "motion", "trial_type": "intensity-60", "exp_stage": "adaptive_procedure", "decision_var": 0.004449669331394105, "response": "up", "rt": 0.9112532169965561, "FB": 1, "quest_estimate": 0.0069830007069779515, "trial_time": 3.13004054799967}
{"FBDuration": 0.5, "FBonset": 0, "ITI": 0.7897297475919907, "displayFB": true, "onset": 5.783463580510594, "punishment_amount": 0, "responseWindow": 1.5, "reward_amount": 1, "stim": {"motionDirection": "out", "oriBase": 30, "oriDirection": -1, "oriStrength": 0.775, "speedDirection": 1, "speedStrength": 0.775, "speed_start": 0.12, "speed_end": 0.13833566905649936, "ori_start": 30, "ori_end": 21.44987173814096, "motion_direction": "out"}, "stimResponseInterval": 0.9152061544371688, "stimulusDuration": 1.5, "trial_count": 2, "ts": "motion", "trial_type": "intensity-95", "exp_stage": "adaptive_procedure", "decision_var": 0.01833566905649936, "response": "up", "rt": 0.40606487600598484, "FB": 1, "quest_estimate": 0.0065898271135314546, "trial_time": 3.3565428010042524}
{"FBDuration": 0.5, "FBonset": 0, "ITI": 0.6267862227550718, "displayFB": true, "onset": 10.988399482539752, "punishment_amount": 0, "responseWindow": 1.5, "reward_amount": 1, "stim": {"motionDirection": "out", "oriBase": -60, "oriDirection": -1, "oriStrength": 0.775, "speedDirection": -1, "speedStrength": 0.775, "speed_start": 0.12, "speed_end": 0.11555033066860589, "ori_start": -60, "ori_end": -68.55012826185904, "motion_direction": "out"}, "stimResponseInterval": 0.8145590086057253, "stimulusDuration": 1.5, "trial_count": 3, "ts": "motion", "trial_type": "intensity-60", "exp_stage": "adaptive_procedure", "decision_var": 0.004449669331394105, "response": "down", "rt": 0.2778183850023197, "FB": 1, "quest_estimate": 0.006195904618915504, "trial_time": 3.1206526049936656}
{"FBDuration": 0.5, "FBonset": 0, "ITI": 0.8823025480754836, "displayFB": true, "onset": 15.929744713900549, "punishment_amount": 0, "responseWindow": 1.5, "reward_amount": 1, "stim": {"motionDirection": "in", "oriBase": 30, "oriDirection": -1, "oriStrength": 0.775, "speedDirection": 1, "speedStrength": 0.775, "speed_start": 0.12, "speed_end": 0.13833566905649936, "ori_start": 30, "ori_end": 21.44987173814096, "motion_direction": "in"}, "stimResponseInterval": 0.4480916696051611, "stimulusDuration": 1.5, "trial_count": 4, "ts": "motion", "trial_type": "intensity-95", "exp_stage": "adaptive_procedure", "decision_var": 0.01833566905649936, "response": "up", "rt": 0.29397397600405384, "FB": 1, "quest_estimate": 0.005807301017292835, "trial_time": 2.776847852001083}
{"FBDuration": 0.5, "FBonset": 0, "ITI": 0.638189045456476, "displayFB": true, "onset": 20.760138931581196, "punishment_amount": 0, "responseWindow": 1.5, "reward_amount": 1, "stim": {"motionDirection": "in", "oriBase": 30, "oriDirection": 1, "oriStrength": 0.775, "speedDirection": 1, "speedStrength": 0.775, "speed_start": 0.12, "speed_end": 0.12735445092619194, "ori_start": 30, "ori_end": 38.550128261859044, "motion_direction": "in"}, "stimResponseInterval": 0.3353583681523489, "stimulusDuration": 1.5, "trial_count": 5, "ts": "motion", "trial_type": "intensity-70", "exp_stage": "adaptive_procedure", "decision_var": 0.0073544509261919445, "response": "up", "rt": 0.29161103900696617, "FB": 1, "quest_estimate": 0.005418070152635908, "trial_time": 2.6629946710017975}
{"FBDuration": 0.5, "FBonset": 0, "ITI": 0.3120816142556112, "displayFB": true, "onset": 25.233686345190023, "punishment_amount": 0, "responseWindow": 1.5, "reward_amount": 1, "stim": {"motionDirection": "in", "oriBase": 30, "oriDirection": 1, "oriStrength": 0.775, "speedDirection": 1, "speedStrength": 0.775, "speed_start": 0.12, "speed_end": 0.1244496693313941, "ori_start": 30, "ori_end": 38.550128261859044, "motion_direction": "in"}, "stimResponseInterval": 0.622567527620008, "stimulusDuration": 1.5, "trial_count": 6, "ts": "motion", "trial_type": "intensity-60", "exp_stage": "adaptive_procedure", "decision_var": 0.004449669331394105, "response": "up", "rt": 0.3021218219946604, "FB": 1, "quest_estimate": 0.005030586825076955, "trial_time": 2.952757927007042}
{"FBDuration": 0.5, "FBonset": 0, "ITI": 0.49177145035804126, "displayFB": true, "onset": 29.66833548706564, "punishment_amount": 0, "responseWindow": 1.5, "reward_amount": 1, "stim": {"motionDirection": "out", "oriBase": -60, "oriDirection": 1, "oriStrength": 0.775, "speedDirection": -1, "speedStrength": 0.775, "speed_start": 0.12, "speed_end": 0.10762768549525303, "ori_start": -60, "ori_end": -51.449871738140956, "motion_direction": "out"}, "stimResponseInterval": 0.48405848551034336, "stimulusDuration": 1.5, "trial_count": 7, "ts": "motion", "trial_type": "intensity-85", "exp_stage": "adaptive_procedure", "decision_var": 0.01237231450474696, "response": "down", "rt": 0.43015782699512783, "FB": 1, "quest_estimate": 0.004646687967222854, "trial_time": 2.938756314004422}
{"FBDuration": 0.5, "FBonset": 0, "ITI": 0.35308111715024304, "displayFB": true, "onset": 34.14416542293402, "punishment_amount": 0, "responseWindow": 1.5, "reward_amount": 1, "stim": {"motionDirection": "out", "oriBase": 30, "oriDirection": 1, "oriStrength": 0.775, "speedDirection": 1, "speedStrength": 0.775, "speed_start": 0.12, "speed_end": 0.1244496693313941, "ori_start": 30, "ori_end": 38.550128261859044, "motion_direction": "out"}, "stimResponseInterval": 0.4540064950160171, "stimulusDuration": 1.5, "trial_count": 8, "ts": "motion", "trial_type": "intensity-60", "exp_stage": "adaptive_procedure", "decision_var": 0.004449669331394105, "response": "up", "rt": 0.2660005390061997, "FB": 1, "quest_estimate": 0.004263378704223018, "trial_time": 2.7507398770103464}
{"FBDuration": 0.5, "FBonset": 0, "ITI": 0.32557203578403826, "displayFB": true, "onset": 38.45125303510028, "punishment_amount": 0, "responseWindow": 1.5, "reward_amount": 1, "stim": {"motionDirection": "in", "oriBase": 30, "oriDirection": 1, "oriStrength": 0.775, "speedDirection": 1, "speedStrength": 0.775, "speed_start": 0.12, "speed_end": 0.13833566905649936, "ori_start": 30, "ori_end": 38.550128261859044, "motion_direction": "in"}, "stimResponseInterval": 0.06349991553122891, "stimulusDuration": 1.5, "trial_count": 9, "ts": "motion", "trial_type": "intensity-95", "exp_stage": "adaptive_procedure", "decision_var": 0.01833566905649936, "response": "up", "rt": 0.36667610800941475, "FB": 1, "quest_estimate": 0.0038857605928707753, "trial_time": 2.468775817003916}
{"FBDuration": 0.5, "FBonset": 0, "ITI": 0.07804370863471455, "displayFB": true, "onset": 42.340324986415546, "punishment_amount": 0, "responseWindow": 1.5, "reward_amount": 1, "stim": {"motionDirection": "out", "oriBase": -60, "oriDirection": -1, "oriStrength": 0.775, "speedDirection": -1, "speedStrength": 0.775, "speed_start": 0.12, "speed_end": 0.11264554907380805, "ori_start": -60, "ori_end": -68.55012826185904, "motion_direction": "out"}, "stimResponseInterval": 0.9197627411237801, "stimulusDuration": 1.5, "trial_count": 10, "ts": "motion", "trial_type": "intensity-70", "exp_stage": "adaptive_procedure", "decision_var": 0.0073544509261919445, "response": "down", "rt": 0.3027719759993488, "FB": 1, "quest_estimate": 0.0035070512652227506, "trial_time": 3.255220602994086}
{"FBDuration": 0.5, "FBonset": 0, "ITI": 0.6012313586828486, "displayFB": true, "onset": 46.83813143617404, "punishment_amount": 0, "responseWindow": 1.5, "reward_amount": 1, "stim": {"motionDirection": "out", "oriBase": -60, "oriDirection": -1, "oriStrength": 0.775, "speedDirection": -1, "speedStrength": 0.775, "speed_start": 0.12, "speed_end": 0.11264554907380805, "ori_start": -60, "ori_end": -68.55012826185904, "motion_direction": "out"}, "stimResponseInterval": 0.04005929501848782, "stimulusDuration": 1.5, "trial_count": 11, "ts": "motion", "trial_type": "intensity-70", "exp_stage": "adaptive_procedure", "decision_var": 0.0073544509261919445, "response": "up", "rt": 0.9145275760092773, "FB": 0, "quest_estimate": 0.004848294964961648, "trial_time": 2.986849656997947}
{"FBDuration": 0.5, "FBonset": 0, "ITI": 0.21234217288114854, "displayFB": true, "onset": 50.97942208987537, "punishment_amount": 0, "responseWindow": 1.5, "reward_amount": 1, "stim": {"motionDirection": "out", "oriBase": 30, "oriDirection": -1, "oriStrength": 0.775, "speedDirection": -1, "speedStrength": 0.775, "speed_start": 0.12, "speed_end": 0.11555033066860589, "ori_start": 30, "ori_end": 21.44987173814096, "motion_direction": "out"}, "stimResponseInterval": 0.7881562009268912, "stimulusDuration": 1.5, "trial_count": 12, "ts": "motion", "trial_type": "intensity-60", "exp_stage": "adaptive_procedure", "decision_var": 0.004449669331394105, "response": "down", "rt": 0.27708520799933467, "FB": 1, "quest_estimate": 0.004468252540597649, "trial_time": 3.1043578519893344}
{"FBDuration": 0.5, "FBonset": 0, "ITI": 0.14655009456567658, "displayFB": true, "onset": 55.47992046368341, "punishment_amount": 0, "responseWindow": 1.5, "reward_amount": 1, "stim": {"motionDirection": "out", "oriBase": 30, "oriDirection": 1, "oriStrength": 0.775, "speedDirection": -1, "speedStrength": 0.775, "speed_start": 0.12, "speed_end": 0.10166433094350064, "ori_start": 30, "ori_end": 38.550128261859044, "motion_direction": "out"}, "stimResponseInterval": 0.01284459968094287, "stimulusDuration": 1.5, "trial_count": 13, "ts": "motion", "trial_type": "intensity-95", "exp_stage": "adaptive_procedure", "decision_var": 0.01833566905649936, "response": "down", "rt": 0.4566787009971449, "FB": 1, "quest_estimate": 0.004093776744495015, "trial_time": 2.5086472620023414}
{"FBDuration": 0.5, "FBonset": 0, "ITI": 0.6080865233706219, "displayFB": true, "onset": 59.139315157930035, "punishment_amount": 0, "responseWindow": 1.5, "reward_amount": 1, "stim": {"motionDirection": "out", "oriBase": 30, "oriDirection": -1, "oriStrength": 0.775, "speedDirection": -1, "speedStrength": 0.775, "speed_start": 0.12, "speed_end": 0.10166433094350064, "ori_start": 30, "ori_end": 21.44987173814096, "motion_direction": "out"}, "stimResponseInterval": 0.21098032353651752, "stimulusDuration": 1.5, "trial_count": 14, "ts": "motion", "trial_type": "intensity-95", "exp_stage": "adaptive_procedure", "decision_var": 0.01833566905649936, "response": "down", "rt": 0.34358746198995505, "FB": 1, "quest_estimate": 0.0037214538465467975, "trial_time": 2.5812626859988086}
{"FBDuration": 0.5, "FBonset": 0, "ITI": 0.3102485148440147, "displayFB": true, "onset": 63.458382004837176, "punishment_amount": 0, "responseWindow": 1.5, "reward_amount": 1, "stim": {"motionDirection": "in", "oriBase": 30, "oriDirection": 1, "oriStrength": 0.775, "speedDirection": -1, "speedStrength": 0.775, "speed_start": 0.12, "speed_end": 0.11555033066860589, "ori_start": 30, "ori_end": 38.550128261859044, "motion_direction": "in"}, "stimResponseInterval": 0.7678967754350925, "stimulusDuration": 1.5, "trial_count": 15, "ts": "motion", "trial_type": "intensity-60", "exp_stage": "adaptive_procedure", "decision_var": 0.004449669331394105, "response": "down", "rt": 0.26527429700945504, "FB": 1, "quest_estimate": 0.003347519239110898, "trial_time": 3.0737888439907692}
{"FBDuration": 0.5, "FBonset": 0, "ITI": 0.12664453416060795, "displayFB": true, "onset": 68.03652729511629, "punishment_amount": 0, "responseWindow": 1.5, "reward_amount": 1, "stim": {"motionDirection": "out", "oriBase": 30, "oriDirection": 1, "oriStrength": 0.775, "speedDirection": -1, "speedStrength": 0.775, "speed_start": 0.12, "speed_end": 0.11264554907380805, "ori_start": 30, "ori_end": 38.550128261859044, "motion_direction": "out"}, "stimResponseInterval": 0.718583741325509, "stimulusDuration": 1.5, "trial_count": 16, "ts": "motion", "trial_type": "intensity-70", "exp_stage": "adaptive_procedure", "decision_var": 0.0073544509261919445, "response": "down", "rt": 0.2840999629988801, "FB": 1, "quest_estimate": 0.002976013154416146, "trial_time": 3.029497554001864}
{"FBDuration": 0.5, "FBonset": 0, "ITI": 0.44452316771181066, "displayFB": true, "onset": 72.38175557060241, "punishment_amount": 0, "responseWindow": 1.5, "reward_amount": 1, "stim": {"motionDirection": "out", "oriBase": 30, "oriDirection": 1, "oriStrength": 0.775, "speedDirection": 1, "speedStrength": 0.775, "speed_start": 0.12, "speed_end": 0.12735445092619194, "ori_start": 30, "ori_end": 38.550128261859044, "motion_direction": "out"}, "stimResponseInterval": 0.15575718229111812, "stimulusDuration": 1.5, "trial_count": 17, "ts": "motion", "trial_type": "intensity-70", "exp_stage": "adaptive_procedure", "decision_var": 0.0073544509261919445, "response": "up", "rt": 0.34272298400173895, "FB": 1, "quest_estimate": 0.0026064704828996435, "trial_time": 2.527904786009458}
{"FBDuration": 0.5, "FBonset": 0, "ITI": 0.44038240447629773, "displayFB": true, "onset": 76.48203592060534, "punishment_amount": 0, "responseWindow": 1.5, "reward_amount": 1, "stim": {"motionDirection": "in", "oriBase": -60, "oriDirection": -1, "oriStrength": 0.775, "speedDirection": 1, "speedStrength": 0.775, "speed_start": 0.12, "speed_end": 0.1244496693313941, "ori_start": -60, "ori_end": -68.55012826185904, "motion_direction": "in"}, "stimResponseInterval": 0.25148281226133407, "stimulusDuration": 1.5, "trial_count": 18, "ts": "motion", "trial_type": "intensity-60", "exp_stage": "adaptive_procedure", "decision_var": 0.004449669331394105, "response": "up", "rt": 0.2932144310034346, "FB": 1, "quest_estimate": 0.0022383501133144273, "trial_time": 2.5727297209959943}
{"FBDuration": 0.5, "FBonset": 0, "ITI": 0.8392037762562907, "displayFB": true, "onset": 80.67390113734297, "punishment_amount": 0, "responseWindow": 1.5, "reward_amount": 1, "stim": {"motionDirection": "in", "oriBase": -60, "oriDirection": 1, "oriStrength": 0.775, "speedDirection": -1, "speedStrength": 0.775, "speed_start": 0.12, "speed_end": 0.11264554907380805, "ori_start": -60, "ori_end": -51.449871738140956, "motion_direction": "in"}, "stimResponseInterval": 0.11813237653275432, "stimulusDuration": 1.5, "trial_count": 19, "ts": "motion", "trial_type": "intensity-70", "exp_stage": "adaptive_procedure", "decision_var": 0.0073544509261919445, "response": "down", "rt": 0.3959245879959781, "FB": 1, "quest_estimate": 0.001872665797797303, "trial_time": 2.548441952007124}
{"FBDuration": 0.5, "FBonset": 0, "ITI": 0.5149924976516786, "displayFB": true, "onset": 85.131237290132, "punishment_amount": 0, "responseWindow": 1.5, "reward_amount": 1, "stim": {"motionDirection": "in", "oriBase": -60, "oriDirection": -1, "oriStrength": 0.775, "speedDirection": 1, "speedStrength": 0.775, "speed_start": 0.12, "speed_end": 0.13833566905649936, "ori_start": -60, "ori_end": -68.55012826185904, "motion_direction": "in"}, "stimResponseInterval": 0.9988863572507194, "stimulusDuration": 1.5, "trial_count": 20, "ts": "motion", "trial_type": "intensity-95", "exp_stage": "adaptive_procedure", "decision_var": 0.01833566905649936, "response": "up", "rt": 0.2671711180009879, "FB": 1, "quest_estimate": 0.0015124939477453928, "trial_time": 3.2925152460084064}
{"FBDuration": 0.5, "FBonset": 0, "ITI": 0.43110950996629305, "displayFB": true, "onset": 90.14511614503441, "punishment_amount": 0, "responseWindow": 1.5, "reward_amount": 1, "stim": {"motionDirection": "in", "oriBase": 30, "oriDirection": 1, "oriStrength": 0.775, "speedDirection": -1, "speedStrength": 0.775, "speed_start": 0.12, "speed_end": 0.11264554907380805, "ori_start": 30, "ori_end": 38.550128261859044, "motion_direction": "in"}, "stimResponseInterval": 0.6389866421103987, "stimulusDuration": 1.5, "trial_count": 21, "ts": "motion", "trial_type": "intensity-70", "exp_stage": "adaptive_procedure", "decision_var": 0.0073544509261919445, "response": "down", "rt": 0.2633484160032822, "FB": 1, "quest_estimate": 0.0011506834169773689, "trial_time": 2.9295556119905086}
{"FBDuration": 0.5, "FBonset": 0, "ITI": 0.785916490237841, "displayFB": true, "onset": 94.7152122971111, "punishment_amount": 0, "responseWindow": 1.5, "reward_amount": 1, "stim": {"motionDirection": "in", "oriBase": -60, "oriDirection": 1, "oriStrength": 0.775, "speedDirection": -1, "speedStrength": 0.775, "speed_start": 0.12, "speed_end": 0.11264554907380805, "ori_start": -60, "ori_end": -51.449871738140956, "motion_direction": "in"}, "stimResponseInterval": 0.863375875111595, "stimulusDuration": 1.5, "trial_count": 22, "ts": "motion", "trial_type": "intensity-70", "exp_stage": "adaptive_procedure", "decision_var": 0.0073544509261919445, "response": "down", "rt": 0.37827798900252674, "FB": 1, "quest_estimate": 0.0007907545238386854, "trial_time": 3.281305386000895}
{"FBDuration": 0.5, "FBonset": 0, "ITI": 0.42442953058235655, "displayFB": true, "onset": 99.86450466246053, "punishment_amount": 0, "responseWindow": 1.5, "reward_amount": 1, "stim": {"motionDirection": "out", "oriBase": -60, "oriDirection": -1, "oriStrength": 0.775, "speedDirection": 1, "speedStrength": 0.775, "speed_start": 0.12, "speed_end": 0.12735445092619194, "ori_start": -60, "ori_end": -68.55012826185904, "motion_direction": "out"}, "stimResponseInterval": 0.6277242071985132, "stimulusDuration": 1.5, "trial_count": 23, "ts": "motion", "trial_type": "intensity-70", "exp_stage": "adaptive_procedure", "decision_var": 0.0073544509261919445, "response": "up", "rt": 0.277413139003329, "FB": 1, "quest_estimate": 0.0004326919163792284, "trial_time": 2.9426615130068967}
{"FBDuration": 0.5, "FBonset": 0, "ITI": 0.27721831628336335, "displayFB": true, "onset": 104.4166584002414, "punishment_amount": 0, "responseWindow": 1.5, "reward_amount": 1, "stim": {"motionDirection": "in", "oriBase": 30, "oriDirection": -1, "oriStrength": 0.775, "speedDirection": -1, "speedStrength": 0.775, "speed_start": 0.12, "speed_end": 0.11264554907380805, "ori_start": 30, "ori_end": 21.44987173814096, "motion_direction": "in"}, "stimResponseInterval": 0.8440992617932457, "stimulusDuration": 1.5, "trial_count": 24, "ts": "motion", "trial_type": "intensity-70", "exp_stage": "adaptive_procedure", "decision_var": 0.0073544509261919445, "response": "down", "rt": 0.24281994400371332, "FB": 1, "quest_estimate": 7.64805273809413e-05, "trial_time": 3.1213905539916595}
{"FBDuration": 0.5, "FBonset": 0, "ITI": 0.47907902152387527, "displayFB": true, "onset": 109.03797597831802, "punishment_amount": 0, "responseWindow": 1.5, "reward_amount": 1, "stim": {"motionDirection": "in", "oriBase": -60, "oriDirection": 1, "oriStrength": 0.775, "speedDirection": 1, "speedStrength": 0.775, "speed_start": 0.12, "speed_end": 0.13237231450474696, "ori_start": -60, "ori_end": -51.449871738140956, "motion_direction": "in"}, "stimResponseInterval": 0.7537241326783803, "stimulusDuration": 1.5, "trial_count": 25, "ts": "motion", "trial_type": "intensity-85", "exp_stage": "adaptive_procedure", "decision_var": 0.01237231450474696, "response": "up", "rt": 0.31563018599990755, "FB": 1, "quest_estimate": -0.0002763830733061093, "trial_time": 3.097286450007232}
{"FBDuration": 0.5, "FBonset": 0, "ITI": 0.08350451338079712, "displayFB": true, "onset": 113.77077913252027, "punishment_amount": 0, "responseWindow": 1.5, "reward_amount": 1, "stim": {"motionDirection": "in", "oriBase": -60, "oriDirection": -1, "oriStrength": 0.775, "speedDirection": 1, "speedStrength": 0.775, "speed_start": 0.12, "speed_end": 0.13237231450474696, "ori_start": -60, "ori_end": -68.55012826185904, "motion_direction": "in"}, "stimResponseInterval": 0.1425776882749591, "stimulusDuration": 1.5, "trial_count": 26, "ts": "motion", "trial_type": "intensity-85", "exp_stage": "adaptive_procedure", "decision_var": 0.01237231450474696, "response": "up", "rt": 0.37951633300690446, "FB": 1, "quest_estimate": -0.0006273702607799136, "trial_time": 2.5479798690066673}
{"FBDuration": 0.5, "FBonset": 0, "ITI": 0.6734342341023023, "displayFB": true, "onset": 117.49686133417603, "punishment_amount": 0, "responseWindow": 1.5, "reward_amount": 1, "stim": {"motionDirection": "in", "oriBase": 30, "oriDirection": -1, "oriStrength": 0.775, "speedDirection": -1, "speedStrength": 0.775, "speed_start": 0.12, "speed_end": 0.10762768549525303, "ori_start": 30, "ori_end": 21.44987173814096, "motion_direction": "in"}, "stimResponseInterval": 0.07946081109226333, "stimulusDuration": 1.5, "trial_count": 27, "ts": "motion", "trial_type": "intensity-85", "exp_stage": "adaptive_procedure", "decision_var": 0.01237231450474696, "response": "down", "rt": 0.3532660409982782, "FB": 1, "quest_estimate": -0.0009764964996586412, "trial_time": 2.4646070370072266}
{"FBDuration": 0.5, "FBonset": 0, "ITI": 0.41794889430437354, "displayFB": true, "onset": 121.7497563793706, "punishment_amount": 0, "responseWindow": 1.5, "reward_amount": 1, "stim": {"motionDirection": "out", "oriBase": -60, "oriDirection": 1, "oriStrength": 0.775, "speedDirection": 1, "speedStrength": 0.775, "speed_start": 0.12, "speed_end": 0.13833566905649936, "ori_start": -60, "ori_end": -51.449871738140956, "motion_direction": "out"}, "stimResponseInterval": 0.01386386372182069, "stimulusDuration": 1.5, "trial_count": 28, "ts": "motion", "trial_type": "intensity-95", "exp_stage": "adaptive_procedure", "decision_var": 0.01833566905649936, "response": "up", "rt": 0.568520521002938, "FB": 1, "quest_estimate": -0.0013213080719227804, "trial_time": 2.61095674399985}
{"FBDuration": 0.5, "FBonset": 0, "ITI": 0.200447444937089, "displayFB": true, "onset": 125.68156913739679, "punishment_amount": 0, "responseWindow": 1.5, "reward_amount": 1, "stim": {"motionDirection": "out", "oriBase": 30, "oriDirection": -1, "oriStrength": 0.775, "speedDirection": 1, "speedStrength": 0.775, "speed_start": 0.12, "speed_end": 0.13237231450474696, "ori_start": 30, "ori_end": 21.44987173814096, "motion_direction": "out"}, "stimResponseInterval": 0.8430031978659165, "stimulusDuration": 1.5, "trial_count": 29, "ts": "motion", "trial_type": "intensity-85", "exp_stage": "adaptive_procedure", "decision_var": 0.01237231450474696, "response": "down", "rt": 0.6630647989950376, "FB": 0, "quest_estimate": 1.928823908108751e-05, "trial_time": 3.5348594110109843}
{"FBDuration": 0.5, "FBonset": 0, "ITI": 0.6504479219364059, "displayFB": true, "onset": 130.2250197801998, "punishment_amount": 0, "responseWindow": 1.5, "reward_amount": 1, "stim": {"motionDirection": "out", "oriBase": 30, "oriDirection": -1, "oriStrength": 0.775, "speedDirection": 1, "speedStrength": 0.775, "speed_start": 0.12, "speed_end": 0.13237231450474696, "ori_start": 30, "ori_end": 21.44987173814096, "motion_direction": "out"}, "stimResponseInterval": 0.6242308676459503, "stimulusDuration": 1.5, "trial_count": 30, "ts": "motion", "trial_type": "intensity-85", "exp_stage": "adaptive_procedure", "decision_var": 0.01237231450474696, "response": "up", "rt": 0.4553773280058522, "FB": 1, "quest_estimate": -0.0003290670945738372, "trial_time": 3.1131163999962155}
{"FBDuration": 0.5, "FBonset": 0, "ITI": 0.9278838470060875, "displayFB": true, "onset": 134.99969856978217, "punishment_amount": 0, "responseWindow": 1.5, "reward_amount": 1, "stim": {"motionDirection": "out", "oriBase": -60, "oriDirection": 1, "oriStrength": 0.775, "speedDirection": 1, "speedStrength": 0.775, "speed_start": 0.12, "speed_end": 0.13833566905649936, "ori_start": -60, "ori_end": -51.449871738140956, "motion_direction": "out"}, "stimResponseInterval": 0.0028501135585183857, "stimulusDuration": 1.5, "trial_count": 31, "ts": "motion", "trial_type": "intensity-95", "exp_stage": "adaptive_procedure", "decision_var": 0.01833566905649936, "response": "up", "rt": 0.41165017199818976, "FB": 1, "quest_estimate": -0.0006732060183007732, "trial_time": 2.466462894997676}
{"FBDuration": 0.5, "FBonset": 0, "ITI": 0.9925893861561788, "displayFB": true, "onset": 139.43043253034676, "punishment_amount": 0, "responseWindow": 1.5, "reward_amount": 1, "stim": {"motionDirection": "out", "oriBase": -60, "oriDirection": 1, "oriStrength": 0.775, "speedDirection": 1, "speedStrength": 0.775, "speed_start": 0.12, "speed_end": 0.12735445092619194, "ori_start": -60, "ori_end": -51.449871738140956, "motion_direction": "out"}, "stimResponseInterval": 0.7989935228400749, "stimulusDuration": 1.5, "trial_count": 32, "ts": "motion", "trial_type": "intensity-70", "exp_stage": "adaptive_procedure", "decision_var": 0.0073544509261919445, "response": "up", "rt": 0.4040216660068836, "FB": 1, "quest_estimate": -0.0010194435617551512, "trial_time": 3.2280132939922623}
{"FBDuration": 0.5, "FBonset": 0, "ITI": 0.9971257962982198, "displayFB": true, "onset": 144.722015439343, "punishment_amount": 0, "responseWindow": 1.5, "reward_amount": 1, "stim": {"motionDirection": "out", "oriBase": 30, "oriDirection": 1, "oriStrength": 0.775, "speedDirection": 1, "speedStrength": 0.775, "speed_start": 0.12, "speed_end": 0.1244496693313941, "ori_start": 30, "ori_end": 38.550128261859044, "motion_direction": "out"}, "stimResponseInterval": 0.0510440263290457, "stimulusDuration": 1.5, "trial_count": 33, "ts": "motion", "trial_type": "intensity-60", "exp_stage": "adaptive_procedure", "decision_var": 0.004449669331394105, "response": "up", "rt": 0.460312144990894, "FB": 1, "quest_estimate": -0.0013646250742279722, "trial_time": 2.54214500800299}
{"FBDuration": 0.5, "FBonset": 0, "ITI": 0.12415718589416258, "displayFB": true, "onset": 149.27018526197028, "punishment_amount": 0, "responseWindow": 1.5, "reward_amount": 1, "stim": {"motionDirection": "in", "oriBase": 30, "oriDirection": -1, "oriStrength": 0.775, "speedDirection": 1, "speedStrength": 0.775, "speed_start": 0.12, "speed_end": 0.12735445092619194, "ori_start": 30, "ori_end": 21.44987173814096, "motion_direction": "in"}, "stimResponseInterval": 0.07335935932843518, "stimulusDuration": 1.5, "trial_count": 34, "ts": "motion", "trial_type": "intensity-70", "exp_stage": "adaptive_procedure", "decision_var": 0.0073544509261919445, "response": "down", "rt": 0.42224175100272987, "FB": 0, "quest_estimate": -9.24516582986104e-05, "trial_time": 2.526524212997174}
{"FBDuration": 0.5, "FBonset": 0, "ITI": 0.20050137908578547, "displayFB": true, "onset": 152.9677018071929, "punishment_amount": 0, "responseWindow": 1.5, "reward_amount": 1, "stim": {"motionDirection": "out", "oriBase": 30, "oriDirection": 1, "oriStrength": 0.775, "speedDirection": -1, "speedStrength": 0.775, "speed_start": 0.12, "speed_end": 0.10166433094350064, "ori_start": 30, "ori_end": 38.550128261859044, "motion_direction": "out"}, "stimResponseInterval": 0.8799398059543666, "stimulusDuration": 1.5, "trial_count": 35, "ts": "motion", "trial_type": "intensity-95", "exp_stage": "adaptive_procedure", "decision_var": 0.01833566905649936, "response": "down", "rt": 0.29076468299899716, "FB": 1, "quest_estimate": -0.0004340172698145614, "trial_time": 3.2038606160058407}
{"FBDuration": 0.5, "FBonset": 0, "ITI": 0.05811503791462869, "displayFB": true, "onset": 157.54814299223304, "punishment_amount": 0, "responseWindow": 1.5, "reward_amount": 1, "stim": {"motionDirection": "out", "oriBase": -60, "oriDirection": -1, "oriStrength": 0.775, "speedDirection": 1, "speedStrength": 0.775, "speed_start": 0.12, "speed_end": 0.13833566905649936, "ori_start": -60, "ori_end": -68.55012826185904, "motion_direction": "out"}, "stimResponseInterval": 0.897982290869155, "stimulusDuration": 1.5, "trial_count": 36, "ts": "motion", "trial_type": "intensity-95", "exp_stage": "adaptive_procedure", "decision_var": 0.01833566905649936, "response": "up", "rt": 0.336248241001158, "FB": 1, "quest_estimate": -0.0007737468188247013, "trial_time": 3.2699137550080195}
{"FBDuration": 0.5, "FBonset": 0, "ITI": 0.2243998413459829, "displayFB": true, "onset": 162.00424032101682, "punishment_amount": 0, "responseWindow": 1.5, "reward_amount": 1, "stim": {"motionDirection": "out", "oriBase": -60, "oriDirection": 1, "oriStrength": 0.775, "speedDirection": -1, "speedStrength": 0.775, "speed_start": 0.12, "speed_end": 0.11555033066860589, "ori_start": -60, "ori_end": -51.449871738140956, "motion_direction": "out"}, "stimResponseInterval": 0.5159145442090654, "stimulusDuration": 1.5, "trial_count": 37, "ts": "motion", "trial_type": "intensity-60", "exp_stage": "adaptive_procedure", "decision_var": 0.004449669331394105, "response": "up", "rt": 0.28855324699543417, "FB": 0, "quest_estimate": 0.0004593151861337075, "trial_time": 2.8310261250007898}
{"FBDuration": 0.5, "FBonset": 0, "ITI": 0.7185209977785703, "displayFB": true, "onset": 166.24455470657188, "punishment_amount": 0, "responseWindow": 1.5, "reward_amount": 1, "stim": {"motionDirection": "in", "oriBase": 30, "oriDirection": 1, "oriStrength": 0.775, "speedDirection": -1, "speedStrength": 0.775, "speed_start": 0.12, "speed_end": 0.11555033066860589, "ori_start": 30, "ori_end": 38.550128261859044, "motion_direction": "in"}, "stimResponseInterval": 0.9957689381795192, "stimulusDuration": 1.5, "trial_count": 38, "ts": "motion", "trial_type": "intensity-60", "exp_stage": "adaptive_procedure", "decision_var": 0.004449669331394105, "response": "down", "rt": 0.2993908350035781, "FB": 1, "quest_estimate": 0.0001143420489737243, "trial_time": 3.330017107000458}
{"FBDuration": 0.5, "FBonset": 0, "ITI": 0.9348485133349398, "displayFB": true, "onset": 171.45884464252995, "punishment_amount": 0, "responseWindow": 1.5, "reward_amount": 1, "stim": {"motionDirection": "in", "oriBase": -60, "oriDirection": 1, "oriStrength": 0.775, "speedDirection": -1, "speedStrength": 0.775, "speed_start": 0.12, "speed_end": 0.10166433094350064, "ori_start": -60, "ori_end": -51.449871738140956, "motion_direction": "in"}, "stimResponseInterval": 0.02741441976986536, "stimulusDuration": 1.5, "trial_count": 39, "ts": "motion", "trial_type": "intensity-95", "exp_stage": "adaptive_procedure", "decision_var": 0.01833566905649936, "response": "down", "rt": 0.44460675299342256, "FB": 1, "quest_estimate": -0.0002245633447491499, "trial_time": 2.506445231003454}
{"FBDuration": 0.5, "FBonset": 0, "ITI": 0.5465480773975098, "displayFB": true, "onset": 175.92110757563475, "punishment_amount": 0, "responseWindow": 1.5, "reward_amount": 1, "stim": {"motionDirection": "out", "oriBase": -60, "oriDirection": 1, "oriStrength": 0.775, "speedDirection": 1, "speedStrength": 0.775, "speed_start": 0.12, "speed_end": 0.12735445092619194, "ori_start": -60, "ori_end": -51.449871738140956, "motion_direction": "out"}, "stimResponseInterval": 0.25288625920970087, "stimulusDuration": 1.5, "trial_count": 40, "ts": "motion", "trial_type": "intensity-70", "exp_stage": "adaptive_procedure", "decision_var": 0.0073544509261919445, "response": "up", "rt": 0.3998467210039962, "FB": 1, "quest_estimate": -0.0005654791552437838, "trial_time": 2.6906011129904073}
{"FBDuration": 0.5, "FBonset": 0, "ITI": 0.943018856811018, "displayFB": true, "onset": 180.22054191224197, "punishment_amount": 0, "responseWindow": 1.5, "reward_amount": 1, "stim": {"motionDirection": "in", "oriBase": -60, "oriDirection": -1, "oriStrength": 0.775, "speedDirection": -1, "speedStrength": 0.775, "speed_start": 0.12, "speed_end": 0.11555033066860589, "ori_start": -60, "ori_end": -68.55012826185904, "motion_direction": "in"}, "stimResponseInterval": 0.4319653709927542, "stimulusDuration": 1.5, "trial_count": 41, "ts": "motion", "trial_type": "intensity-60", "exp_stage": "adaptive_procedure", "decision_var": 0.004449669331394105, "response": "down", "rt": 0.2963643340044655, "FB": 1, "quest_estimate": -0.0009053655605770899, "trial_time": 2.765694295987487}
{"FBDuration": 0.5, "FBonset": 0, "ITI": 0.8611342080542101, "displayFB": true, "onset": 185.09552614004573, "punishment_amount": 0, "responseWindow": 1.5, "reward_amount": 1, "stim": {"motionDirection": "in", "oriBase": -60, "oriDirection": -1, "oriStrength": 0.775, "speedDirection": 1, "speedStrength": 0.775, "speed_start": 0.12, "speed_end": 0.1244496693313941, "ori_start": -60, "ori_end": -68.55012826185904, "motion_direction": "in"}, "stimResponseInterval": 0.14360928383035376, "stimulusDuration": 1.5, "trial_count": 42, "ts": "motion", "trial_type": "intensity-60", "exp_stage": "adaptive_procedure", "decision_var": 0.004449669331394105, "response": "down", "rt": 0.38063818799855653, "FB": 0, "quest_estimate": 0.00031364799904999574, "trial_time": 2.550700315987342}
{"FBDuration": 0.5, "FBonset": 0, "ITI": 0.5395359757998646, "displayFB": true, "onset": 189.6002696319303, "punishment_amount": 0, "responseWindow": 1.5, "reward_amount": 1, "stim": {"motionDirection": "out", "oriBase": -60, "oriDirection": -1, "oriStrength": 0.775, "speedDirection": -1, "speedStrength": 0.775, "speed_start": 0.12, "speed_end": 0.10166433094350064, "ori_start": -60, "ori_end": -68.55012826185904, "motion_direction": "out"}, "stimResponseInterval": 0.13903447635122468, "stimulusDuration": 1.5, "trial_count": 43, "ts": "motion", "trial_type": "intensity-95", "exp_stage": "adaptive_procedure", "decision_var": 0.01833566905649936, "response": "down", "rt": 0.33946094500424806, "FB": 1, "quest_estimate": -2.2686528239029835e-05, "trial_time": 2.515376010007458}
{"FBDuration": 0.5, "FBonset": 0, "ITI": 0.4176777553048071, "displayFB": true, "onset": 193.7788400840814, "punishment_amount": 0, "responseWindow": 1.5, "reward_amount": 1, "stim": {"motionDirection": "in", "oriBase": 30, "oriDirection": 1, "oriStrength": 0.775, "speedDirection": 1, "speedStrength": 0.775, "speed_start": 0.12, "speed_end": 0.13833566905649936, "ori_start": 30, "ori_end": 38.550128261859044, "motion_direction": "in"}, "stimResponseInterval": 0.9342002191008212, "stimulusDuration": 1.5, "trial_count": 44, "ts": "motion", "trial_type": "intensity-95", "exp_stage": "adaptive_procedure", "decision_var": 0.01833566905649936, "response": "up", "rt": 0.3650982030085288, "FB": 1, "quest_estimate": -0.0003572474355059488, "trial_time": 3.323884935991373}
{"FBDuration": 0.5, "FBonset": 0, "ITI": 0.05044157990235798, "displayFB": true, "onset": 198.63071805848702, "punishment_amount": 0, "responseWindow": 1.5, "reward_amount": 1, "stim": {"motionDirection": "in", "oriBase": -60, "oriDirection": -1, "oriStrength": 0.775, "speedDirection": -1, "speedStrength": 0.775, "speed_start": 0.12, "speed_end": 0.10166433094350064, "ori_start": -60, "ori_end": -68.55012826185904, "motion_direction": "in"}, "stimResponseInterval": 0.4075609509284348, "stimulusDuration": 1.5, "trial_count": 45, "ts": "motion", "trial_type": "intensity-95", "exp_stage": "adaptive_procedure", "decision_var": 0.01833566905649936, "response": "down", "rt": 0.3214593570010038, "FB": 1, "quest_estimate": -0.0006900499316151165, "trial_time": 2.765893314994173}
{"FBDuration": 0.5, "FBonset": 0, "ITI": 0.7884896928961997, "displayFB": true, "onset": 202.5887205893178, "punishment_amount": 0, "responseWindow": 1.5, "reward_amount": 1, "stim": {"motionDirection": "in", "oriBase": 30, "oriDirection": -1, "oriStrength": 0.775, "speedDirection": -1, "speedStrength": 0.775, "speed_start": 0.12, "speed_end": 0.10762768549525303, "ori_start": 30, "ori_end": 21.44987173814096, "motion_direction": "in"}, "stimResponseInterval": 0.5187097879973301, "stimulusDuration": 1.5, "trial_count": 46, "ts": "motion", "trial_type": "intensity-85", "exp_stage": "adaptive_procedure", "decision_var": 0.01237231450474696, "response": "down", "rt": 0.28619570200680755, "FB": 1, "quest_estimate": -0.0010234503396129926, "trial_time": 2.8327795160003006}
{"FBDuration": 0.5, "FBonset": 0, "ITI": 0.6813071054915167, "displayFB": true, "onset": 207.39592007021133, "punishment_amount": 0, "responseWindow": 1.5, "reward_amount": 1, "stim": {"motionDirection": "out", "oriBase": -60, "oriDirection": 1, "oriStrength": 0.775, "speedDirection": -1, "speedStrength": 0.775, "speed_start": 0.12, "speed_end": 0.11555033066860589, "ori_start": -60, "ori_end": -51.449871738140956, "motion_direction": "out"}, "stimResponseInterval": 0.9823751421642011, "stimulusDuration": 1.5, "trial_count": 47, "ts": "motion", "trial_type": "intensity-60", "exp_stage": "adaptive_procedure", "decision_var": 0.004449669331394105, "response": "down", "rt": 0.24743886099895462, "FB": 1, "quest_estimate": -0.0013573689824580085, "trial_time": 3.26574519200949}
{"FBDuration": 0.5, "FBonset": 0, "ITI": 0.585631953619913, "displayFB": true, "onset": 212.55960231786705, "punishment_amount": 0, "responseWindow": 1.5, "reward_amount": 1, "stim": {"motionDirection": "out", "oriBase": 30, "oriDirection": -1, "oriStrength": 0.775, "speedDirection": 1, "speedStrength": 0.775, "speed_start": 0.12, "speed_end": 0.13237231450474696, "ori_start": 30, "ori_end": 21.44987173814096, "motion_direction": "out"}, "stimResponseInterval": 0.9326141466105886, "stimulusDuration": 1.5, "trial_count": 48, "ts": "motion", "trial_type": "intensity-85", "exp_stage": "adaptive_procedure", "decision_var": 0.01237231450474696, "response": "down", "rt": 0.2780117960064672, "FB": 0, "quest_estimate": -7.587990402936617e-05, "trial_time": 3.2477857379999477}
{"FBDuration": 0.5, "FBonset": 0, "ITI": 0.9929540304793631, "displayFB": true, "onset": 217.57784841809755, "punishment_amount": 0, "responseWindow": 1.5, "reward_amount": 1, "stim": {"motionDirection": "in", "oriBase": -60, "oriDirection": 1, "oriStrength": 0.775, "speedDirection": 1, "speedStrength": 0.775, "speed_start": 0.12, "speed_end": 0.13237231450474696, "ori_start": -60, "ori_end": -51.449871738140956, "motion_direction": "in"}, "stimResponseInterval": 0.5331761844531488, "stimulusDuration": 1.5, "trial_count": 49, "ts": "motion", "trial_type": "intensity-85", "exp_stage": "adaptive_procedure", "decision_var": 0.01237231450474696, "response": "up", "rt": 0.332125906003057, "FB": 1, "quest_estimate": -0.0004086295783043356, "trial_time": 2.898607588998857}
{"FBDuration": 0.5, "FBonset": 0, "ITI": 0.3475519294888655, "displayFB": true, "onset": 222.60397863303007, "punishment_amount": 0, "responseWindow": 1.5, "reward_amount": 1, "stim": {"motionDirection": "out", "oriBase": -60, "oriDirection": -1, "oriStrength": 0.775, "speedDirection": 1, "speedStrength": 0.775, "speed_start": 0.12, "speed_end": 0.13237231450474696, "ori_start": -60, "ori_end": -68.55012826185904, "motion_direction": "out"}, "stimResponseInterval": 0.7583753431710685, "stimulusDuration": 1.5, "trial_count": 50, "ts": "motion", "trial_type": "intensity-85", "exp_stage": "adaptive_procedure", "decision_var": 0.01237231450474696, "response": "up", "rt": 0.2837404940073611, "FB": 1, "quest_estimate": -0.0007397154097635861, "trial_time": 3.081076408008812}
{"FBDuration": 0.5, "FBonset": 0, "ITI": 0.5927435342639586, "displayFB": true, "onset": 227.20990590569, "punishment_amount": 0, "responseWindow": 1.5, "reward_amount": 1, "stim": {"motionDirection": "out", "oriBase": 30, "oriDirection": -1, "oriStrength": 0.775, "speedDirection": -1, "speedStrength": 0.775, "speed_start": 0.12, "speed_end": 0.10166433094350064, "ori_start": 30, "ori_end": 21.44987173814096, "motion_direction": "out"}, "stimResponseInterval": 0.2131554097024363, "stimulusDuration": 1.5, "trial_count": 51, "ts": "motion", "trial_type": "intensity-95", "exp_stage": "adaptive_procedure", "decision_var": 0.01833566905649936, "response": "down", "rt": 0.3024935290013673, "FB": 1, "quest_estimate": -0.0010668307830556042, "trial_time": 2.546903555994504}
{"FBDuration": 0.5, "FBonset": 0, "ITI": 0.7348952839192684, "displayFB": true, "onset": 231.51580484965638, "punishment_amount": 0, "responseWindow": 1.5, "reward_amount": 1, "stim": {"motionDirection": "in", "oriBase": 30, "oriDirection": -1, "oriStrength": 0.775, "speedDirection": -1, "speedStrength": 0.775, "speed_start": 0.12, "speed_end": 0.10762768549525303, "ori_start": 30, "ori_end": 21.44987173814096, "motion_direction": "in"}, "stimResponseInterval": 0.19316927812534423, "stimulusDuration": 1.5, "trial_count": 52, "ts": "motion", "trial_type": "intensity-85", "exp_stage": "adaptive_procedure", "decision_var": 0.01237231450474696, "response": "down", "rt": 0.38305084001331124, "FB": 1, "quest_estimate": -0.001394603377177811, "trial_time": 2.5996436809946317}
{"FBDuration": 0.5, "FBonset": 0, "ITI": 0.04233175886504992, "displayFB": true, "onset": 235.943869411701, "punishment_amount": 0, "responseWindow": 1.5, "reward_amount": 1, "stim": {"motionDirection": "in", "oriBase": 30, "oriDirection": -1, "oriStrength": 0.775, "speedDirection": 1, "speedStrength": 0.775, "speed_start": 0.12, "speed_end": 0.13237231450474696, "ori_start": 30, "ori_end": 21.44987173814096, "motion_direction": "in"}, "stimResponseInterval": 0.20698141881367538, "stimulusDuration": 1.5, "trial_count": 53, "ts": "motion", "trial_type": "intensity-85", "exp_stage": "adaptive_procedure", "decision_var": 0.01237231450474696, "response": "up", "rt": 0.35257636399182957, "FB": 1, "quest_estimate": -0.0017207515667903989, "trial_time": 2.5868418290046975}
{"FBDuration": 0.5, "FBonset": 0, "ITI": 0.006455507496667567, "displayFB": true, "onset": 239.69318258937972, "punishment_amount": 0, "responseWindow": 1.5, "reward_amount": 1, "stim": {"motionDirection": "in", "oriBase": -60, "oriDirection": 1, "oriStrength": 0.775, "speedDirection": -1, "speedStrength": 0.775, "speed_start": 0.12, "speed_end": 0.11264554907380805, "ori_start": -60, "ori_end": -51.449871738140956, "motion_direction": "in"}, "stimResponseInterval": 0.31527858727614577, "stimulusDuration": 1.5, "trial_count": 54, "ts": "motion", "trial_type": "intensity-70", "exp_stage": "adaptive_procedure", "decision_var": 0.0073544509261919445, "response": "up", "rt": 0.36185620600008406, "FB": 0, "quest_estimate": -0.0005067893628359008, "trial_time": 2.7039293179987}
{"FBDuration": 0.5, "FBonset": 0, "ITI": 0.2796590207763606, "displayFB": true, "onset": 243.51491668415252, "punishment_amount": 0, "responseWindow": 1.5, "reward_amount": 1, "stim": {"motionDirection": "in", "oriBase": -60, "oriDirection": 1, "oriStrength": 0.775, "speedDirection": 1, "speedStrength": 0.775, "speed_start": 0.12, "speed_end": 0.12735445092619194, "ori_start": -60, "ori_end": -51.449871738140956, "motion_direction": "in"}, "stimResponseInterval": 0.6129214084354975, "stimulusDuration": 1.5, "trial_count": 55, "ts": "motion", "trial_type": "intensity-70", "exp_stage": "adaptive_procedure", "decision_var": 0.0073544509261919445, "response": "down", "rt": 0.27213566600403283, "FB": 0, "quest_estimate": 0.0007032298028242859, "trial_time": 2.9230175049888203}
{"FBDuration": 0.5, "FBonset": 0, "ITI": 0.9668405255904027, "displayFB": true, "onset": 247.90749711336437, "punishment_amount": 0, "responseWindow": 1.5, "reward_amount": 1, "stim": {"motionDirection": "in", "oriBase": 30, "oriDirection": 1, "oriStrength": 0.775, "speedDirection": -1, "speedStrength": 0.775, "speed_start": 0.12, "speed_end": 0.11555033066860589, "ori_start": 30, "ori_end": 38.550128261859044, "motion_direction": "in"}, "stimResponseInterval": 0.30681370446726086, "stimulusDuration": 1.5, "trial_count": 56, "ts": "motion", "trial_type": "intensity-60", "exp_stage": "adaptive_procedure", "decision_var": 0.004449669331394105, "response": "down", "rt": 0.3097730209992733, "FB": 1, "quest_estimate": 0.00037184350471176214, "trial_time": 2.6425534099980723}
{"FBDuration": 0.5, "FBonset": 0, "ITI": 0.13243382835183126, "displayFB": true, "onset": 252.68115134342204, "punishment_amount": 0, "responseWindow": 1.5, "reward_amount": 1, "stim": {"motionDirection": "in", "oriBase": -60, "oriDirection": -1, "oriStrength": 0.775, "speedDirection": -1, "speedStrength": 0.775, "speed_start": 0.12, "speed_end": 0.11555033066860589, "ori_start": -60, "ori_end": -68.55012826185904, "motion_direction": "in"}, "stimResponseInterval": 0.23798540001964563, "stimulusDuration": 1.5, "trial_count": 57, "ts": "motion", "trial_type": "intensity-60", "exp_stage": "adaptive_procedure", "decision_var": 0.004449669331394105, "response": "down", "rt": 0.4403591660084203, "FB": 1, "quest_estimate": 4.200184010329233e-05, "trial_time": 2.7124402540066512}
{"FBDuration": 0.5, "FBonset": 0, "ITI": 0.8081994999492053, "displayFB": true, "onset": 256.55157057179355, "punishment_amount": 0, "responseWindow": 1.5, "reward_amount": 1, "stim": {"motionDirection": "out", "oriBase": -60, "oriDirection": -1, "oriStrength": 0.775, "speedDirection": 1, "speedStrength": 0.775, "speed_start": 0.12, "speed_end": 0.13833566905649936, "ori_start": -60, "ori_end": -68.55012826185904, "motion_direction": "out"}, "stimResponseInterval": 0.9833742260882021, "stimulusDuration": 1.5, "trial_count": 58, "ts": "motion", "trial_type": "intensity-95", "exp_stage": "adaptive_procedure", "decision_var": 0.01833566905649936, "response": "up", "rt": 0.32447562999732327, "FB": 1, "quest_estimate": -0.0002820860901279268, "trial_time": 3.3378616599948145}
{"FBDuration": 0.5, "FBonset": 0, "ITI": 0.008127841698233884, "displayFB": true, "onset": 261.843144297831, "punishment_amount": 0, "responseWindow": 1.5, "reward_amount": 1, "stim": {"motionDirection": "out", "oriBase": -60, "oriDirection": 1, "oriStrength": 0.775, "speedDirection": -1, "speedStrength": 0.775, "speed_start": 0.12, "speed_end": 0.10762768549525303, "ori_start": -60, "ori_end": -51.449871738140956, "motion_direction": "out"}, "stimResponseInterval": 0.7234907855376027, "stimulusDuration": 1.5, "trial_count": 59, "ts": "motion", "trial_type": "intensity-85", "exp_stage": "adaptive_procedure", "decision_var": 0.01237231450474696, "response": "down", "rt": 0.2881138240045402, "FB": 1, "quest_estimate": -0.0006067648890029226, "trial_time": 3.0487893219979014}
{"FBDuration": 0.5, "FBonset": 0, "ITI": 0.18801502284151828, "displayFB": true, "onset": 266.0747629250668, "punishment_amount": 0, "responseWindow": 1.5, "reward_amount": 1, "stim": {"motionDirection": "out", "oriBase": 30, "oriDirection": 1, "oriStrength": 0.775, "speedDirection": 1, "speedStrength": 0.775, "speed_start": 0.12, "speed_end": 0.13237231450474696, "ori_start": 30, "ori_end": 38.550128261859044, "motion_direction": "out"}, "stimResponseInterval": 0.7575875481546519, "stimulusDuration": 1.5, "trial_count": 60, "ts": "motion", "trial_type": "intensity-85", "exp_stage": "adaptive_procedure", "decision_var": 0.01237231450474696, "response": "up", "rt": 0.27980817698698957, "FB": 1, "quest_estimate": -0.0009298594605313196, "trial_time": 3.074094629002502}
{"FBDuration": 0.5, "FBonset": 0, "ITI": 0.22213801942800582, "displayFB": true, "onset": 270.520365496063, "punishment_amount": 0, "responseWindow": 1.5, "reward_amount": 1, "stim": {"motionDirection": "out", "oriBase": 30, "oriDirection": -1, "oriStrength": 0.775, "speedDirection": -1, "speedStrength": 0.775, "speed_start": 0.12, "speed_end": 0.11555033066860589, "ori_start": 30, "ori_end": 21.44987173814096, "motion_direction": "out"}, "stimResponseInterval": 0.920095919730501, "stimulusDuration": 1.5, "trial_count": 61, "ts": "motion", "trial_type": "intensity-60", "exp_stage": "adaptive_procedure", "decision_var": 0.004449669331394105, "response": "up", "rt": 0.27399873099057004, "FB": 0, "quest_estimate": 0.00023671352492149467, "trial_time": 3.2334502449957654}
{"FBDuration": 0.5, "FBonset": 0, "ITI": 0.8742236066393843, "displayFB": true, "onset": 275.1625994352215, "punishment_amount": 0, "responseWindow": 1.5, "reward_amount": 1, "stim": {"motionDirection": "in", "oriBase": -60, "oriDirection": 1, "oriStrength": 0.775, "speedDirection": 1, "speedStrength": 0.775, "speed_start": 0.12, "speed_end": 0.13237231450474696, "ori_start": -60, "ori_end": -51.449871738140956, "motion_direction": "in"}, "stimResponseInterval": 0.06513308886912805, "stimulusDuration": 1.5, "trial_count": 62, "ts": "motion", "trial_type": "intensity-85", "exp_stage": "adaptive_procedure", "decision_var": 0.01237231450474696, "response": "down", "rt": 0.6893417370010866, "FB": 0, "quest_estimate": 0.0014762561656060103, "trial_time": 2.7823905709956307}
{"FBDuration": 0.5, "FBonset": 0, "ITI": 0.017722513839481313, "displayFB": true, "onset": 279.60195613073006, "punishment_amount": 0, "responseWindow": 1.5, "reward_amount": 1, "stim": {"motionDirection": "out", "oriBase": 30, "oriDirection": 1, "oriStrength": 0.775, "speedDirection": -1, "speedStrength": 0.775, "speed_start": 0.12, "speed_end": 0.11264554907380805, "ori_start": 30, "ori_end": 38.550128261859044, "motion_direction": "out"}, "stimResponseInterval": 0.6667609668082568, "stimulusDuration": 1.5, "trial_count": 63, "ts": "motion", "trial_type": "intensity-70", "exp_stage": "adaptive_procedure", "decision_var": 0.0073544509261919445, "response": "down", "rt": 0.2919047320028767, "FB": 1, "quest_estimate": 0.0011486584919730494, "trial_time": 2.9964749290084}
{"FBDuration": 0.5, "FBonset": 0, "ITI": 0.537345289122819, "displayFB": true, "onset": 283.7864396113778, "punishment_amount": 0, "responseWindow": 1.5, "reward_amount": 1, "stim": {"motionDirection": "in", "oriBase": -60, "oriDirection": -1, "oriStrength": 0.775, "speedDirection": -1, "speedStrength": 0.775, "speed_start": 0.12, "speed_end": 0.10762768549525303, "ori_start": -60, "ori_end": -68.55012826185904, "motion_direction": "in"}, "stimResponseInterval": 0.039758326732892924, "stimulusDuration": 1.5, "trial_count": 64, "ts": "motion", "trial_type": "intensity-85", "exp_stage": "adaptive_procedure", "decision_var": 0.01237231450474696, "response": "down", "rt": 0.4220522660034476, "FB": 1, "quest_estimate": 0.000823894537750447, "trial_time": 2.4962300629995298}
