{"FBDuration": 0.5, "FBonset": 0, "ITI": 0.5358319839683343, "displayFB": true, "onset": 2, "punishment_amount": 0, "responseWindow": 1.5, "reward_amount": 1, "stim": {"motionDirection": "out", "oriBase": -60, "oriDirection": -1, "oriStrength": 0.775, "speedDirection": -1, "speedStrength": 0.775, "speed_start": 0.12, "speed_end": 0.11622117539934956, "ori_start": -60, "ori_end": -68.80195757353245, "motion_direction": "out"}, "stimResponseInterval": 0.8028724167938899, "stimulusDuration": 1.5, "trial_count": 1, "ts": "orientation", "trial_type": "threshold_estimation", "exp_stage": "adaptive_procedure", "decision_var": 8.801957573532448, "response": "left", "rt": 0.2408142880012747, "FB": 1, "quest_estimate": 8.831716052439852, "trial_time": 3.07164381199982}
{"FBDuration": 0.5, "FBonset": 0, "ITI": 0.3863979402291534, "displayFB": true, "onset": 6.838704400762224, "punishment_amount": 0, "responseWindow": 1.5, "reward_amount": 1, "stim": {"motionDirection": "out", "oriBase": -60, "oriDirection": -1, "oriStrength": 0.775, "speedDirection": 1, "speedStrength": 0.775, "speed_start": 0.12, "speed_end": 0.12377882460065043, "ori_start": -60, "ori_end": -68.7915970010356, "motion_direction": "out"}, "stimResponseInterval": 0.6341528540008827, "stimulusDuration": 1.5, "trial_count": 2, "ts": "orientation", "trial_type": "threshold_estimation", "exp_stage": "adaptive_procedure", "decision_var": 8.791597001035598, "response": "left", "rt": 0.2630888030034839, "FB": 1, "quest_estimate": 8.820097680274458, "trial_time": 2.934990713998559}
{"FBDuration": 0.5, "FBonset": 0, "ITI": 0.40842073028096837, "displayFB": true, "onset": 11.359255194992262, "punishment_amount": 0, "responseWindow": 1.5, "reward_amount": 1, "stim": {"motionDirection": "out", "oriBase": 30, "oriDirection": 1, "oriStrength": 0.775, "speedDirection": -1, "speedStrength": 0.775, "speed_start": 0.12, "speed_end": 0.11622117539934956, "ori_start": 30, "ori_end": 38.783487592570594, "motion_direction": "out"}, "stimResponseInterval": 0.8505303934818302, "stimulusDuration": 1.5, "trial_count": 3, "ts": "orientation", "trial_type": "threshold_estimation", "exp_stage": "adaptive_procedure", "decision_var": 8.783487592570598, "response": "right", "rt": 0.29604178400040837, "FB": 1, "quest_estimate": 8.808460812874987, "trial_time": 3.179185824999877}
{"FBDuration": 0.5, "FBonset": 0, "ITI": 0.5239149049542948, "displayFB": true, "onset": 16.11820631875506, "punishment_amount": 0, "responseWindow": 1.5, "reward_amount": 1, "stim": {"motionDirection": "out", "oriBase": -60, "oriDirection": -1, "oriStrength": 0.775, "speedDirection": -1, "speedStrength": 0.775, "speed_start": 0.12, "speed_end": 0.11622117539934956, "ori_start": -60, "ori_end": -68.77651700273637, "motion_direction": "out"}, "stimResponseInterval": 0.22789441921063558, "stimulusDuration": 1.5, "trial_count": 4, "ts": "orientation", "trial_type": "threshold_estimation", "exp_stage": "adaptive_procedure", "decision_var": 8.776517002736377, "response": "left", "rt": 0.38040292900404893, "FB": 1, "quest_estimate": 8.796606652677713, "trial_time": 2.6461748859946965}
{"FBDuration": 0.5, "FBonset": 0, "ITI": 0.7876089111767384, "displayFB": true, "onset": 20.37001564291999, "punishment_amount": 0, "responseWindow": 1.5, "reward_amount": 1, "stim": {"motionDirection": "in", "oriBase": 30, "oriDirection": 1, "oriStrength": 0.775, "speedDirection": -1, "speedStrength": 0.775, "speed_start": 0.12, "speed_end": 0.11622117539934956, "ori_start": 30, "ori_end": 38.77036017031765, "motion_direction": "in"}, "stimResponseInterval": 0.5670748038589541, "stimulusDuration": 1.5, "trial_count": 5, "ts": "orientation", "trial_type": "threshold_estimation", "exp_stage": "adaptive_procedure", "decision_var": 8.770360170317652, "response": "right", "rt": 0.2944135110010393, "FB": 1, "quest_estimate": 8.784322364591844, "trial_time": 2.8963350280027953}
{"FBDuration": 0.5, "FBonset": 0, "ITI": 0.6091609356256207, "displayFB": true, "onset": 25.224699357955686, "punishment_amount": 0, "responseWindow": 1.5, "reward_amount": 1, "stim": {"motionDirection": "in", "oriBase": 30, "oriDirection": -1, "oriStrength": 0.775, "speedDirection": -1, "speedStrength": 0.775, "speed_start": 0.12, "speed_end": 0.11622117539934956, "ori_start": 30, "ori_end": 21.235251565382185, "motion_direction": "in"}, "stimResponseInterval": 0.9468091786725286, "stimulusDuration": 1.5, "trial_count": 6, "ts": "orientation", "trial_type": "threshold_estimation", "exp_stage": "adaptive_procedure", "decision_var": 8.764748434617815, "response": "left", "rt": 0.2699348469977849, "FB": 1, "quest_estimate": 8.771391326186063, "trial_time": 3.2455181300028926}
{"FBDuration": 0.5, "FBonset": 0, "ITI": 0.35023535563802, "displayFB": true, "onset": 30.280669472253834, "punishment_amount": 0, "responseWindow": 1.5, "reward_amount": 1, "stim": {"motionDirection": "in", "oriBase": 30, "oriDirection": -1, "oriStrength": 0.775, "speedDirection": -1, "speedStrength": 0.775, "speed_start": 0.12, "speed_end": 0.11622117539934956, "ori_start": 30, "ori_end": 21.240548367300256, "motion_direction": "in"}, "stimResponseInterval": 0.18595259742659287, "stimulusDuration": 1.5, "trial_count": 7, "ts": "orientation", "trial_type": "threshold_estimation", "exp_stage": "adaptive_procedure", "decision_var": 8.759451632699744, "response": "left", "rt": 0.3189851319984882, "FB": 1, "quest_estimate": 8.757603747805682, "trial_time": 2.541787176996877}
{"FBDuration": 0.5, "FBonset": 0, "ITI": 0.17531745612366978, "displayFB": true, "onset": 34.316857425318446, "punishment_amount": 0, "responseWindow": 1.5, "reward_amount": 1, "stim": {"motionDirection": "in", "oriBase": -60, "oriDirection": 1, "oriStrength": 0.775, "speedDirection": 1, "speedStrength": 0.775, "speed_start": 0.12, "speed_end": 0.12377882460065043, "ori_start": -60, "ori_end": -51.24573590639574, "motion_direction": "in"}, "stimResponseInterval": 0.41058808999621565, "stimulusDuration": 1.5, "trial_count": 8, "ts": "orientation", "trial_type": "threshold_estimation", "exp_stage": "adaptive_procedure", "decision_var": 8.75426409360426, "response": "right", "rt": 0.30983525500050746, "FB": 1, "quest_estimate": 8.742767288697067, "trial_time": 2.7533402249973733}
{"FBDuration": 0.5, "FBonset": 0, "ITI": 0.24978743054500485, "displayFB": true, "onset": 38.402762971438335, "punishment_amount": 0, "responseWindow": 1.5, "reward_amount": 1, "stim": {"motionDirection": "out", "oriBase": -60, "oriDirection": 1, "oriStrength": 0.775, "speedDirection": -1, "speedStrength": 0.775, "speed_start": 0.12, "speed_end": 0.11622117539934956, "ori_start": -60, "ori_end": -51.251006765241996, "motion_direction": "out"}, "stimResponseInterval": 0.08636173669435432, "stimulusDuration": 1.5, "trial_count": 9, "ts": "orientation", "trial_type": "threshold_estimation", "exp_stage": "adaptive_procedure", "decision_var": 8.748993234758007, "response": "right", "rt": 0.5788044660002925, "FB": 1, "quest_estimate": 8.718348328032327, "trial_time": 2.693727707002836}
{"FBDuration": 0.5, "FBonset": 0, "ITI": 0.4271711617265419, "displayFB": true, "onset": 42.2389121386777, "punishment_amount": 0, "responseWindow": 1.5, "reward_amount": 1, "stim": {"motionDirection": "in", "oriBase": -60, "oriDirection": 1, "oriStrength": 0.775, "speedDirection": -1, "speedStrength": 0.775, "speed_start": 0.12, "speed_end": 0.11622117539934956, "ori_start": -60, "ori_end": -51.256693766172255, "motion_direction": "in"}, "stimResponseInterval": 0.9776383773276278, "stimulusDuration": 1.5, "trial_count": 10, "ts": "orientation", "trial_type": "threshold_estimation", "exp_stage": "adaptive_procedure", "decision_var": 8.743306233827745, "response": "right", "rt": 0.25351202500314685, "FB": 1, "quest_estimate": 8.686813165326924, "trial_time": 3.2575094499989063}
{"FBDuration": 0.5, "FBonset": 0, "ITI": 0.6358902220015432, "displayFB": true, "onset": 47.14372167773187, "punishment_amount": 0, "responseWindow": 1.5, "reward_amount": 1, "stim": {"motionDirection": "in", "oriBase": -60, "oriDirection": -1, "oriStrength": 0.775, "speedDirection": -1, "speedStrength": 0.775, "speed_start": 0.12, "speed_end": 0.11622117539934956, "ori_start": -60, "ori_end": -68.73658956648207, "motion_direction": "in"}, "stimResponseInterval": 0.348427200032587, "stimulusDuration": 1.5, "trial_count": 11, "ts": "orientation", "trial_type": "threshold_estimation", "exp_stage": "adaptive_procedure", "decision_var": 8.73658956648207, "response": "left", "rt": 0.30601433500123676, "FB": 1, "quest_estimate": 8.646255987191104, "trial_time": 2.6902842359995702}
{"FBDuration": 0.5, "FBonset": 0, "ITI": 0.2506115319242712, "displayFB": true, "onset": 51.628039099766, "punishment_amount": 0, "responseWindow": 1.5, "reward_amount": 1, "stim": {"motionDirection": "in", "oriBase": 30, "oriDirection": 1, "oriStrength": 0.775, "speedDirection": 1, "speedStrength": 0.775, "speed_start": 0.12, "speed_end": 0.12377882460065043, "ori_start": 30, "ori_end": 38.72842919484154, "motion_direction": "in"}, "stimResponseInterval": 0.37433170508707414, "stimulusDuration": 1.5, "trial_count": 12, "ts": "orientation", "trial_type": "threshold_estimation", "exp_stage": "adaptive_procedure", "decision_var": 8.728429194841535, "response": "right", "rt": 0.41108594599791104, "FB": 1, "quest_estimate": 8.59470600222948, "trial_time": 2.818261476997577}
{"FBDuration": 0.5, "FBonset": 0, "ITI": 0.657339892742498, "displayFB": true, "onset": 55.75298233677734, "punishment_amount": 0, "responseWindow": 1.5, "reward_amount": 1, "stim": {"motionDirection": "out", "oriBase": 30, "oriDirection": 1, "oriStrength": 0.775, "speedDirection": 1, "speedStrength": 0.775, "speed_start": 0.12, "speed_end": 0.12377882460065043, "ori_start": 30, "ori_end": 38.71825038395086, "motion_direction": "out"}, "stimResponseInterval": 0.402459686881672, "stimulusDuration": 1.5, "trial_count": 13, "ts": "orientation", "trial_type": "threshold_estimation", "exp_stage": "adaptive_procedure", "decision_var": 8.718250383950856, "response": "right", "rt": 0.2703932590011391, "FB": 1, "quest_estimate": 8.530406554308236, "trial_time": 2.712643515005766}
{"FBDuration": 0.5, "FBonset": 0, "ITI": 0.6276625241687359, "displayFB": true, "onset": 60.31278191640151, "punishment_amount": 0, "responseWindow": 1.5, "reward_amount": 1, "stim": {"motionDirection": "out", "oriBase": 30, "oriDirection": 1, "oriStrength": 0.775, "speedDirection": 1, "speedStrength": 0.775, "speed_start": 0.12, "speed_end": 0.12377882460065043, "ori_start": 30, "ori_end": 38.705240225044705, "motion_direction": "out"}, "stimResponseInterval": 0.7538954660152135, "stimulusDuration": 1.5, "trial_count": 14, "ts": "orientation", "trial_type": "threshold_estimation", "exp_stage": "adaptive_procedure", "decision_var": 8.705240225044708, "response": "left", "rt": 0.24027047699928517, "FB": 0, "quest_estimate": 8.762346162710426, "trial_time": 3.023352424999757}
{"FBDuration": 0.5, "FBonset": 0, "ITI": 0.7585689886967182, "displayFB": true, "onset": 65.19433990658547, "punishment_amount": 0, "responseWindow": 1.5, "reward_amount": 1, "stim": {"motionDirection": "in", "oriBase": -60, "oriDirection": -1, "oriStrength": 0.775, "speedDirection": 1, "speedStrength": 0.775, "speed_start": 0.12, "speed_end": 0.12377882460065043, "ori_start": -60, "ori_end": -68.73658778350837, "motion_direction": "in"}, "stimResponseInterval": 0.595585268430487, "stimulusDuration": 1.5, "trial_count": 15, "ts": "orientation", "trial_type": "threshold_estimation", "exp_stage": "adaptive_procedure", "decision_var": 8.73658778350837, "response": "left", "rt": 0.4257176850005635, "FB": 1, "quest_estimate": 8.754312098768004, "trial_time": 3.050363582005957}
{"FBDuration": 0.5, "FBonset": 0, "ITI": 0.4527166458678118, "displayFB": true, "onset": 70.04849416371268, "punishment_amount": 0, "responseWindow": 1.5, "reward_amount": 1, "stim": {"motionDirection": "in", "oriBase": -60, "oriDirection": 1, "oriStrength": 0.775, "speedDirection": 1, "speedStrength": 0.775, "speed_start": 0.12, "speed_end": 0.12377882460065043, "ori_start": -60, "ori_end": -51.26992380645136, "motion_direction": "in"}, "stimResponseInterval": 0.6283511507907598, "stimulusDuration": 1.5, "trial_count": 16, "ts": "orientation", "trial_type": "threshold_estimation", "exp_stage": "adaptive_procedure", "decision_var": 8.730076193548637, "response": "right", "rt": 0.3796060739987297, "FB": 1, "quest_estimate": 8.745529294812304, "trial_time": 3.0474992159943213}
{"FBDuration": 0.5, "FBonset": 0, "ITI": 0.777121333363898, "displayFB": true, "onset": 74.62956196037125, "punishment_amount": 0, "responseWindow": 1.5, "reward_amount": 1, "stim": {"motionDirection": "out", "oriBase": 30, "oriDirection": 1, "oriStrength": 0.775, "speedDirection": -1, "speedStrength": 0.775, "speed_start": 0.12, "speed_end": 0.11622117539934956, "ori_start": 30, "ori_end": 38.722460806837475, "motion_direction": "out"}, "stimResponseInterval": 0.8749010431774344, "stimulusDuration": 1.5, "trial_count": 17, "ts": "orientation", "trial_type": "threshold_estimation", "exp_stage": "adaptive_procedure", "decision_var": 8.722460806837475, "response": "left", "rt": 0.3266791799978819, "FB": 0, "quest_estimate": 8.769148154246682, "trial_time": 3.2259548240035656}
{"FBDuration": 0.5, "FBonset": 0, "ITI": 0.031130427987150266, "displayFB": true, "onset": 79.78158433691257, "punishment_amount": 0, "responseWindow": 1.5, "reward_amount": 1, "stim": {"motionDirection": "in", "oriBase": -60, "oriDirection": 1, "oriStrength": 0.775, "speedDirection": -1, "speedStrength": 0.775, "speed_start": 0.12, "speed_end": 0.11622117539934956, "ori_start": -60, "ori_end": -51.260939797536146, "motion_direction": "in"}, "stimResponseInterval": 0.9842348112930721, "stimulusDuration": 1.5, "trial_count": 18, "ts": "orientation", "trial_type": "threshold_estimation", "exp_stage": "adaptive_procedure", "decision_var": 8.739060202463854, "response": "right", "rt": 0.277966663998086, "FB": 1, "quest_estimate": 8.763316922732063, "trial_time": 3.299082912999438}
{"FBDuration": 0.5, "FBonset": 0, "ITI": 0.28816328104585953, "displayFB": true, "onset": 84.2969495761928, "punishment_amount": 0, "responseWindow": 1.5, "reward_amount": 1, "stim": {"motionDirection": "in", "oriBase": -60, "oriDirection": -1, "oriStrength": 0.775, "speedDirection": 1, "speedStrength": 0.775, "speed_start": 0.12, "speed_end": 0.12377882460065043, "ori_start": -60, "ori_end": -68.733281421468, "motion_direction": "in"}, "stimResponseInterval": 0.0090429565387381, "stimulusDuration": 1.5, "trial_count": 19, "ts": "orientation", "trial_type": "threshold_estimation", "exp_stage": "adaptive_procedure", "decision_var": 8.733281421468, "response": "left", "rt": 0.37976858700130833, "FB": 1, "quest_estimate": 8.757436011231043, "trial_time": 2.4310409110039473}
{"FBDuration": 0.5, "FBonset": 0, "ITI": 0.09020437165215178, "displayFB": true, "onset": 88.0941558137774, "punishment_amount": 0, "responseWindow": 1.5, "reward_amount": 1, "stim": {"motionDirection": "in", "oriBase": -60, "oriDirection": -1, "oriStrength": 0.775, "speedDirection": 1, "speedStrength": 0.775, "speed_start": 0.12, "speed_end": 0.12377882460065043, "ori_start": -60, "ori_end": -68.72659399678324, "motion_direction": "in"}, "stimResponseInterval": 0.7996876336221663, "stimulusDuration": 1.5, "trial_count": 20, "ts": "orientation", "trial_type": "threshold_estimation", "exp_stage": "adaptive_procedure", "decision_var": 8.726593996783237, "response": "left", "rt": 0.3227094379981281, "FB": 1, "quest_estimate": 8.751544121870307, "trial_time": 3.1606358300050488}
{"FBDuration": 0.5, "FBonset": 0, "ITI": 0.7772597127961398, "displayFB": true, "onset": 92.48404781905172, "punishment_amount": 0, "responseWindow": 1.5, "reward_amount": 1, "stim": {"motionDirection": "in", "oriBase": 30, "oriDirection": -1, "oriStrength": 0.775, "speedDirection": -1, "speedStrength": 0.775, "speed_start": 0.12, "speed_end": 0.11622117539934956, "ori_start": 30, "ori_end": 21.281217858150068, "motion_direction": "in"}, "stimResponseInterval": 0.04663950793500371, "stimulusDuration": 1.5, "trial_count": 21, "ts": "orientation", "trial_type": "threshold_estimation", "exp_stage": "adaptive_procedure", "decision_var": 8.718782141849932, "response": "left", "rt": 0.4431012569984887, "FB": 1, "quest_estimate": 8.74567932512241, "trial_time": 2.519167660000676}
{"FBDuration": 0.5, "FBonset": 0, "ITI": 0.9586937597142389, "displayFB": true, "onset": 96.80794703978287, "punishment_amount": 0, "responseWindow": 1.5, "reward_amount": 1, "stim": {"motionDirection": "out", "oriBase": -60, "oriDirection": -1, "oriStrength": 0.775, "speedDirection": 1, "speedStrength": 0.775, "speed_start": 0.12, "speed_end": 0.12377882460065043, "ori_start": -60, "ori_end": -68.70958649840202, "motion_direction": "out"}, "stimResponseInterval": 0.5165045967679904, "stimulusDuration": 1.5, "trial_count": 22, "ts": "orientation", "trial_type": "threshold_estimation", "exp_stage": "adaptive_procedure", "decision_var": 8.709586498402022, "response": "left", "rt": 0.31147864300146466, "FB": 1, "quest_estimate": 8.739873941417173, "trial_time": 2.865923390003445}
{"FBDuration": 0.5, "FBonset": 0, "ITI": 0.9378015314331494, "displayFB": true, "onset": 101.7831453962651, "punishment_amount": 0, "responseWindow": 1.5, "reward_amount": 1, "stim": {"motionDirection": "in", "oriBase": -60, "oriDirection": -1, "oriStrength": 0.775, "speedDirection": 1, "speedStrength": 0.775, "speed_start": 0.12, "speed_end": 0.12377882460065043, "ori_start": -60, "ori_end": -68.69912596740406, "motion_direction": "in"}, "stimResponseInterval": 0.961056344421378, "stimulusDuration": 1.5, "trial_count": 23, "ts": "orientation", "trial_type": "threshold_estimation", "exp_stage": "adaptive_procedure", "decision_var": 8.699125967404058, "response": "left", "rt": 0.26274694700259715, "FB": 1, "quest_estimate": 8.734149562373474, "trial_time": 3.2517549249969306}
{"FBDuration": 0.5, "FBonset": 0, "ITI": 0.7161386590144776, "displayFB": true, "onset": 107.18200327211963, "punishment_amount": 0, "responseWindow": 1.5, "reward_amount": 1, "stim": {"motionDirection": "in", "oriBase": 30, "oriDirection": -1, "oriStrength": 0.775, "speedDirection": 1, "speedStrength": 0.775, "speed_start": 0.12, "speed_end": 0.12377882460065043, "ori_start": 30, "ori_end": 21.308020332269525, "motion_direction": "in"}, "stimResponseInterval": 0.1586916163996206, "stimulusDuration": 1.5, "trial_count": 24, "ts": "orientation", "trial_type": "threshold_estimation", "exp_stage": "adaptive_procedure", "decision_var": 8.691979667730475, "response": "left", "rt": 0.32225688899779925, "FB": 1, "quest_estimate": 8.728512726096536, "trial_time": 2.5077527089961222}
{"FBDuration": 0.5, "FBonset": 0, "ITI": 0.7528659997084926, "displayFB": true, "onset": 111.55683354753373, "punishment_amount": 0, "responseWindow": 1.5, "reward_amount": 1, "stim": {"motionDirection": "out", "oriBase": 30, "oriDirection": -1, "oriStrength": 0.775, "speedDirection": -1, "speedStrength": 0.775, "speed_start": 0.12, "speed_end": 0.11622117539934956, "ori_start": 30, "ori_end": 21.31405860245027, "motion_direction": "out"}, "stimResponseInterval": 0.15260098682834722, "stimulusDuration": 1.5, "trial_count": 25, "ts": "orientation", "trial_type": "threshold_estimation", "exp_stage": "adaptive_procedure", "decision_var": 8.68594139754973, "response": "left", "rt": 0.33089165900310036, "FB": 1, "quest_estimate": 8.722951606075611, "trial_time": 2.5170699110021815}
{"FBDuration": 0.5, "FBonset": 0, "ITI": 0.6590591123475718, "displayFB": true, "onset": 115.96230053407056, "punishment_amount": 0, "responseWindow": 1.5, "reward_amount": 1, "stim": {"motionDirection": "in", "oriBase": 30, "oriDirection": 1, "oriStrength": 0.775, "speedDirection": 1, "speedStrength": 0.775, "speed_start": 0.12, "speed_end": 0.12377882460065043, "ori_start": 30, "ori_end": 38.68080149541723, "motion_direction": "in"}, "stimResponseInterval": 0.041932089885152624, "stimulusDuration": 1.5, "trial_count": 26, "ts": "orientation", "trial_type": "threshold_estimation", "exp_stage": "adaptive_procedure", "decision_var": 8.680801495417231, "response": "right", "rt": 0.3947160289972089, "FB": 1, "quest_estimate": 8.717433869076547, "trial_time": 2.463197997996758}
{"FBDuration": 0.5, "FBonset": 0, "ITI": 0.10369366147433368, "displayFB": true, "onset": 120.1632917363033, "punishment_amount": 0, "responseWindow": 1.5, "reward_amount": 1, "stim": {"motionDirection": "in", "oriBase": 30, "oriDirection": -1, "oriStrength": 0.775, "speedDirection": 1, "speedStrength": 0.775, "speed_start": 0.12, "speed_end": 0.12377882460065043, "ori_start": 30, "ori_end": 21.323615600936773, "motion_direction": "in"}, "stimResponseInterval": 0.3115544673102848, "stimulusDuration": 1.5, "trial_count": 27, "ts": "orientation", "trial_type": "threshold_estimation", "exp_stage": "adaptive_procedure", "decision_var": 8.676384399063227, "response": "left", "rt": 0.28801345499960007, "FB": 1, "quest_estimate": 8.711905666542535, "trial_time": 2.62406526900304}
{"FBDuration": 0.5, "FBonset": 0, "ITI": 0.682897307372226, "displayFB": true, "onset": 124.07853986508792, "punishment_amount": 0, "responseWindow": 1.5, "reward_amount": 1, "stim": {"motionDirection": "in", "oriBase": -60, "oriDirection": 1, "oriStrength": 0.775, "speedDirection": -1, "speedStrength": 0.775, "speed_start": 0.12, "speed_end": 0.11622117539934956, "ori_start": -60, "ori_end": -51.327458490900405, "motion_direction": "in"}, "stimResponseInterval": 0.9507299195113776, "stimulusDuration": 1.5, "trial_count": 28, "ts": "orientation", "trial_type": "threshold_estimation", "exp_stage": "adaptive_procedure", "decision_var": 8.672541509099595, "response": "right", "rt": 0.3933141030065599, "FB": 1, "quest_estimate": 8.706291596543672, "trial_time": 3.3693224800008466}
{"FBDuration": 0.5, "FBonset": 0, "ITI": 0.7083208379384134, "displayFB": true, "onset": 129.21216709197154, "punishment_amount": 0, "responseWindow": 1.5, "reward_amount": 1, "stim": {"motionDirection": "out", "oriBase": 30, "oriDirection": -1, "oriStrength": 0.775, "speedDirection": 1, "speedStrength": 0.775, "speed_start": 0.12, "speed_end": 0.12377882460065043, "ori_start": 30, "ori_end": 21.33085466917059, "motion_direction": "out"}, "stimResponseInterval": 0.8748257237043959, "stimulusDuration": 1.5, "trial_count": 29, "ts": "orientation", "trial_type": "threshold_estimation", "exp_stage": "adaptive_procedure", "decision_var": 8.669145330829409, "response": "left", "rt": 0.2625111840025056, "FB": 1, "quest_estimate": 8.700495432828475, "trial_time": 3.1770306340040406}
{"FBDuration": 0.5, "FBonset": 0, "ITI": 0.7393227973273846, "displayFB": true, "onset": 134.29531365361436, "punishment_amount": 0, "responseWindow": 1.5, "reward_amount": 1, "stim": {"motionDirection": "in", "oriBase": 30, "oriDirection": 1, "oriStrength": 0.775, "speedDirection": 1, "speedStrength": 0.775, "speed_start": 0.12, "speed_end": 0.12377882460065043, "ori_start": 30, "ori_end": 38.66608458954783, "motion_direction": "in"}, "stimResponseInterval": 0.37153775531935396, "stimulusDuration": 1.5, "trial_count": 30, "ts": "orientation", "trial_type": "threshold_estimation", "exp_stage": "adaptive_procedure", "decision_var": 8.666084589547829, "response": "left", "rt": 0.3625546859984752, "FB": 0, "quest_estimate": 8.720390546083014, "trial_time": 2.771783645999676}
{"FBDuration": 0.5, "FBonset": 0, "ITI": 0.7468706856281715, "displayFB": true, "onset": 138.90617420626108, "punishment_amount": 0, "responseWindow": 1.5, "reward_amount": 1, "stim": {"motionDirection": "out", "oriBase": 30, "oriDirection": 1, "oriStrength": 0.775, "speedDirection": 1, "speedStrength": 0.775, "speed_start": 0.12, "speed_end": 0.12377882460065043, "ori_start": 30, "ori_end": 38.675643000446044, "motion_direction": "out"}, "stimResponseInterval": 0.8344992497017147, "stimulusDuration": 1.5, "trial_count": 31, "ts": "orientation", "trial_type": "threshold_estimation", "exp_stage": "adaptive_procedure", "decision_var": 8.675643000446048, "response": "right", "rt": 0.2871394300018437, "FB": 1, "quest_estimate": 8.716380294520217, "trial_time": 3.1476086100010434}
{"FBDuration": 0.5, "FBonset": 0, "ITI": 0.6143877530317665, "displayFB": true, "onset": 143.98754414159097, "punishment_amount": 0, "responseWindow": 1.5, "reward_amount": 1, "stim": {"motionDirection": "out", "oriBase": -60, "oriDirection": 1, "oriStrength": 0.775, "speedDirection": 1, "speedStrength": 0.775, "speed_start": 0.12, "speed_end": 0.12377882460065043, "ori_start": -60, "ori_end": -51.32767377209041, "motion_direction": "out"}, "stimResponseInterval": 0.3729060972945958, "stimulusDuration": 1.5, "trial_count": 32, "ts": "orientation", "trial_type": "threshold_estimation", "exp_stage": "adaptive_procedure", "decision_var": 8.672326227909593, "response": "right", "rt": 0.4960702449970995, "FB": 1, "quest_estimate": 8.712582146513299, "trial_time": 2.8944045180032845}
{"FBDuration": 0.5, "FBonset": 0, "ITI": 0.9126957844329575, "displayFB": true, "onset": 148.47483799191733, "punishment_amount": 0, "responseWindow": 1.5, "reward_amount": 1, "stim": {"motionDirection": "out", "oriBase": -60, "oriDirection": 1, "oriStrength": 0.775, "speedDirection": 1, "speedStrength": 0.775, "speed_start": 0.12, "speed_end": 0.12377882460065043, "ori_start": -60, "ori_end": -51.33055548201729, "motion_direction": "out"}, "stimResponseInterval": 0.911371788690871, "stimulusDuration": 1.5, "trial_count": 33, "ts": "orientation", "trial_type": "threshold_estimation", "exp_stage": "adaptive_procedure", "decision_var": 8.669444517982715, "response": "right", "rt": 0.33461699599865824, "FB": 1, "quest_estimate": 8.70896223316445, "trial_time": 3.283192532006069}
{"FBDuration": 0.5, "FBonset": 0, "ITI": 0.24990676732940353, "displayFB": true, "onset": 153.79890556504117, "punishment_amount": 0, "responseWindow": 1.5, "reward_amount": 1, "stim": {"motionDirection": "in", "oriBase": -60, "oriDirection": -1, "oriStrength": 0.775, "speedDirection": -1, "speedStrength": 0.775, "speed_start": 0.12, "speed_end": 0.11622117539934956, "ori_start": -60, "ori_end": -68.66690499870383, "motion_direction": "in"}, "stimResponseInterval": 0.3963248669475833, "stimulusDuration": 1.5, "trial_count": 34, "ts": "orientation", "trial_type": "threshold_estimation", "exp_stage": "adaptive_procedure", "decision_var": 8.666904998703828, "response": "left", "rt": 0.412642101997335, "FB": 1, "quest_estimate": 8.705478717154016, "trial_time": 2.836401449996629}
{"FBDuration": 0.5, "FBonset": 0, "ITI": 0.9317002150866907, "displayFB": true, "onset": 157.94513719931814, "punishment_amount": 0, "responseWindow": 1.5, "reward_amount": 1, "stim": {"motionDirection": "out", "oriBase": 30, "oriDirection": -1, "oriStrength": 0.775, "speedDirection": -1, "speedStrength": 0.775, "speed_start": 0.12, "speed_end": 0.11622117539934956, "ori_start": 30, "ori_end": 21.335373096156662, "motion_direction": "out"}, "stimResponseInterval": 0.14554552059455705, "stimulusDuration": 1.5, "trial_count": 35, "ts": "orientation", "trial_type": "threshold_estimation", "exp_stage": "adaptive_procedure", "decision_var": 8.664626903843338, "response": "left", "rt": 0.4777386360001401, "FB": 1, "quest_estimate": 8.702083861145457, "trial_time": 2.6527352729972336}
{"FBDuration": 0.5, "FBonset": 0, "ITI": 0.6559462667379217, "displayFB": true, "onset": 162.5223829349994, "punishment_amount": 0, "responseWindow": 1.5, "reward_amount": 1, "stim": {"motionDirection": "in", "oriBase": 30, "oriDirection": 1, "oriStrength": 0.775, "speedDirection": -1, "speedStrength": 0.775, "speed_start": 0.12, "speed_end": 0.11622117539934956, "ori_start": 30, "ori_end": 38.66253873943472, "motion_direction": "in"}, "stimResponseInterval": 0.059225583994133024, "stimulusDuration": 1.5, "trial_count": 36, "ts": "orientation", "trial_type": "threshold_estimation", "exp_stage": "adaptive_procedure", "decision_var": 8.662538739434726, "response": "left", "rt": 0.4138680519972695, "FB": 0, "quest_estimate": 8.713330621145456, "trial_time": 2.5072543150017736}
{"FBDuration": 0.5, "FBonset": 0, "ITI": 0.917537958810356, "displayFB": true, "onset": 166.73755478573145, "punishment_amount": 0, "responseWindow": 1.5, "reward_amount": 1, "stim": {"motionDirection": "out", "oriBase": 30, "oriDirection": -1, "oriStrength": 0.775, "speedDirection": 1, "speedStrength": 0.775, "speed_start": 0.12, "speed_end": 0.12377882460065043, "ori_start": 30, "ori_end": 21.330818628462794, "motion_direction": "out"}, "stimResponseInterval": 0.6573150745549283, "stimulusDuration": 1.5, "trial_count": 37, "ts": "orientation", "trial_type": "threshold_estimation", "exp_stage": "adaptive_procedure", "decision_var": 8.669181371537206, "response": "left", "rt": 0.21476970500225434, "FB": 1, "quest_estimate": 8.710301263554864, "trial_time": 2.9068180640024366}
{"FBDuration": 0.5, "FBonset": 0, "ITI": 0.4278863089563223, "displayFB": true, "onset": 171.81240781909673, "punishment_amount": 0, "responseWindow": 1.5, "reward_amount": 1, "stim": {"motionDirection": "in", "oriBase": 30, "oriDirection": 1, "oriStrength": 0.775, "speedDirection": -1, "speedStrength": 0.775, "speed_start": 0.12, "speed_end": 0.11622117539934956, "ori_start": 30, "ori_end": 38.66699758867975, "motion_direction": "in"}, "stimResponseInterval": 0.6225190531381086, "stimulusDuration": 1.5, "trial_count": 38, "ts": "orientation", "trial_type": "threshold_estimation", "exp_stage": "adaptive_procedure", "decision_var": 8.666997588679749, "response": "right", "rt": 0.31405135500244796, "FB": 1, "quest_estimate": 8.70745900438894, "trial_time": 2.961245621998387}
{"FBDuration": 0.5, "FBonset": 0, "ITI": 0.2667107209300956, "displayFB": true, "onset": 176.36281318119117, "punishment_amount": 0, "responseWindow": 1.5, "reward_amount": 1, "stim": {"motionDirection": "in", "oriBase": -60, "oriDirection": -1, "oriStrength": 0.775, "speedDirection": -1, "speedStrength": 0.775, "speed_start": 0.12, "speed_end": 0.11622117539934956, "ori_start": -60, "ori_end": -68.6650728984058, "motion_direction": "in"}, "stimResponseInterval": 0.15757910743363668, "stimulusDuration": 1.5, "trial_count": 39, "ts": "orientation", "trial_type": "threshold_estimation", "exp_stage": "adaptive_procedure", "decision_var": 8.665072898405796, "response": "left", "rt": 0.39365254300355446, "FB": 1, "quest_estimate": 8.704764236024733, "trial_time": 2.5900456070012297}
{"FBDuration": 0.5, "FBonset": 0, "ITI": 0.6097287108088842, "displayFB": true, "onset": 180.2871030095549, "punishment_amount": 0, "responseWindow": 1.5, "reward_amount": 1, "stim": {"motionDirection": "out", "oriBase": -60, "oriDirection": 1, "oriStrength": 0.775, "speedDirection": 1, "speedStrength": 0.775, "speed_start": 0.12, "speed_end": 0.12377882460065043, "ori_start": -60, "ori_end": -51.33665300399254, "motion_direction": "out"}, "stimResponseInterval": 0.922735489841358, "stimulusDuration": 1.5, "trial_count": 40, "ts": "orientation", "trial_type": "threshold_estimation", "exp_stage": "adaptive_procedure", "decision_var": 8.663346996007462, "response": "left", "rt": 0.303030082002806, "FB": 0, "quest_estimate": 8.71328455935392, "trial_time": 3.256839351000963}
{"FBDuration": 0.5, "FBonset": 0, "ITI": 0.0711459763008141, "displayFB": true, "onset": 185.31956721020515, "punishment_amount": 0, "responseWindow": 1.5, "reward_amount": 1, "stim": {"motionDirection": "out", "oriBase": 30, "oriDirection": 1, "oriStrength": 0.775, "speedDirection": 1, "speedStrength": 0.775, "speed_start": 0.12, "speed_end": 0.12377882460065043, "ori_start": 30, "ori_end": 38.66869577309083, "motion_direction": "out"}, "stimResponseInterval": 0.9959976966740229, "stimulusDuration": 1.5, "trial_count": 41, "ts": "orientation", "trial_type": "threshold_estimation", "exp_stage": "adaptive_procedure", "decision_var": 8.668695773090832, "response": "right", "rt": 0.35920264999731444, "FB": 1, "quest_estimate": 8.710651461934152, "trial_time": 3.3865240950035513}
{"FBDuration": 0.5, "FBonset": 0, "ITI": 0.8225974470290613, "displayFB": true, "onset": 189.88671088318, "punishment_amount": 0, "responseWindow": 1.5, "reward_amount": 1, "stim": {"motionDirection": "out", "oriBase": 30, "oriDirection": -1, "oriStrength": 0.775, "speedDirection": -1, "speedStrength": 0.775, "speed_start": 0.12, "speed_end": 0.11622117539934956, "ori_start": 30, "ori_end": 21.333212961466486, "motion_direction": "out"}, "stimResponseInterval": 0.40629559892364187, "stimulusDuration": 1.5, "trial_count": 42, "ts": "orientation", "trial_type": "threshold_estimation", "exp_stage": "adaptive_procedure", "decision_var": 8.666787038533514, "response": "left", "rt": 0.4442393719946267, "FB": 1, "quest_estimate": 8.708225000047964, "trial_time": 2.878074893997109}
{"FBDuration": 0.5, "FBonset": 0, "ITI": 0.7192744639153914, "displayFB": true, "onset": 194.6156039291327, "punishment_amount": 0, "responseWindow": 1.5, "reward_amount": 1, "stim": {"motionDirection": "out", "oriBase": 30, "oriDirection": 1, "oriStrength": 0.775, "speedDirection": -1, "speedStrength": 0.775, "speed_start": 0.12, "speed_end": 0.11622117539934956, "ori_start": 30, "ori_end": 38.665127017172026, "motion_direction": "out"}, "stimResponseInterval": 0.06562943510591923, "stimulusDuration": 1.5, "trial_count": 43, "ts": "orientation", "trial_type": "threshold_estimation", "exp_stage": "adaptive_procedure", "decision_var": 8.665127017172026, "response": "right", "rt": 0.4519427090053796, "FB": 1, "quest_estimate": 8.705969434132477, "trial_time": 2.5478708170048776}
{"FBDuration": 0.5, "FBonset": 0, "ITI": 0.5434244201448319, "displayFB": true, "onset": 198.90050782815402, "punishment_amount": 0, "responseWindow": 1.5, "reward_amount": 1, "stim": {"motionDirection": "in", "oriBase": -60, "oriDirection": 1, "oriStrength": 0.775, "speedDirection": 1, "speedStrength": 0.775, "speed_start": 0.12, "speed_end": 0.12377882460065043, "ori_start": -60, "ori_end": -51.3363362543625, "motion_direction": "in"}, "stimResponseInterval": 0.6297999474331637, "stimulusDuration": 1.5, "trial_count": 44, "ts": "orientation", "trial_type": "threshold_estimation", "exp_stage": "adaptive_procedure", "decision_var": 8.6636637456375, "response": "right", "rt": 0.07655007900029887, "FB": 1, "quest_estimate": 8.703846859739102, "trial_time": 2.7338499369943747}
{"FBDuration": 0.5, "FBonset": 0, "ITI": 0.27059296596570037, "displayFB": true, "onset": 203.57373219573202, "punishment_amount": 0, "responseWindow": 1.5, "reward_amount": 1, "stim": {"motionDirection": "in", "oriBase": 30, "oriDirection": 1, "oriStrength": 0.775, "speedDirection": 1, "speedStrength": 0.775, "speed_start": 0.12, "speed_end": 0.12377882460065043, "ori_start": 30, "ori_end": 38.66235184803432, "motion_direction": "in"}, "stimResponseInterval": 0.18260809763877528, "stimulusDuration": 1.5, "trial_count": 45, "ts": "orientation", "trial_type": "threshold_estimation", "exp_stage": "adaptive_procedure", "decision_var": 8.66235184803432, "response": "right", "rt": 0.5839975100025185, "FB": 1, "quest_estimate": 8.701818233673947, "trial_time": 2.802502775004541}
{"FBDuration": 0.5, "FBonset": 0, "ITI": 0.15715073259979895, "displayFB": true, "onset": 207.5269332593365, "punishment_amount": 0, "responseWindow": 1.5, "reward_amount": 1, "stim": {"motionDirection": "in", "oriBase": 30, "oriDirection": -1, "oriStrength": 0.775, "speedDirection": 1, "speedStrength": 0.775, "speed_start": 0.12, "speed_end": 0.12377882460065043, "ori_start": 30, "ori_end": 21.3388489545796, "motion_direction": "in"}, "stimResponseInterval": 0.9496183525121409, "stimulusDuration": 1.5, "trial_count": 46, "ts": "orientation", "trial_type": "threshold_estimation", "exp_stage": "adaptive_procedure", "decision_var": 8.6611510454204, "response": "left", "rt": 0.42752591199678136, "FB": 1, "quest_estimate": 8.699844148061548, "trial_time": 3.4095680090031237}
{"FBDuration": 0.5, "FBonset": 0, "ITI": 0.05387934078407475, "displayFB": true, "onset": 212.13370234444844, "punishment_amount": 0, "responseWindow": 1.5, "reward_amount": 1, "stim": {"motionDirection": "out", "oriBase": 30, "oriDirection": -1, "oriStrength": 0.775, "speedDirection": -1, "speedStrength": 0.775, "speed_start": 0.12, "speed_end": 0.11622117539934956, "ori_start": 30, "ori_end": 21.339975143561293, "motion_direction": "out"}, "stimResponseInterval": 0.5777043786536638, "stimulusDuration": 1.5, "trial_count": 47, "ts": "orientation", "trial_type": "threshold_estimation", "exp_stage": "adaptive_procedure", "decision_var": 8.660024856438707, "response": "left", "rt": 0.5447716170019703, "FB": 1, "quest_estimate": 8.697885417082407, "trial_time": 3.1626718990009977}
{"FBDuration": 0.5, "FBonset": 0, "ITI": 0.9273475568507221, "displayFB": true, "onset": 216.26528606388618, "punishment_amount": 0, "responseWindow": 1.5, "reward_amount": 1, "stim": {"motionDirection": "in", "oriBase": 30, "oriDirection": 1, "oriStrength": 0.775, "speedDirection": -1, "speedStrength": 0.775, "speed_start": 0.12, "speed_end": 0.11622117539934956, "ori_start": 30, "ori_end": 38.65893944164938, "motion_direction": "in"}, "stimResponseInterval": 0.760154964175813, "stimulusDuration": 1.5, "trial_count": 48, "ts": "orientation", "trial_type": "threshold_estimation", "exp_stage": "adaptive_procedure", "decision_var": 8.658939441649384, "response": "right", "rt": 0.5652866810050909, "FB": 1, "quest_estimate": 8.695903554745335, "trial_time": 3.349065468995832}
{"FBDuration": 0.5, "FBonset": 0, "ITI": 0.7256224930974782, "displayFB": true, "onset": 221.45278858491272, "punishment_amount": 0, "responseWindow": 1.5, "reward_amount": 1, "stim": {"motionDirection": "out", "oriBase": -60, "oriDirection": -1, "oriStrength": 0.775, "speedDirection": 1, "speedStrength": 0.775, "speed_start": 0.12, "speed_end": 0.12377882460065043, "ori_start": -60, "ori_end": -68.65786255080087, "motion_direction": "out"}, "stimResponseInterval": 0.1953441566131463, "stimulusDuration": 1.5, "trial_count": 49, "ts": "orientation", "trial_type": "threshold_estimation", "exp_stage": "adaptive_procedure", "decision_var": 8.657862550800871, "response": "left", "rt": 0.5800719460021355, "FB": 1, "quest_estimate": 8.693861225856459, "trial_time": 2.8094360969989793}
{"FBDuration": 0.5, "FBonset": 0, "ITI": 0.08818619514390558, "displayFB": true, "onset": 225.87375523462336, "punishment_amount": 0, "responseWindow": 1.5, "reward_amount": 1, "stim": {"motionDirection": "in", "oriBase": -60, "oriDirection": 1, "oriStrength": 0.775, "speedDirection": 1, "speedStrength": 0.775, "speed_start": 0.12, "speed_end": 0.12377882460065043, "ori_start": -60, "ori_end": -51.34323746283228, "motion_direction": "in"}, "stimResponseInterval": 0.16515812338345048, "stimulusDuration": 1.5, "trial_count": 50, "ts": "orientation", "trial_type": "threshold_estimation", "exp_stage": "adaptive_procedure", "decision_var": 8.656762537167726, "response": "right", "rt": 0.3790736709997873, "FB": 1, "quest_estimate": 8.69172274867335, "trial_time": 2.572347286994045}
{"FBDuration": 0.5, "FBonset": 0, "ITI": 0.19590192670274287, "displayFB": true, "onset": 229.6270995531507, "punishment_amount": 0, "responseWindow": 1.5, "reward_amount": 1, "stim": {"motionDirection": "in", "oriBase": 30, "oriDirection": -1, "oriStrength": 0.775, "speedDirection": 1, "speedStrength": 0.775, "speed_start": 0.12, "speed_end": 0.12377882460065043, "ori_start": 30, "ori_end": 21.344392593524198, "motion_direction": "in"}, "stimResponseInterval": 0.10358602574913955, "stimulusDuration": 1.5, "trial_count": 51, "ts": "orientation", "trial_type": "threshold_estimation", "exp_stage": "adaptive_procedure", "decision_var": 8.655607406475802, "response": "left", "rt": 0.4256408580040443, "FB": 1, "quest_estimate": 8.689454717511715, "trial_time": 2.55298851000407}
{"FBDuration": 0.5, "FBonset": 0, "ITI": 0.2607995491568955, "displayFB": true, "onset": 233.42658750560258, "punishment_amount": 0, "responseWindow": 1.5, "reward_amount": 1, "stim": {"motionDirection": "in", "oriBase": 30, "oriDirection": -1, "oriStrength": 0.775, "speedDirection": -1, "speedStrength": 0.775, "speed_start": 0.12, "speed_end": 0.11622117539934956, "ori_start": 30, "ori_end": 21.345636129948158, "motion_direction": "in"}, "stimResponseInterval": 0.25949904331516094, "stimulusDuration": 1.5, "trial_count": 52, "ts": "orientation", "trial_type": "threshold_estimation", "exp_stage": "adaptive_procedure", "decision_var": 8.654363870051842, "response": "left", "rt": 0.3765859939958318, "FB": 1, "quest_estimate": 8.687026796417978, "trial_time": 2.675769631001458}
{"FBDuration": 0.5, "FBonset": 0, "ITI": 0.4131204516860223, "displayFB": true, "onset": 237.44688609807463, "punishment_amount": 0, "responseWindow": 1.5, "reward_amount": 1, "stim": {"motionDirection": "out", "oriBase": 30, "oriDirection": -1, "oriStrength": 0.775, "speedDirection": 1, "speedStrength": 0.775, "speed_start": 0.12, "speed_end": 0.12377882460065043, "ori_start": 30, "ori_end": 21.3470036271747, "motion_direction": "out"}, "stimResponseInterval": 0.24051870781090856, "stimulusDuration": 1.5, "trial_count": 53, "ts": "orientation", "trial_type": "threshold_estimation", "exp_stage": "adaptive_procedure", "decision_var": 8.6529963728253, "response": "left", "rt": 0.44545460600056686, "FB": 1, "quest_estimate": 8.6844127097336, "trial_time": 2.721042293997016}
{"FBDuration": 0.5, "FBonset": 0, "ITI": 0.5634543253529234, "displayFB": true, "onset": 241.60052525757155, "punishment_amount": 0, "responseWindow": 1.5, "reward_amount": 1, "stim": {"motionDirection": "out", "oriBase": 30, "oriDirection": -1, "oriStrength": 0.775, "speedDirection": 1, "speedStrength": 0.775, "speed_start": 0.12, "speed_end": 0.12377882460065043, "ori_start": 30, "ori_end": 21.3485339332281, "motion_direction": "out"}, "stimResponseInterval": 0.13697806162759385, "stimulusDuration": 1.5, "trial_count": 54, "ts": "orientation", "trial_type": "threshold_estimation", "exp_stage": "adaptive_procedure", "decision_var": 8.6514660667719, "response": "right", "rt": 0.22660034200089285, "FB": 0, "quest_estimate": 8.695283377169009, "trial_time": 2.3929703399990103}
{"FBDuration": 0.5, "FBonset": 0, "ITI": 0.5044290120649426, "displayFB": true, "onset": 245.80095764455206, "punishment_amount": 0, "responseWindow": 1.5, "reward_amount": 1, "stim": {"motionDirection": "out", "oriBase": -60, "oriDirection": -1, "oriStrength": 0.775, "speedDirection": -1, "speedStrength": 0.775, "speed_start": 0.12, "speed_end": 0.11622117539934956, "ori_start": -60, "ori_end": -68.6573420926012, "motion_direction": "out"}, "stimResponseInterval": 0.3100974884699357, "stimulusDuration": 1.5, "trial_count": 55, "ts": "orientation", "trial_type": "threshold_estimation", "exp_stage": "adaptive_procedure", "decision_var": 8.65734209260119, "response": "left", "rt": 0.3428231159996358, "FB": 1, "quest_estimate": 8.693600933905216, "trial_time": 2.6808524189982563}
{"FBDuration": 0.5, "FBonset": 0, "ITI": 0.003131735354929721, "displayFB": true, "onset": 250.11548414508692, "punishment_amount": 0, "responseWindow": 1.5, "reward_amount": 1, "stim": {"motionDirection": "out", "oriBase": -60, "oriDirection": 1, "oriStrength": 0.775, "speedDirection": -1, "speedStrength": 0.775, "speed_start": 0.12, "speed_end": 0.11622117539934956, "ori_start": -60, "ori_end": -51.343531509824004, "motion_direction": "out"}, "stimResponseInterval": 0.08506401006981912, "stimulusDuration": 1.5, "trial_count": 56, "ts": "orientation", "trial_type": "threshold_estimation", "exp_stage": "adaptive_procedure", "decision_var": 8.656468490175996, "response": "right", "rt": 0.650202739998349, "FB": 1, "quest_estimate": 8.691803306030458, "trial_time": 2.7634226549998857}
{"FBDuration": 0.5, "FBonset": 0, "ITI": 0.6617812456532637, "displayFB": true, "onset": 253.70367989051167, "punishment_amount": 0, "responseWindow": 1.5, "reward_amount": 1, "stim": {"motionDirection": "out", "oriBase": -60, "oriDirection": -1, "oriStrength": 0.775, "speedDirection": 1, "speedStrength": 0.775, "speed_start": 0.12, "speed_end": 0.12377882460065043, "ori_start": -60, "ori_end": -68.65552911503795, "motion_direction": "out"}, "stimResponseInterval": 0.6367601010516912, "stimulusDuration": 1.5, "trial_count": 57, "ts": "orientation", "trial_type": "threshold_estimation", "exp_stage": "adaptive_procedure", "decision_var": 8.655529115037947, "response": "left", "rt": 0.35217748800641857, "FB": 1, "quest_estimate": 8.68986119398367, "trial_time": 3.028314181996393}
{"FBDuration": 0.5, "FBonset": 0, "ITI": 0.7968451331401516, "displayFB": true, "onset": 258.50222123721665, "punishment_amount": 0, "responseWindow": 1.5, "reward_amount": 1, "stim": {"motionDirection": "in", "oriBase": -60, "oriDirection": -1, "oriStrength": 0.775, "speedDirection": -1, "speedStrength": 0.775, "speed_start": 0.12, "speed_end": 0.11622117539934956, "ori_start": -60, "ori_end": -68.65449713260816, "motion_direction": "in"}, "stimResponseInterval": 0.03409829994695823, "stimulusDuration": 1.5, "trial_count": 58, "ts": "orientation", "trial_type": "threshold_estimation", "exp_stage": "adaptive_procedure", "decision_var": 8.65449713260815, "response": "left", "rt": 0.6842835960051161, "FB": 1, "quest_estimate": 8.6877472821581, "trial_time": 2.75717569799599}
{"FBDuration": 0.5, "FBonset": 0, "ITI": 0.9655807739496991, "displayFB": true, "onset": 262.83316467030374, "punishment_amount": 0, "responseWindow": 1.5, "reward_amount": 1, "stim": {"motionDirection": "out", "oriBase": 30, "oriDirection": 1, "oriStrength": 0.775, "speedDirection": -1, "speedStrength": 0.775, "speed_start": 0.12, "speed_end": 0.11622117539934956, "ori_start": 30, "ori_end": 38.653343247323846, "motion_direction": "out"}, "stimResponseInterval": 0.9688278512806607, "stimulusDuration": 1.5, "trial_count": 59, "ts": "orientation", "trial_type": "threshold_estimation", "exp_stage": "adaptive_procedure", "decision_var": 8.65334324732385, "response": "right", "rt": 0.2989141270008986, "FB": 1, "quest_estimate": 8.685437061099154, "trial_time": 3.308533784998872}
{"FBDuration": 0.5, "FBonset": 0, "ITI": 0.07985018286586243, "displayFB": true, "onset": 268.2675732955341, "punishment_amount": 0, "responseWindow": 1.5, "reward_amount": 1, "stim": {"motionDirection": "out", "oriBase": -60, "oriDirection": 1, "oriStrength": 0.775, "speedDirection": 1, "speedStrength": 0.775, "speed_start": 0.12, "speed_end": 0.12377882460065043, "ori_start": -60, "ori_end": -51.34796513352431, "motion_direction": "out"}, "stimResponseInterval": 0.2643196929667059, "stimulusDuration": 1.5, "trial_count": 60, "ts": "orientation", "trial_type": "threshold_estimation", "exp_stage": "adaptive_procedure", "decision_var": 8.652034866475692, "response": "right", "rt": 0.3782423669981654, "FB": 1, "quest_estimate": 8.682909879346827, "trial_time": 2.678980885000783}
{"FBDuration": 0.5, "FBonset": 0, "ITI": 0.0102514793651175, "displayFB": true, "onset": 272.11174317136664, "punishment_amount": 0, "responseWindow": 1.5, "reward_amount": 1, "stim": {"motionDirection": "out", "oriBase": -60, "oriDirection": 1, "oriStrength": 0.775, "speedDirection": -1, "speedStrength": 0.775, "speed_start": 0.12, "speed_end": 0.11622117539934956, "ori_start": -60, "ori_end": -51.34946482399165, "motion_direction": "out"}, "stimResponseInterval": 0.5280902279387201, "stimulusDuration": 1.5, "trial_count": 61, "ts": "orientation", "trial_type": "threshold_estimation", "exp_stage": "adaptive_procedure", "decision_var": 8.65053517600835, "response": "right", "rt": 0.3086180680038524, "FB": 1, "quest_estimate": 8.680150193021337, "trial_time": 2.8616459569966537}
{"FBDuration": 0.5, "FBonset": 0, "ITI": 0.014688052296888743, "displayFB": true, "onset": 276.1500848786705, "punishment_amount": 0, "responseWindow": 1.5, "reward_amount": 1, "stim": {"motionDirection": "in", "oriBase": -60, "oriDirection": 1, "oriStrength": 0.775, "speedDirection": -1, "speedStrength": 0.775, "speed_start": 0.12, "speed_end": 0.11622117539934956, "ori_start": -60, "ori_end": -51.35119789818175, "motion_direction": "in"}, "stimResponseInterval": 0.24303148303633904, "stimulusDuration": 1.5, "trial_count": 62, "ts": "orientation", "trial_type": "threshold_estimation", "exp_stage": "adaptive_procedure", "decision_var": 8.648802101818244, "response": "right", "rt": 0.37316101300530136, "FB": 1, "quest_estimate": 8.677039225485391, "trial_time": 2.6512215550028486}
{"FBDuration": 0.5, "FBonset": 0, "ITI": 0.5317599447976868, "displayFB": true, "onset": 279.90780441400375, "punishment_amount": 0, "responseWindow": 1.5, "reward_amount": 1, "stim": {"motionDirection": "out", "oriBase": -60, "oriDirection": -1, "oriStrength": 0.775, "speedDirection": -1, "speedStrength": 0.775, "speed_start": 0.12, "speed_end": 0.11622117539934956, "ori_start": -60, "ori_end": -68.64670836605356, "motion_direction": "out"}, "stimResponseInterval": 0.2775952577729275, "stimulusDuration": 1.5, "trial_count": 63, "ts": "orientation", "trial_type": "threshold_estimation", "exp_stage": "adaptive_procedure", "decision_var": 8.646708366053563, "response": "left", "rt": 0.3951104009975097, "FB": 1, "quest_estimate": 8.673649143452277, "trial_time": 2.6985996030052775}
{"FBDuration": 0.5, "FBonset": 0, "ITI": 0.2666073890861098, "displayFB": true, "onset": 284.21715961657435, "punishment_amount": 0, "responseWindow": 1.5, "reward_amount": 1, "stim": {"motionDirection": "out", "oriBase": -60, "oriDirection": 1, "oriStrength": 0.775, "speedDirection": -1, "speedStrength": 0.775, "speed_start": 0.12, "speed_end": 0.11622117539934956, "ori_start": -60, "ori_end": -51.35576704082775, "motion_direction": "out"}, "stimResponseInterval": 0.8531762056858052, "stimulusDuration": 1.5, "trial_count": 64, "ts": "orientation", "trial_type": "threshold_estimation", "exp_stage": "adaptive_procedure", "decision_var": 8.64423295917225, "response": "right", "rt": 0.3304503149993252, "FB": 1, "quest_estimate": 8.669992064585792, "trial_time": 3.216282825997041}
