{"FBDuration": 0.5, "FBonset": 0, "ITI": 0.020858016790758938, "displayFB": true, "onset": 2, "punishment_amount": 0, "responseWindow": 1.5, "reward_amount": 1, "stim": {"motionDirection": "in", "oriBase": -60, "oriDirection": 1, "oriStrength": 0.775, "speedDirection": 1, "speedStrength": 0.775, "speed_start": 0.12, "speed_end": 0.12963958376692086, "ori_start": -60, "ori_end": -51.44581151685129, "motion_direction": "in"}, "stimResponseInterval": 0.31700185476567266, "stimulusDuration": 1.5, "trial_count": 1, "ts": "motion", "trial_type": "threshold_estimation", "exp_stage": "adaptive_procedure", "decision_var": 0.009639583766920874, "response": "up", "rt": 0.5562831939896569, "FB": 1, "quest_estimate": 0.005947928549463896, "trial_time": 2.9089853129989933}
{"FBDuration": 0.5, "FBonset": 0, "ITI": 0.4590350658969987, "displayFB": true, "onset": 5.837859871556432, "punishment_amount": 0, "responseWindow": 1.5, "reward_amount": 1, "stim": {"motionDirection": "out", "oriBase": 30, "oriDirection": 1, "oriStrength": 0.775, "speedDirection": 1, "speedStrength": 0.775, "speed_start": 0.12, "speed_end": 0.1290392937657388, "ori_start": 30, "ori_end": 38.55418848314871, "motion_direction": "out"}, "stimResponseInterval": 0.6872176639048644, "stimulusDuration": 1.5, "trial_count": 2, "ts": "motion", "trial_type": "threshold_estimation", "exp_stage": "adaptive_procedure", "decision_var": 0.009039293765738803, "response": "down", "rt": 0.2921864439995261, "FB": 0, "quest_estimate": 0.00801945070095949, "trial_time": 3.0094698739994783}
{"FBDuration": 0.5, "FBonset": 0, "ITI": 0.4154460091591229, "displayFB": true, "onset": 10.484112601358294, "punishment_amount": 0, "responseWindow": 1.5, "reward_amount": 1, "stim": {"motionDirection": "out", "oriBase": 30, "oriDirection": 1, "oriStrength": 0.775, "speedDirection": 1, "speedStrength": 0.775, "speed_start": 0.12, "speed_end": 0.1317047402729235, "ori_start": 30, "ori_end": 38.55418848314871, "motion_direction": "out"}, "stimResponseInterval": 0.19768477940926021, "stimulusDuration": 1.5, "trial_count": 3, "ts": "motion", "trial_type": "intensity-85", "exp_stage": "adaptive_procedure", "decision_var": 0.011704740272923505, "response": "up", "rt": 0.30483157400158234, "FB": 1, "quest_estimate": 0.007426955818693612, "trial_time": 2.534373501999653}
{"FBDuration": 0.5, "FBonset": 0, "ITI": 0.09991119472318133, "displayFB": true, "onset": 14.597243389926678, "punishment_amount": 0, "responseWindow": 1.5, "reward_amount": 1, "stim": {"motionDirection": "in", "oriBase": -60, "oriDirection": 1, "oriStrength": 0.775, "speedDirection": 1, "speedStrength": 0.775, "speed_start": 0.12, "speed_end": 0.1259975294294136, "ori_start": -60, "ori_end": -51.44581151685129, "motion_direction": "in"}, "stimResponseInterval": 0.7813069006703985, "stimulusDuration": 1.5, "trial_count": 4, "ts": "motion", "trial_type": "intensity-70", "exp_stage": "adaptive_procedure", "decision_var": 0.005997529429413631, "response": "up", "rt": 0.28348443799768575, "FB": 1, "quest_estimate": 0.00683838592613311, "trial_time": 3.099368315000902}
{"FBDuration": 0.5, "FBonset": 0, "ITI": 0.6164812174013243, "displayFB": true, "onset": 18.97846148532026, "punishment_amount": 0, "responseWindow": 1.5, "reward_amount": 1, "stim": {"motionDirection": "out", "oriBase": 30, "oriDirection": -1, "oriStrength": 0.775, "speedDirection": 1, "speedStrength": 0.775, "speed_start": 0.12, "speed_end": 0.12992385635226789, "ori_start": 30, "ori_end": 21.44581151685129, "motion_direction": "out"}, "stimResponseInterval": 0.21181581304025554, "stimulusDuration": 1.5, "trial_count": 5, "ts": "motion", "trial_type": "threshold_estimation", "exp_stage": "adaptive_procedure", "decision_var": 0.009923856352267883, "response": "up", "rt": 0.34755122900241986, "FB": 1, "quest_estimate": 0.006255554818673147, "trial_time": 2.5938843219919363}
{"FBDuration": 0.5, "FBonset": 0, "ITI": 0.28915531792018845, "displayFB": true, "onset": 23.30675851576184, "punishment_amount": 0, "responseWindow": 1.5, "reward_amount": 1, "stim": {"motionDirection": "out", "oriBase": -60, "oriDirection": -1, "oriStrength": 0.775, "speedDirection": 1, "speedStrength": 0.775, "speed_start": 0.12, "speed_end": 0.1317047402729235, "ori_start": -60, "ori_end": -68.5541884831487, "motion_direction": "out"}, "stimResponseInterval": 0.08317803019792536, "stimulusDuration": 1.5, "trial_count": 6, "ts": "motion", "trial_type": "intensity-85", "exp_stage": "adaptive_procedure", "decision_var": 0.011704740272923505, "response": "up", "rt": 0.3622620179958176, "FB": 1, "quest_estimate": 0.005678193011432374, "trial_time": 2.483527657997911}
{"FBDuration": 0.5, "FBonset": 0, "ITI": 0.968304581695512, "displayFB": true, "onset": 27.179091863879954, "punishment_amount": 0, "responseWindow": 1.5, "reward_amount": 1, "stim": {"motionDirection": "out", "oriBase": 30, "oriDirection": 1, "oriStrength": 0.775, "speedDirection": -1, "speedStrength": 0.775, "speed_start": 0.12, "speed_end": 0.11125570355536284, "ori_start": 30, "ori_end": 38.55418848314871, "motion_direction": "out"}, "stimResponseInterval": 0.1621076019357871, "stimulusDuration": 1.5, "trial_count": 7, "ts": "motion", "trial_type": "threshold_estimation", "exp_stage": "adaptive_procedure", "decision_var": 0.008744296444637159, "response": "down", "rt": 0.35749113600468263, "FB": 1, "quest_estimate": 0.005104895906302372, "trial_time": 2.5506040489999577}
{"FBDuration": 0.5, "FBonset": 0, "ITI": 0.5952831400390937, "displayFB": true, "onset": 31.809504047511254, "punishment_amount": 0, "responseWindow": 1.5, "reward_amount": 1, "stim": {"motionDirection": "out", "oriBase": 30, "oriDirection": -1, "oriStrength": 0.775, "speedDirection": -1, "speedStrength": 0.775, "speed_start": 0.12, "speed_end": 0.11183872967577625, "ori_start": 30, "ori_end": 21.44581151685129, "motion_direction": "out"}, "stimResponseInterval": 0.7468604968399943, "stimulusDuration": 1.5, "trial_count": 8, "ts": "motion", "trial_type": "threshold_estimation", "exp_stage": "adaptive_procedure", "decision_var": 0.008161270324223743, "response": "down", "rt": 0.2570512350066565, "FB": 1, "quest_estimate": 0.004536272010626993, "trial_time": 3.036981844998081}
{"FBDuration": 0.5, "FBonset": 0, "ITI": 0.0065922701634827385, "displayFB": true, "onset": 36.65164768439034, "punishment_amount": 0, "responseWindow": 1.5, "reward_amount": 1, "stim": {"motionDirection": "in", "oriBase": -60, "oriDirection": 1, "oriStrength": 0.775, "speedDirection": -1, "speedStrength": 0.775, "speed_start": 0.12, "speed_end": 0.11241695782669309, "ori_start": -60, "ori_end": -51.44581151685129, "motion_direction": "in"}, "stimResponseInterval": 0.5214741098406228, "stimulusDuration": 1.5, "trial_count": 9, "ts": "motion", "trial_type": "threshold_estimation", "exp_stage": "adaptive_procedure", "decision_var": 0.007583042173306916, "response": "up", "rt": 0.24239122800645418, "FB": 0, "quest_estimate": 0.006533080252563488, "trial_time": 2.8027878669963684}
{"FBDuration": 0.5, "FBonset": 0, "ITI": 0.6141768919705826, "displayFB": true, "onset": 40.679714064394446, "punishment_amount": 0, "responseWindow": 1.5, "reward_amount": 1, "stim": {"motionDirection": "in", "oriBase": 30, "oriDirection": -1, "oriStrength": 0.775, "speedDirection": -1, "speedStrength": 0.775, "speed_start": 0.12, "speed_end": 0.11040678679758822, "ori_start": 30, "ori_end": 21.44581151685129, "motion_direction": "in"}, "stimResponseInterval": 0.8529695498897938, "stimulusDuration": 1.5, "trial_count": 10, "ts": "motion", "trial_type": "threshold_estimation", "exp_stage": "adaptive_procedure", "decision_var": 0.009593213202411764, "response": "down", "rt": 0.48597469700325746, "FB": 1, "quest_estimate": 0.005962248808315182, "trial_time": 3.3655594089941587}
{"FBDuration": 0.5, "FBonset": 0, "ITI": 0.11388170328381719, "displayFB": true, "onset": 45.646860506254825, "punishment_amount": 0, "responseWindow": 1.5, "reward_amount": 1, "stim": {"motionDirection": "out", "oriBase": 30, "oriDirection": 1, "oriStrength": 0.775, "speedDirection": -1, "speedStrength": 0.775, "speed_start": 0.12, "speed_end": 0.11400247057058636, "ori_start": 30, "ori_end": 38.55418848314871, "motion_direction": "out"}, "stimResponseInterval": 0.43345217388681956, "stimulusDuration": 1.5, "trial_count": 11, "ts": "motion", "trial_type": "intensity-70", "exp_stage": "adaptive_procedure", "decision_var": 0.005997529429413631, "response": "up", "rt": 0.28834490399458446, "FB": 0, "quest_estimate": 0.007919175907777874, "trial_time": 2.745531120992382}
{"FBDuration": 0.5, "FBonset": 0, "ITI": 0.11321392664456131, "displayFB": true, "onset": 49.69419438342546, "punishment_amount": 0, "responseWindow": 1.5, "reward_amount": 1, "stim": {"motionDirection": "in", "oriBase": -60, "oriDirection": -1, "oriStrength": 0.775, "speedDirection": 1, "speedStrength": 0.775, "speed_start": 0.12, "speed_end": 0.1394079457168544, "ori_start": -60, "ori_end": -68.5541884831487, "motion_direction": "in"}, "stimResponseInterval": 0.08487674643255838, "stimulusDuration": 1.5, "trial_count": 12, "ts": "motion", "trial_type": "intensity-95", "exp_stage": "adaptive_procedure", "decision_var": 0.019407945716854388, "response": "up", "rt": 0.38584664699737914, "FB": 1, "quest_estimate": 0.0073497074590126305, "trial_time": 2.495445288004703}
{"FBDuration": 0.5, "FBonset": 0, "ITI": 0.19995809139251852, "displayFB": true, "onset": 53.39228505650258, "punishment_amount": 0, "responseWindow": 1.5, "reward_amount": 1, "stim": {"motionDirection": "in", "oriBase": -60, "oriDirection": 1, "oriStrength": 0.775, "speedDirection": 1, "speedStrength": 0.775, "speed_start": 0.12, "speed_end": 0.13040297090936723, "ori_start": -60, "ori_end": -51.44581151685129, "motion_direction": "in"}, "stimResponseInterval": 0.09969051050318256, "stimulusDuration": 1.5, "trial_count": 13, "ts": "motion", "trial_type": "threshold_estimation", "exp_stage": "adaptive_procedure", "decision_var": 0.010402970909367232, "response": "up", "rt": 0.35047873100847937, "FB": 1, "quest_estimate": 0.0067816617012971606, "trial_time": 2.4755160109925782}
{"FBDuration": 0.5, "FBonset": 0, "ITI": 0.9843474677900264, "displayFB": true, "onset": 57.191933658398284, "punishment_amount": 0, "responseWindow": 1.5, "reward_amount": 1, "stim": {"motionDirection": "in", "oriBase": -60, "oriDirection": -1, "oriStrength": 0.775, "speedDirection": 1, "speedStrength": 0.775, "speed_start": 0.12, "speed_end": 0.12982576889857592, "ori_start": -60, "ori_end": -68.5541884831487, "motion_direction": "in"}, "stimResponseInterval": 0.36914556398667675, "stimulusDuration": 1.5, "trial_count": 14, "ts": "motion", "trial_type": "threshold_estimation", "exp_stage": "adaptive_procedure", "decision_var": 0.009825768898575914, "response": "up", "rt": 0.2771855860046344, "FB": 1, "quest_estimate": 0.006218166659196944, "trial_time": 2.671013061000849}
{"FBDuration": 0.5, "FBonset": 0, "ITI": 0.7993263497892555, "displayFB": true, "onset": 62.045426690174985, "punishment_amount": 0, "responseWindow": 1.5, "reward_amount": 1, "stim": {"motionDirection": "out", "oriBase": -60, "oriDirection": -1, "oriStrength": 0.775, "speedDirection": -1, "speedStrength": 0.775, "speed_start": 0.12, "speed_end": 0.11074689001502593, "ori_start": -60, "ori_end": -68.5541884831487, "motion_direction": "out"}, "stimResponseInterval": 0.9272021150790324, "stimulusDuration": 1.5, "trial_count": 15, "ts": "motion", "trial_type": "threshold_estimation", "exp_stage": "adaptive_procedure", "decision_var": 0.00925310998497407, "response": "up", "rt": 0.2165485000004992, "FB": 0, "quest_estimate": 0.008196202401772379, "trial_time": 3.18051402499259}
{"FBDuration": 0.5, "FBonset": 0, "ITI": 0.5354080613325571, "displayFB": true, "onset": 67.27195515504327, "punishment_amount": 0, "responseWindow": 1.5, "reward_amount": 1, "stim": {"motionDirection": "out", "oriBase": 30, "oriDirection": -1, "oriStrength": 0.775, "speedDirection": -1, "speedStrength": 0.775, "speed_start": 0.12, "speed_end": 0.10875725922726691, "ori_start": 30, "ori_end": 21.44581151685129, "motion_direction": "out"}, "stimResponseInterval": 0.8395316540418944, "stimulusDuration": 1.5, "trial_count": 16, "ts": "motion", "trial_type": "threshold_estimation", "exp_stage": "adaptive_procedure", "decision_var": 0.011242740772733087, "response": "down", "rt": 0.2924056459887652, "FB": 1, "quest_estimate": 0.007630663474062702, "trial_time": 3.1573554200003855}
{"FBDuration": 0.5, "FBonset": 0, "ITI": 0.9004344727953308, "displayFB": true, "onset": 72.14689487041773, "punishment_amount": 0, "responseWindow": 1.5, "reward_amount": 1, "stim": {"motionDirection": "in", "oriBase": -60, "oriDirection": 1, "oriStrength": 0.775, "speedDirection": -1, "speedStrength": 0.775, "speed_start": 0.12, "speed_end": 0.1093317270734397, "ori_start": -60, "ori_end": -51.44581151685129, "motion_direction": "in"}, "stimResponseInterval": 0.048907335749505454, "stimulusDuration": 1.5, "trial_count": 17, "ts": "motion", "trial_type": "threshold_estimation", "exp_stage": "adaptive_procedure", "decision_var": 0.010668272926560293, "response": "up", "rt": 0.45339718999457546, "FB": 0, "quest_estimate": 0.009614839623810795, "trial_time": 2.53322230699996}
{"FBDuration": 0.5, "FBonset": 0, "ITI": 0.458560124178515, "displayFB": true, "onset": 76.59623667896255, "punishment_amount": 0, "responseWindow": 1.5, "reward_amount": 1, "stim": {"motionDirection": "out", "oriBase": 30, "oriDirection": -1, "oriStrength": 0.775, "speedDirection": -1, "speedStrength": 0.775, "speed_start": 0.12, "speed_end": 0.10733684187489251, "ori_start": 30, "ori_end": 21.44581151685129, "motion_direction": "out"}, "stimResponseInterval": 0.8144051056573667, "stimulusDuration": 1.5, "trial_count": 18, "ts": "motion", "trial_type": "threshold_estimation", "exp_stage": "adaptive_procedure", "decision_var": 0.012663158125107495, "response": "down", "rt": 0.21213902599993162, "FB": 1, "quest_estimate": 0.00904735291550695, "trial_time": 3.0573546689993236}
{"FBDuration": 0.5, "FBonset": 0, "ITI": 0.9672189612425464, "displayFB": true, "onset": 81.36920190879843, "punishment_amount": 0, "responseWindow": 1.5, "reward_amount": 1, "stim": {"motionDirection": "in", "oriBase": 30, "oriDirection": -1, "oriStrength": 0.775, "speedDirection": 1, "speedStrength": 0.775, "speed_start": 0.12, "speed_end": 0.13208691736414863, "ori_start": 30, "ori_end": 21.44581151685129, "motion_direction": "in"}, "stimResponseInterval": 0.6451153155691931, "stimulusDuration": 1.5, "trial_count": 19, "ts": "motion", "trial_type": "threshold_estimation", "exp_stage": "adaptive_procedure", "decision_var": 0.012086917364148624, "response": "up", "rt": 0.24777055499725975, "FB": 1, "quest_estimate": 0.00848439739534397, "trial_time": 2.932865208000294}
{"FBDuration": 0.5, "FBonset": 0, "ITI": 0.9888851933918761, "displayFB": true, "onset": 86.48153618561017, "punishment_amount": 0, "responseWindow": 1.5, "reward_amount": 1, "stim": {"motionDirection": "out", "oriBase": 30, "oriDirection": -1, "oriStrength": 0.775, "speedDirection": -1, "speedStrength": 0.775, "speed_start": 0.12, "speed_end": 0.10848477767609535, "ori_start": 30, "ori_end": 21.44581151685129, "motion_direction": "out"}, "stimResponseInterval": 0.45117939519608286, "stimulusDuration": 1.5, "trial_count": 20, "ts": "motion", "trial_type": "threshold_estimation", "exp_stage": "adaptive_procedure", "decision_var": 0.011515222323904645, "response": "down", "rt": 0.3085357620002469, "FB": 1, "quest_estimate": 0.007925829968691477, "trial_time": 2.7849647600087337}
{"FBDuration": 0.5, "FBonset": 0, "ITI": 0.37976320947710385, "displayFB": true, "onset": 91.42160077419813, "punishment_amount": 0, "responseWindow": 1.5, "reward_amount": 1, "stim": {"motionDirection": "in", "oriBase": -60, "oriDirection": 1, "oriStrength": 0.775, "speedDirection": 1, "speedStrength": 0.775, "speed_start": 0.12, "speed_end": 0.1394079457168544, "ori_start": -60, "ori_end": -51.44581151685129, "motion_direction": "in"}, "stimResponseInterval": 0.6136726838868478, "stimulusDuration": 1.5, "trial_count": 21, "ts": "motion", "trial_type": "intensity-95", "exp_stage": "adaptive_procedure", "decision_var": 0.019407945716854388, "response": "up", "rt": 0.30715054699976463, "FB": 1, "quest_estimate": 0.007374869805649269, "trial_time": 2.954481870998279}
{"FBDuration": 0.5, "FBonset": 0, "ITI": 0.7871037469486031, "displayFB": true, "onset": 95.91503666756208, "punishment_amount": 0, "responseWindow": 1.5, "reward_amount": 1, "stim": {"motionDirection": "in", "oriBase": 30, "oriDirection": 1, "oriStrength": 0.775, "speedDirection": -1, "speedStrength": 0.775, "speed_start": 0.12, "speed_end": 0.1096118705910099, "ori_start": 30, "ori_end": 38.55418848314871, "motion_direction": "in"}, "stimResponseInterval": 0.07629328412925518, "stimulusDuration": 1.5, "trial_count": 22, "ts": "motion", "trial_type": "threshold_estimation", "exp_stage": "adaptive_procedure", "decision_var": 0.010388129408990102, "response": "down", "rt": 0.40492768300464377, "FB": 1, "quest_estimate": 0.006825109393560201, "trial_time": 2.519161335992976}
{"FBDuration": 0.5, "FBonset": 0, "ITI": 0.10411132493608788, "displayFB": true, "onset": 100.27843369863993, "punishment_amount": 0, "responseWindow": 1.5, "reward_amount": 1, "stim": {"motionDirection": "in", "oriBase": 30, "oriDirection": 1, "oriStrength": 0.775, "speedDirection": -1, "speedStrength": 0.775, "speed_start": 0.12, "speed_end": 0.11017030518492146, "ori_start": 30, "ori_end": 38.55418848314871, "motion_direction": "in"}, "stimResponseInterval": 0.3617272442977668, "stimulusDuration": 1.5, "trial_count": 23, "ts": "motion", "trial_type": "threshold_estimation", "exp_stage": "adaptive_procedure", "decision_var": 0.009829694815078532, "response": "up", "rt": 0.26002583900117315, "FB": 0, "quest_estimate": 0.008754228518290379, "trial_time": 2.645274162001442}
{"FBDuration": 0.5, "FBonset": 0, "ITI": 0.6968308032500063, "displayFB": true, "onset": 104.24427226787378, "punishment_amount": 0, "responseWindow": 1.5, "reward_amount": 1, "stim": {"motionDirection": "in", "oriBase": -60, "oriDirection": 1, "oriStrength": 0.775, "speedDirection": -1, "speedStrength": 0.775, "speed_start": 0.12, "speed_end": 0.10829525972707649, "ori_start": -60, "ori_end": -51.44581151685129, "motion_direction": "in"}, "stimResponseInterval": 0.5038182034740908, "stimulusDuration": 1.5, "trial_count": 24, "ts": "motion", "trial_type": "intensity-85", "exp_stage": "adaptive_procedure", "decision_var": 0.011704740272923505, "response": "down", "rt": 0.3216141339944443, "FB": 1, "quest_estimate": 0.008202591797106563, "trial_time": 2.865177663989016}
{"FBDuration": 0.5, "FBonset": 0, "ITI": 0.767289993717623, "displayFB": true, "onset": 108.94492127459787, "punishment_amount": 0, "responseWindow": 1.5, "reward_amount": 1, "stim": {"motionDirection": "in", "oriBase": 30, "oriDirection": 1, "oriStrength": 0.775, "speedDirection": 1, "speedStrength": 0.775, "speed_start": 0.12, "speed_end": 0.13120914397356231, "ori_start": 30, "ori_end": 38.55418848314871, "motion_direction": "in"}, "stimResponseInterval": 0.5544853560840108, "stimulusDuration": 1.5, "trial_count": 25, "ts": "motion", "trial_type": "threshold_estimation", "exp_stage": "adaptive_procedure", "decision_var": 0.011209143973562326, "response": "up", "rt": 0.267628749992582, "FB": 1, "quest_estimate": 0.007655220335770742, "trial_time": 2.8600703670090297}
{"FBDuration": 0.5, "FBonset": 0, "ITI": 0.7184089421551372, "displayFB": true, "onset": 113.76669662439951, "punishment_amount": 0, "responseWindow": 1.5, "reward_amount": 1, "stim": {"motionDirection": "out", "oriBase": -60, "oriDirection": -1, "oriStrength": 0.775, "speedDirection": 1, "speedStrength": 0.775, "speed_start": 0.12, "speed_end": 0.13065327460326576, "ori_start": -60, "ori_end": -68.5541884831487, "motion_direction": "out"}, "stimResponseInterval": 0.19754642052463123, "stimulusDuration": 1.5, "trial_count": 26, "ts": "motion", "trial_type": "threshold_estimation", "exp_stage": "adaptive_procedure", "decision_var": 0.010653274603265775, "response": "up", "rt": 0.2824211069964804, "FB": 1, "quest_estimate": 0.007112046223650581, "trial_time": 2.5102116850030143}
{"FBDuration": 0.5, "FBonset": 0, "ITI": 0.6038935027326924, "displayFB": true, "onset": 118.18265198707928, "punishment_amount": 0, "responseWindow": 1.5, "reward_amount": 1, "stim": {"motionDirection": "out", "oriBase": -60, "oriDirection": 1, "oriStrength": 0.775, "speedDirection": 1, "speedStrength": 0.775, "speed_start": 0.12, "speed_end": 0.13010163179244563, "ori_start": -60, "ori_end": -51.44581151685129, "motion_direction": "out"}, "stimResponseInterval": 0.5597763290667896, "stimulusDuration": 1.5, "trial_count": 27, "ts": "motion", "trial_type": "threshold_estimation", "exp_stage": "adaptive_procedure", "decision_var": 0.010101631792445644, "response": "down", "rt": 0.2302336160064442, "FB": 0, "quest_estimate": 0.009017951170626426, "trial_time": 2.8205472190020373}
{"FBDuration": 0.5, "FBonset": 0, "ITI": 0.8487762833015491, "displayFB": true, "onset": 122.84632181887876, "punishment_amount": 0, "responseWindow": 1.5, "reward_amount": 1, "stim": {"motionDirection": "in", "oriBase": 30, "oriDirection": -1, "oriStrength": 0.775, "speedDirection": -1, "speedStrength": 0.775, "speed_start": 0.12, "speed_end": 0.1005920542831456, "ori_start": 30, "ori_end": 21.44581151685129, "motion_direction": "in"}, "stimResponseInterval": 0.6383776847166986, "stimulusDuration": 1.5, "trial_count": 28, "ts": "motion", "trial_type": "intensity-95", "exp_stage": "adaptive_procedure", "decision_var": 0.019407945716854388, "response": "down", "rt": 0.29274538300524, "FB": 1, "quest_estimate": 0.00847563123083718, "trial_time": 2.9624871229898417}
{"FBDuration": 0.5, "FBonset": 0, "ITI": 0.6283661954767681, "displayFB": true, "onset": 127.83347578689701, "punishment_amount": 0, "responseWindow": 1.5, "reward_amount": 1, "stim": {"motionDirection": "in", "oriBase": 30, "oriDirection": 1, "oriStrength": 0.775, "speedDirection": 1, "speedStrength": 0.775, "speed_start": 0.12, "speed_end": 0.13146679294191038, "ori_start": 30, "ori_end": 38.55418848314871, "motion_direction": "in"}, "stimResponseInterval": 0.9693113979996233, "stimulusDuration": 1.5, "trial_count": 29, "ts": "motion", "trial_type": "threshold_estimation", "exp_stage": "adaptive_procedure", "decision_var": 0.0114667929419104, "response": "up", "rt": 0.2474787740065949, "FB": 1, "quest_estimate": 0.007934907056464505, "trial_time": 3.242962231001002}
{"FBDuration": 0.5, "FBonset": 0, "ITI": 0.1732943364179087, "displayFB": true, "onset": 132.93115338037342, "punishment_amount": 0, "responseWindow": 1.5, "reward_amount": 1, "stim": {"motionDirection": "out", "oriBase": 30, "oriDirection": 1, "oriStrength": 0.775, "speedDirection": -1, "speedStrength": 0.775, "speed_start": 0.12, "speed_end": 0.10908224319129423, "ori_start": 30, "ori_end": 38.55418848314871, "motion_direction": "out"}, "stimResponseInterval": 0.6991316254142252, "stimulusDuration": 1.5, "trial_count": 30, "ts": "motion", "trial_type": "threshold_estimation", "exp_stage": "adaptive_procedure", "decision_var": 0.010917756808705777, "response": "down", "rt": 0.32893414099817164, "FB": 1, "quest_estimate": 0.007398272074032, "trial_time": 3.054192260999116}
{"FBDuration": 0.5, "FBonset": 0, "ITI": 0.34689806246544563, "displayFB": true, "onset": 137.30357934220555, "punishment_amount": 0, "responseWindow": 1.5, "reward_amount": 1, "stim": {"motionDirection": "out", "oriBase": -60, "oriDirection": 1, "oriStrength": 0.775, "speedDirection": -1, "speedStrength": 0.775, "speed_start": 0.12, "speed_end": 0.10962715320317995, "ori_start": -60, "ori_end": -51.44581151685129, "motion_direction": "out"}, "stimResponseInterval": 0.6950434356064576, "stimulusDuration": 1.5, "trial_count": 31, "ts": "motion", "trial_type": "threshold_estimation", "exp_stage": "adaptive_procedure", "decision_var": 0.010372846796820046, "response": "down", "rt": 0.2407267769885948, "FB": 1, "quest_estimate": 0.00686566222054584, "trial_time": 2.971534519994748}
{"FBDuration": 0.5, "FBonset": 0, "ITI": 0.9936253627890386, "displayFB": true, "onset": 141.84552084027746, "punishment_amount": 0, "responseWindow": 1.5, "reward_amount": 1, "stim": {"motionDirection": "out", "oriBase": 30, "oriDirection": -1, "oriStrength": 0.775, "speedDirection": 1, "speedStrength": 0.775, "speed_start": 0.12, "speed_end": 0.12314378685249251, "ori_start": 30, "ori_end": 21.44581151685129, "motion_direction": "out"}, "stimResponseInterval": 0.6227610025691379, "stimulusDuration": 1.5, "trial_count": 32, "ts": "motion", "trial_type": "intensity-60", "exp_stage": "adaptive_procedure", "decision_var": 0.0031437868524925214, "response": "up", "rt": 0.27104579799924977, "FB": 1, "quest_estimate": 0.006336029551775674, "trial_time": 2.9192832770058885}
{"FBDuration": 0.5, "FBonset": 0, "ITI": 0.19608909538003494, "displayFB": true, "onset": 146.96190720563564, "punishment_amount": 0, "responseWindow": 1.5, "reward_amount": 1, "stim": {"motionDirection": "in", "oriBase": 30, "oriDirection": -1, "oriStrength": 0.775, "speedDirection": -1, "speedStrength": 0.775, "speed_start": 0.12, "speed_end": 0.11685621314750748, "ori_start": 30, "ori_end": 21.44581151685129, "motion_direction": "in"}, "stimResponseInterval": 0.7510148633658988, "stimulusDuration": 1.5, "trial_count": 33, "ts": "motion", "trial_type": "intensity-60", "exp_stage": "adaptive_procedure", "decision_var": 0.0031437868524925214, "response": "up", "rt": 0.29524453400517814, "FB": 0, "quest_estimate": 0.008102307567271656, "trial_time": 3.070847616007086}
{"FBDuration": 0.5, "FBonset": 0, "ITI": 0.9681280289825975, "displayFB": true, "onset": 151.40901116438158, "punishment_amount": 0, "responseWindow": 1.5, "reward_amount": 1, "stim": {"motionDirection": "out", "oriBase": -60, "oriDirection": -1, "oriStrength": 0.775, "speedDirection": -1, "speedStrength": 0.775, "speed_start": 0.12, "speed_end": 0.11400247057058636, "ori_start": -60, "ori_end": -68.5541884831487, "motion_direction": "out"}, "stimResponseInterval": 0.37205189636666813, "stimulusDuration": 1.5, "trial_count": 34, "ts": "motion", "trial_type": "intensity-70", "exp_stage": "adaptive_procedure", "decision_var": 0.005997529429413631, "response": "down", "rt": 0.3327806859888369, "FB": 1, "quest_estimate": 0.0075713082724586725, "trial_time": 2.730113302997779}
{"FBDuration": 0.5, "FBonset": 0, "ITI": 0.6978523312592597, "displayFB": true, "onset": 156.24919108973086, "punishment_amount": 0, "responseWindow": 1.5, "reward_amount": 1, "stim": {"motionDirection": "in", "oriBase": -60, "oriDirection": -1, "oriStrength": 0.775, "speedDirection": -1, "speedStrength": 0.775, "speed_start": 0.12, "speed_end": 0.1094691333654059, "ori_start": -60, "ori_end": -68.5541884831487, "motion_direction": "in"}, "stimResponseInterval": 0.8118374866373577, "stimulusDuration": 1.5, "trial_count": 35, "ts": "motion", "trial_type": "threshold_estimation", "exp_stage": "adaptive_procedure", "decision_var": 0.0105308666345941, "response": "down", "rt": 0.12892359700344969, "FB": 1, "quest_estimate": 0.007045044968090428, "trial_time": 2.9745520959986607}
{"FBDuration": 0.5, "FBonset": 0, "ITI": 0.3091918647857713, "displayFB": true, "onset": 161.25888090762749, "punishment_amount": 0, "responseWindow": 1.5, "reward_amount": 1, "stim": {"motionDirection": "out", "oriBase": -60, "oriDirection": 1, "oriStrength": 0.775, "speedDirection": 1, "speedStrength": 0.775, "speed_start": 0.12, "speed_end": 0.12999651743968269, "ori_start": -60, "ori_end": -51.44581151685129, "motion_direction": "out"}, "stimResponseInterval": 0.5539019492709949, "stimulusDuration": 1.5, "trial_count": 36, "ts": "motion", "trial_type": "threshold_estimation", "exp_stage": "adaptive_procedure", "decision_var": 0.009996517439682683, "response": "up", "rt": 0.27549825300229713, "FB": 1, "quest_estimate": 0.006522647120097924, "trial_time": 2.8684139190008864}
{"FBDuration": 0.5, "FBonset": 0, "ITI": 0.8676456612878582, "displayFB": true, "onset": 165.62197472168424, "punishment_amount": 0, "responseWindow": 1.5, "reward_amount": 1, "stim": {"motionDirection": "out", "oriBase": -60, "oriDirection": -1, "oriStrength": 0.775, "speedDirection": 1, "speedStrength": 0.775, "speed_start": 0.12, "speed_end": 0.12946605566825606, "ori_start": -60, "ori_end": -68.5541884831487, "motion_direction": "out"}, "stimResponseInterval": 0.17028044843994328, "stimulusDuration": 1.5, "trial_count": 37, "ts": "motion", "trial_type": "threshold_estimation", "exp_stage": "adaptive_procedure", "decision_var": 0.00946605566825607, "response": "up", "rt": 0.37001375399995595, "FB": 1, "quest_estimate": 0.006004056173885712, "trial_time": 2.5802418620005483}
{"FBDuration": 0.5, "FBonset": 0, "ITI": 0.6727431050945758, "displayFB": true, "onset": 170.15990083141205, "punishment_amount": 0, "responseWindow": 1.5, "reward_amount": 1, "stim": {"motionDirection": "out", "oriBase": -60, "oriDirection": -1, "oriStrength": 0.775, "speedDirection": -1, "speedStrength": 0.775, "speed_start": 0.12, "speed_end": 0.11106058286768189, "ori_start": -60, "ori_end": -68.5541884831487, "motion_direction": "out"}, "stimResponseInterval": 0.37288531655073676, "stimulusDuration": 1.5, "trial_count": 38, "ts": "motion", "trial_type": "threshold_estimation", "exp_stage": "adaptive_procedure", "decision_var": 0.008939417132318113, "response": "down", "rt": 0.28867951000574976, "FB": 1, "quest_estimate": 0.005489215437794688, "trial_time": 2.6958090770058334}
{"FBDuration": 0.5, "FBonset": 0, "ITI": 0.8799848101620926, "displayFB": true, "onset": 174.70552925305736, "punishment_amount": 0, "responseWindow": 1.5, "reward_amount": 1, "stim": {"motionDirection": "out", "oriBase": 30, "oriDirection": -1, "oriStrength": 0.775, "speedDirection": 1, "speedStrength": 0.775, "speed_start": 0.12, "speed_end": 0.1317047402729235, "ori_start": 30, "ori_end": 21.44581151685129, "motion_direction": "out"}, "stimResponseInterval": 0.7092453099857141, "stimulusDuration": 1.5, "trial_count": 39, "ts": "motion", "trial_type": "intensity-85", "exp_stage": "adaptive_procedure", "decision_var": 0.011704740272923505, "response": "up", "rt": 0.2274438540043775, "FB": 1, "quest_estimate": 0.004978957301037229, "trial_time": 2.9746579979982926}
{"FBDuration": 0.5, "FBonset": 0, "ITI": 0.3755549947035841, "displayFB": true, "onset": 179.79475937320518, "punishment_amount": 0, "responseWindow": 1.5, "reward_amount": 1, "stim": {"motionDirection": "in", "oriBase": 30, "oriDirection": -1, "oriStrength": 0.775, "speedDirection": 1, "speedStrength": 0.775, "speed_start": 0.12, "speed_end": 0.1317047402729235, "ori_start": 30, "ori_end": 21.44581151685129, "motion_direction": "in"}, "stimResponseInterval": 0.28294651706908824, "stimulusDuration": 1.5, "trial_count": 40, "ts": "motion", "trial_type": "intensity-85", "exp_stage": "adaptive_procedure", "decision_var": 0.011704740272923505, "response": "up", "rt": 0.37962223301292397, "FB": 1, "quest_estimate": 0.004472544233636314, "trial_time": 2.6919290270016063}
{"FBDuration": 0.5, "FBonset": 0, "ITI": 0.41968592983998165, "displayFB": true, "onset": 183.95326088497785, "punishment_amount": 0, "responseWindow": 1.5, "reward_amount": 1, "stim": {"motionDirection": "out", "oriBase": -60, "oriDirection": 1, "oriStrength": 0.775, "speedDirection": -1, "speedStrength": 0.775, "speed_start": 0.12, "speed_end": 0.11261617905665999, "ori_start": -60, "ori_end": -51.44581151685129, "motion_direction": "out"}, "stimResponseInterval": 0.5397625564836057, "stimulusDuration": 1.5, "trial_count": 41, "ts": "motion", "trial_type": "threshold_estimation", "exp_stage": "adaptive_procedure", "decision_var": 0.007383820943340003, "response": "up", "rt": 0.2640771790029248, "FB": 0, "quest_estimate": 0.006252850072752163, "trial_time": 2.8400833679916104}
{"FBDuration": 0.5, "FBonset": 0, "ITI": 0.9247306056751587, "displayFB": true, "onset": 188.41270937130145, "punishment_amount": 0, "responseWindow": 1.5, "reward_amount": 1, "stim": {"motionDirection": "in", "oriBase": 30, "oriDirection": 1, "oriStrength": 0.775, "speedDirection": 1, "speedStrength": 0.775, "speed_start": 0.12, "speed_end": 0.12917399080936964, "ori_start": 30, "ori_end": 38.55418848314871, "motion_direction": "in"}, "stimResponseInterval": 0.6630280394107937, "stimulusDuration": 1.5, "trial_count": 42, "ts": "motion", "trial_type": "threshold_estimation", "exp_stage": "adaptive_procedure", "decision_var": 0.009173990809369661, "response": "down", "rt": 0.25978077699255664, "FB": 0, "quest_estimate": 0.00805294330903275, "trial_time": 2.948427580995485}
{"FBDuration": 0.5, "FBonset": 0, "ITI": 0.9837116348043977, "displayFB": true, "onset": 193.5004680163874, "punishment_amount": 0, "responseWindow": 1.5, "reward_amount": 1, "stim": {"motionDirection": "in", "oriBase": 30, "oriDirection": -1, "oriStrength": 0.775, "speedDirection": 1, "speedStrength": 0.775, "speed_start": 0.12, "speed_end": 0.13098334526493763, "ori_start": 30, "ori_end": 21.44581151685129, "motion_direction": "in"}, "stimResponseInterval": 0.3320044414488911, "stimulusDuration": 1.5, "trial_count": 43, "ts": "motion", "trial_type": "threshold_estimation", "exp_stage": "adaptive_procedure", "decision_var": 0.01098334526493764, "response": "up", "rt": 0.26171728200279176, "FB": 1, "quest_estimate": 0.007538717208611073, "trial_time": 2.631347836999339}
{"FBDuration": 0.5, "FBonset": 0, "ITI": 0.5227161410919421, "displayFB": true, "onset": 198.3161840926407, "punishment_amount": 0, "responseWindow": 1.5, "reward_amount": 1, "stim": {"motionDirection": "out", "oriBase": -60, "oriDirection": -1, "oriStrength": 0.775, "speedDirection": -1, "speedStrength": 0.775, "speed_start": 0.12, "speed_end": 0.10953864555475226, "ori_start": -60, "ori_end": -68.5541884831487, "motion_direction": "out"}, "stimResponseInterval": 0.30352207994713454, "stimulusDuration": 1.5, "trial_count": 44, "ts": "motion", "trial_type": "threshold_estimation", "exp_stage": "adaptive_procedure", "decision_var": 0.010461354445247727, "response": "down", "rt": 0.2804951760044787, "FB": 1, "quest_estimate": 0.007028231847990965, "trial_time": 2.6188818800001172}
{"FBDuration": 0.5, "FBonset": 0, "ITI": 0.18169090077670647, "displayFB": true, "onset": 202.6424223136798, "punishment_amount": 0, "responseWindow": 1.5, "reward_amount": 1, "stim": {"motionDirection": "in", "oriBase": 30, "oriDirection": -1, "oriStrength": 0.775, "speedDirection": 1, "speedStrength": 0.775, "speed_start": 0.12, "speed_end": 0.1394079457168544, "ori_start": 30, "ori_end": 21.44581151685129, "motion_direction": "in"}, "stimResponseInterval": 0.9176037053236497, "stimulusDuration": 1.5, "trial_count": 45, "ts": "motion", "trial_type": "intensity-95", "exp_stage": "adaptive_procedure", "decision_var": 0.019407945716854388, "response": "up", "rt": 0.24551789899123833, "FB": 1, "quest_estimate": 0.006524746559328241, "trial_time": 3.187723458002438}
{"FBDuration": 0.5, "FBonset": 0, "ITI": 0.5247792109742786, "displayFB": true, "onset": 207.24171691978015, "punishment_amount": 0, "responseWindow": 1.5, "reward_amount": 1, "stim": {"motionDirection": "in", "oriBase": -60, "oriDirection": -1, "oriStrength": 0.775, "speedDirection": 1, "speedStrength": 0.775, "speed_start": 0.12, "speed_end": 0.1294317592688262, "ori_start": -60, "ori_end": -68.5541884831487, "motion_direction": "in"}, "stimResponseInterval": 0.20793041203799179, "stimulusDuration": 1.5, "trial_count": 46, "ts": "motion", "trial_type": "threshold_estimation", "exp_stage": "adaptive_procedure", "decision_var": 0.009431759268826202, "response": "up", "rt": 0.44783309700142127, "FB": 1, "quest_estimate": 0.0060215634550690594, "trial_time": 2.6952227680012584}
{"FBDuration": 0.5, "FBonset": 0, "ITI": 0.9139956651589887, "displayFB": true, "onset": 211.47442654279243, "punishment_amount": 0, "responseWindow": 1.5, "reward_amount": 1, "stim": {"motionDirection": "in", "oriBase": 30, "oriDirection": 1, "oriStrength": 0.775, "speedDirection": -1, "speedStrength": 0.775, "speed_start": 0.12, "speed_end": 0.11685621314750748, "ori_start": 30, "ori_end": 38.55418848314871, "motion_direction": "in"}, "stimResponseInterval": 0.5856323033193158, "stimulusDuration": 1.5, "trial_count": 47, "ts": "motion", "trial_type": "intensity-60", "exp_stage": "adaptive_procedure", "decision_var": 0.0031437868524925214, "response": "up", "rt": 0.2942990559968166, "FB": 0, "quest_estimate": 0.007707222817580177, "trial_time": 2.9190054509963375}
{"FBDuration": 0.5, "FBonset": 0, "ITI": 0.43847958769894047, "displayFB": true, "onset": 216.47405451127074, "punishment_amount": 0, "responseWindow": 1.5, "reward_amount": 1, "stim": {"motionDirection": "in", "oriBase": 30, "oriDirection": 1, "oriStrength": 0.775, "speedDirection": 1, "speedStrength": 0.775, "speed_start": 0.12, "speed_end": 0.13061499670243648, "ori_start": 30, "ori_end": 38.55418848314871, "motion_direction": "in"}, "stimResponseInterval": 0.5772980225357298, "stimulusDuration": 1.5, "trial_count": 48, "ts": "motion", "trial_type": "threshold_estimation", "exp_stage": "adaptive_procedure", "decision_var": 0.010614996702436486, "response": "up", "rt": 0.2859771630028263, "FB": 1, "quest_estimate": 0.007202768570833941, "trial_time": 2.900937561003957}
{"FBDuration": 0.5, "FBonset": 0, "ITI": 0.20057809005440008, "displayFB": true, "onset": 220.9898321215054, "punishment_amount": 0, "responseWindow": 1.5, "reward_amount": 1, "stim": {"motionDirection": "in", "oriBase": -60, "oriDirection": 1, "oriStrength": 0.775, "speedDirection": -1, "speedStrength": 0.775, "speed_start": 0.12, "speed_end": 0.10989699769583225, "ori_start": -60, "ori_end": -51.44581151685129, "motion_direction": "in"}, "stimResponseInterval": 0.1285318097730579, "stimulusDuration": 1.5, "trial_count": 49, "ts": "motion", "trial_type": "threshold_estimation", "exp_stage": "adaptive_procedure", "decision_var": 0.01010300230416774, "response": "down", "rt": 1.124716341990279, "FB": 1, "quest_estimate": 0.0067018480883332746, "trial_time": 3.289848548010923}
{"FBDuration": 0.5, "FBonset": 0, "ITI": 0.17983545228558395, "displayFB": true, "onset": 224.81894202133287, "punishment_amount": 0, "responseWindow": 1.5, "reward_amount": 1, "stim": {"motionDirection": "in", "oriBase": -60, "oriDirection": -1, "oriStrength": 0.775, "speedDirection": 1, "speedStrength": 0.775, "speed_start": 0.12, "speed_end": 0.12959456630744265, "ori_start": -60, "ori_end": -68.5541884831487, "motion_direction": "in"}, "stimResponseInterval": 0.9307476491295557, "stimulusDuration": 1.5, "trial_count": 50, "ts": "motion", "trial_type": "threshold_estimation", "exp_stage": "adaptive_procedure", "decision_var": 0.009594566307442667, "response": "up", "rt": 0.27194183800020255, "FB": 1, "quest_estimate": 0.006204408814591229, "trial_time": 3.243132905001403}
{"FBDuration": 0.5, "FBonset": 0, "ITI": 0.4903341288705456, "displayFB": true, "onset": 229.429525122748, "punishment_amount": 0, "responseWindow": 1.5, "reward_amount": 1, "stim": {"motionDirection": "out", "oriBase": -60, "oriDirection": 1, "oriStrength": 0.775, "speedDirection": 1, "speedStrength": 0.775, "speed_start": 0.12, "speed_end": 0.12908962716289304, "ori_start": -60, "ori_end": -51.44581151685129, "motion_direction": "out"}, "stimResponseInterval": 0.6891280313411652, "stimulusDuration": 1.5, "trial_count": 51, "ts": "motion", "trial_type": "threshold_estimation", "exp_stage": "adaptive_procedure", "decision_var": 0.009089627162893056, "response": "down", "rt": 0.2840014249959495, "FB": 0, "quest_estimate": 0.007948322296406504, "trial_time": 3.0008700379985385}
{"FBDuration": 0.5, "FBonset": 0, "ITI": 0.12895144812786152, "displayFB": true, "onset": 234.1089872829597, "punishment_amount": 0, "responseWindow": 1.5, "reward_amount": 1, "stim": {"motionDirection": "out", "oriBase": 30, "oriDirection": 1, "oriStrength": 0.775, "speedDirection": 1, "speedStrength": 0.775, "speed_start": 0.12, "speed_end": 0.1308420979372102, "ori_start": 30, "ori_end": 38.55418848314871, "motion_direction": "out"}, "stimResponseInterval": 0.7417906851592129, "stimulusDuration": 1.5, "trial_count": 52, "ts": "motion", "trial_type": "threshold_estimation", "exp_stage": "adaptive_procedure", "decision_var": 0.010842097937210186, "response": "down", "rt": 0.27703262599243317, "FB": 0, "quest_estimate": 0.009711516658949065, "trial_time": 3.049116682013846}
{"FBDuration": 0.5, "FBonset": 0, "ITI": 0.7659051352072486, "displayFB": true, "onset": 238.47972941624678, "punishment_amount": 0, "responseWindow": 1.5, "reward_amount": 1, "stim": {"motionDirection": "out", "oriBase": 30, "oriDirection": -1, "oriStrength": 0.775, "speedDirection": 1, "speedStrength": 0.775, "speed_start": 0.12, "speed_end": 0.13261385619883848, "ori_start": 30, "ori_end": 21.44581151685129, "motion_direction": "out"}, "stimResponseInterval": 0.5481247461452763, "stimulusDuration": 1.5, "trial_count": 53, "ts": "motion", "trial_type": "threshold_estimation", "exp_stage": "adaptive_procedure", "decision_var": 0.012613856198838466, "response": "up", "rt": 0.30183484200097155, "FB": 1, "quest_estimate": 0.009207637159488448, "trial_time": 2.8745638149994193}
{"FBDuration": 0.5, "FBonset": 0, "ITI": 0.4306591916165582, "displayFB": true, "onset": 243.2937592975993, "punishment_amount": 0, "responseWindow": 1.5, "reward_amount": 1, "stim": {"motionDirection": "in", "oriBase": -60, "oriDirection": -1, "oriStrength": 0.775, "speedDirection": -1, "speedStrength": 0.775, "speed_start": 0.12, "speed_end": 0.11685621314750748, "ori_start": -60, "ori_end": -68.5541884831487, "motion_direction": "in"}, "stimResponseInterval": 0.8889868440124511, "stimulusDuration": 1.5, "trial_count": 54, "ts": "motion", "trial_type": "intensity-60", "exp_stage": "adaptive_procedure", "decision_var": 0.0031437868524925214, "response": "down", "rt": 0.2534818569984054, "FB": 1, "quest_estimate": 0.008706331355813016, "trial_time": 3.1681953729857923}
{"FBDuration": 0.5, "FBonset": 0, "ITI": 0.18737925573509673, "displayFB": true, "onset": 248.11340533322831, "punishment_amount": 0, "responseWindow": 1.5, "reward_amount": 1, "stim": {"motionDirection": "out", "oriBase": 30, "oriDirection": 1, "oriStrength": 0.775, "speedDirection": -1, "speedStrength": 0.775, "speed_start": 0.12, "speed_end": 0.10840604788073108, "ori_start": 30, "ori_end": 38.55418848314871, "motion_direction": "out"}, "stimResponseInterval": 0.8119361704818984, "stimulusDuration": 1.5, "trial_count": 55, "ts": "motion", "trial_type": "threshold_estimation", "exp_stage": "adaptive_procedure", "decision_var": 0.011593952119268919, "response": "down", "rt": 0.23306197300553322, "FB": 1, "quest_estimate": 0.008209413786809498, "trial_time": 3.0826190799998585}
{"FBDuration": 0.5, "FBonset": 0, "ITI": 0.4445958757209204, "displayFB": true, "onset": 252.61272075944532, "punishment_amount": 0, "responseWindow": 1.5, "reward_amount": 1, "stim": {"motionDirection": "out", "oriBase": -60, "oriDirection": 1, "oriStrength": 0.775, "speedDirection": -1, "speedStrength": 0.775, "speed_start": 0.12, "speed_end": 0.11685621314750748, "ori_start": -60, "ori_end": -51.44581151685129, "motion_direction": "out"}, "stimResponseInterval": 0.925900253478537, "stimulusDuration": 1.5, "trial_count": 56, "ts": "motion", "trial_type": "intensity-60", "exp_stage": "adaptive_procedure", "decision_var": 0.0031437868524925214, "response": "up", "rt": 0.29353763100516517, "FB": 0, "quest_estimate": 0.009845633593457616, "trial_time": 3.2564723050018074}
{"FBDuration": 0.5, "FBonset": 0, "ITI": 0.6044422216595533, "displayFB": true, "onset": 257.4832168886448, "punishment_amount": 0, "responseWindow": 1.5, "reward_amount": 1, "stim": {"motionDirection": "in", "oriBase": 30, "oriDirection": 1, "oriStrength": 0.775, "speedDirection": -1, "speedStrength": 0.775, "speed_start": 0.12, "speed_end": 0.1005920542831456, "ori_start": 30, "ori_end": 38.55418848314871, "motion_direction": "in"}, "stimResponseInterval": 0.7274427621263464, "stimulusDuration": 1.5, "trial_count": 57, "ts": "motion", "trial_type": "intensity-95", "exp_stage": "adaptive_procedure", "decision_var": 0.019407945716854388, "response": "down", "rt": 0.29709628799173515, "FB": 1, "quest_estimate": 0.009349687073137589, "trial_time": 3.055822687994805}
{"FBDuration": 0.5, "FBonset": 0, "ITI": 0.43816842320225613, "displayFB": true, "onset": 262.3151018724307, "punishment_amount": 0, "responseWindow": 1.5, "reward_amount": 1, "stim": {"motionDirection": "out", "oriBase": -60, "oriDirection": 1, "oriStrength": 0.775, "speedDirection": -1, "speedStrength": 0.775, "speed_start": 0.12, "speed_end": 0.10776991741953162, "ori_start": -60, "ori_end": -51.44581151685129, "motion_direction": "out"}, "stimResponseInterval": 0.3507775952154474, "stimulusDuration": 1.5, "trial_count": 58, "ts": "motion", "trial_type": "threshold_estimation", "exp_stage": "adaptive_procedure", "decision_var": 0.012230082580468378, "response": "down", "rt": 0.3322842259949539, "FB": 1, "quest_estimate": 0.008855156183400263, "trial_time": 2.713631702994462}
{"FBDuration": 0.5, "FBonset": 0, "ITI": 0.9759931799351693, "displayFB": true, "onset": 266.6040478908484, "punishment_amount": 0, "responseWindow": 1.5, "reward_amount": 1, "stim": {"motionDirection": "in", "oriBase": -60, "oriDirection": -1, "oriStrength": 0.775, "speedDirection": -1, "speedStrength": 0.775, "speed_start": 0.12, "speed_end": 0.10827167854915182, "ori_start": -60, "ori_end": -68.5541884831487, "motion_direction": "in"}, "stimResponseInterval": 0.2837298011207966, "stimulusDuration": 1.5, "trial_count": 59, "ts": "motion", "trial_type": "threshold_estimation", "exp_stage": "adaptive_procedure", "decision_var": 0.011728321450848171, "response": "up", "rt": 0.4169351399905281, "FB": 0, "quest_estimate": 0.010589618565761141, "trial_time": 2.723978255991824}
{"FBDuration": 0.5, "FBonset": 0, "ITI": 0.08729235623636655, "displayFB": true, "onset": 271.36377087190436, "punishment_amount": 0, "responseWindow": 1.5, "reward_amount": 1, "stim": {"motionDirection": "out", "oriBase": -60, "oriDirection": -1, "oriStrength": 0.775, "speedDirection": 1, "speedStrength": 0.775, "speed_start": 0.12, "speed_end": 0.1259975294294136, "ori_start": -60, "ori_end": -68.5541884831487, "motion_direction": "out"}, "stimResponseInterval": 0.511490524284806, "stimulusDuration": 1.5, "trial_count": 60, "ts": "motion", "trial_type": "intensity-70", "exp_stage": "adaptive_procedure", "decision_var": 0.005997529429413631, "response": "up", "rt": 0.2868724790023407, "FB": 1, "quest_estimate": 0.010092704631871799, "trial_time": 2.8271255700092297}
{"FBDuration": 0.5, "FBonset": 0, "ITI": 0.21541884850374649, "displayFB": true, "onset": 275.46255375242555, "punishment_amount": 0, "responseWindow": 1.5, "reward_amount": 1, "stim": {"motionDirection": "in", "oriBase": -60, "oriDirection": -1, "oriStrength": 0.775, "speedDirection": -1, "speedStrength": 0.775, "speed_start": 0.12, "speed_end": 0.10703315570772692, "ori_start": -60, "ori_end": -68.5541884831487, "motion_direction": "in"}, "stimResponseInterval": 0.9933120937137465, "stimulusDuration": 1.5, "trial_count": 61, "ts": "motion", "trial_type": "threshold_estimation", "exp_stage": "adaptive_procedure", "decision_var": 0.012966844292273079, "response": "down", "rt": 0.33693346299696714, "FB": 1, "quest_estimate": 0.00960010662131039, "trial_time": 3.3592704970069462}
{"FBDuration": 0.5, "FBonset": 0, "ITI": 0.849789489615707, "displayFB": true, "onset": 280.171284694643, "punishment_amount": 0, "responseWindow": 1.5, "reward_amount": 1, "stim": {"motionDirection": "out", "oriBase": -60, "oriDirection": 1, "oriStrength": 0.775, "speedDirection": 1, "speedStrength": 0.775, "speed_start": 0.12, "speed_end": 0.13246693761616476, "ori_start": -60, "ori_end": -51.44581151685129, "motion_direction": "out"}, "stimResponseInterval": 0.6891198063098882, "stimulusDuration": 1.5, "trial_count": 62, "ts": "motion", "trial_type": "threshold_estimation", "exp_stage": "adaptive_procedure", "decision_var": 0.01246693761616477, "response": "up", "rt": 0.32861304699326865, "FB": 1, "quest_estimate": 0.009110883231688127, "trial_time": 3.0528516920021502}
{"FBDuration": 0.5, "FBonset": 0, "ITI": 0.02192138696664314, "displayFB": true, "onset": 285.2101939905686, "punishment_amount": 0, "responseWindow": 1.5, "reward_amount": 1, "stim": {"motionDirection": "in", "oriBase": 30, "oriDirection": -1, "oriStrength": 0.775, "speedDirection": -1, "speedStrength": 0.775, "speed_start": 0.12, "speed_end": 0.10802943592583572, "ori_start": 30, "ori_end": 21.44581151685129, "motion_direction": "in"}, "stimResponseInterval": 0.32021008429973774, "stimulusDuration": 1.5, "trial_count": 63, "ts": "motion", "trial_type": "threshold_estimation", "exp_stage": "adaptive_procedure", "decision_var": 0.011970564074164268, "response": "down", "rt": 0.28018898000300396, "FB": 1, "quest_estimate": 0.008624982930056382, "trial_time": 2.627669858004083}
{"FBDuration": 0.5, "FBonset": 0, "ITI": 0.2469718841021611, "displayFB": true, "onset": 289.052325461835, "punishment_amount": 0, "responseWindow": 1.5, "reward_amount": 1, "stim": {"motionDirection": "out", "oriBase": 30, "oriDirection": 1, "oriStrength": 0.775, "speedDirection": 1, "speedStrength": 0.775, "speed_start": 0.12, "speed_end": 0.1259975294294136, "ori_start": 30, "ori_end": 38.55418848314871, "motion_direction": "out"}, "stimResponseInterval": 0.7894514034912319, "stimulusDuration": 1.5, "trial_count": 64, "ts": "motion", "trial_type": "intensity-70", "exp_stage": "adaptive_procedure", "decision_var": 0.005997529429413631, "response": "up", "rt": 0.24412542500067502, "FB": 1, "quest_estimate": 0.008141555693256822, "trial_time": 3.067893073995947}
