{"FBDuration": 0.5, "FBonset": 0, "ITI": 0.05013058536658632, "displayFB": true, "onset": 2, "punishment_amount": 0, "responseWindow": 1.5, "reward_amount": 1, "stim": {"motionDirection": "out", "oriBase": 30, "oriDirection": -1, "oriStrength": 0.775, "speedDirection": 1, "speedStrength": 0.775, "speed_start": 0.12, "speed_end": 0.12377882460065043, "ori_start": 30, "ori_end": 0, "motion_direction": "out"}, "stimResponseInterval": 0.2661674283686183, "stimulusDuration": 1.5, "trial_count": 1, "ts": "orientation", "trial_type": "threshold_estimation", "exp_stage": "adaptive_procedure", "decision_var": 30, "response": "left", "rt": 0.37430018500162987, "FB": 1, "quest_estimate": 23.905873068303592, "trial_time": 2.6763092429973767}
{"FBDuration": 0.5, "FBonset": 0, "ITI": 0.6542265216484642, "displayFB": true, "onset": 5.816298013735205, "punishment_amount": 0, "responseWindow": 1.5, "reward_amount": 1, "stim": {"motionDirection": "out", "oriBase": -60, "oriDirection": 1, "oriStrength": 0.775, "speedDirection": 1, "speedStrength": 0.775, "speed_start": 0.12, "speed_end": 0.12377882460065043, "ori_start": -60, "ori_end": -33.94264472572774, "motion_direction": "out"}, "stimResponseInterval": 0.2790323219522365, "stimulusDuration": 1.5, "trial_count": 2, "ts": "orientation", "trial_type": "threshold_estimation", "exp_stage": "adaptive_procedure", "decision_var": 26.05735527427226, "response": "right", "rt": 0.356405148995691, "FB": 1, "quest_estimate": 18.59082863785301, "trial_time": 2.6701658259989927}
{"FBDuration": 0.5, "FBonset": 0, "ITI": 0.013302963944604285, "displayFB": true, "onset": 10.249556857335905, "punishment_amount": 0, "responseWindow": 1.5, "reward_amount": 1, "stim": {"motionDirection": "in", "oriBase": -60, "oriDirection": 1, "oriStrength": 0.775, "speedDirection": 1, "speedStrength": 0.775, "speed_start": 0.12, "speed_end": 0.12377882460065043, "ori_start": -60, "ori_end": -40.2323180249375, "motion_direction": "in"}, "stimResponseInterval": 0.35910373705042775, "stimulusDuration": 1.5, "trial_count": 3, "ts": "orientation", "trial_type": "threshold_estimation", "exp_stage": "adaptive_procedure", "decision_var": 19.7676819750625, "response": "right", "rt": 0.37966765600140207, "FB": 1, "quest_estimate": 13.961013317514713, "trial_time": 2.771971139998641}
{"FBDuration": 0.5, "FBonset": 0, "ITI": 0.9417275424181972, "displayFB": true, "onset": 14.121963558330938, "punishment_amount": 0, "responseWindow": 1.5, "reward_amount": 1, "stim": {"motionDirection": "out", "oriBase": -60, "oriDirection": -1, "oriStrength": 0.775, "speedDirection": -1, "speedStrength": 0.775, "speed_start": 0.12, "speed_end": 0.11622117539934956, "ori_start": -60, "ori_end": -74.57899872431736, "motion_direction": "out"}, "stimResponseInterval": 0.7929126312074883, "stimulusDuration": 1.5, "trial_count": 4, "ts": "orientation", "trial_type": "threshold_estimation", "exp_stage": "adaptive_procedure", "decision_var": 14.578998724317362, "response": "left", "rt": 0.3072073970033671, "FB": 1, "quest_estimate": 9.978812688304295, "trial_time": 3.127311576005013}
{"FBDuration": 0.5, "FBonset": 0, "ITI": 0.29322972651999246, "displayFB": true, "onset": 19.356603731956625, "punishment_amount": 0, "responseWindow": 1.5, "reward_amount": 1, "stim": {"motionDirection": "out", "oriBase": -60, "oriDirection": -1, "oriStrength": 0.775, "speedDirection": 1, "speedStrength": 0.775, "speed_start": 0.12, "speed_end": 0.12377882460065043, "ori_start": -60, "ori_end": -70.25621028662597, "motion_direction": "out"}, "stimResponseInterval": 0.15840943750795422, "stimulusDuration": 1.5, "trial_count": 5, "ts": "orientation", "trial_type": "threshold_estimation", "exp_stage": "adaptive_procedure", "decision_var": 10.256210286625969, "response": "left", "rt": 0.3813122990031843, "FB": 1, "quest_estimate": 6.585719101026655, "trial_time": 2.56269858199812}
{"FBDuration": 0.5, "FBonset": 0, "ITI": 0.6722349259856037, "displayFB": true, "onset": 23.30824289598457, "punishment_amount": 0, "responseWindow": 1.5, "reward_amount": 1, "stim": {"motionDirection": "out", "oriBase": 30, "oriDirection": 1, "oriStrength": 0.775, "speedDirection": -1, "speedStrength": 0.775, "speed_start": 0.12, "speed_end": 0.11622117539934956, "ori_start": 30, "ori_end": 36.652387437939495, "motion_direction": "out"}, "stimResponseInterval": 0.9700627754187692, "stimulusDuration": 1.5, "trial_count": 6, "ts": "orientation", "trial_type": "threshold_estimation", "exp_stage": "adaptive_procedure", "decision_var": 6.652387437939492, "response": "left", "rt": 0.297427871999389, "FB": 0, "quest_estimate": 17.573248839803803, "trial_time": 3.305385703999491}
{"FBDuration": 0.5, "FBonset": 0, "ITI": 0.927845615145384, "displayFB": true, "onset": 28.450540597388944, "punishment_amount": 0, "responseWindow": 1.5, "reward_amount": 1, "stim": {"motionDirection": "in", "oriBase": 30, "oriDirection": -1, "oriStrength": 0.775, "speedDirection": 1, "speedStrength": 0.775, "speed_start": 0.12, "speed_end": 0.12377882460065043, "ori_start": 30, "ori_end": 15.709842338908956, "motion_direction": "in"}, "stimResponseInterval": 0.8203920146158765, "stimulusDuration": 1.5, "trial_count": 7, "ts": "orientation", "trial_type": "threshold_estimation", "exp_stage": "adaptive_procedure", "decision_var": 14.290157661091044, "response": "left", "rt": 0.263715979999688, "FB": 1, "quest_estimate": 14.666871189262585, "trial_time": 3.111079599002551}
{"FBDuration": 0.5, "FBonset": 0, "ITI": 0.8230650954886753, "displayFB": true, "onset": 33.69877822715021, "punishment_amount": 0, "responseWindow": 1.5, "reward_amount": 1, "stim": {"motionDirection": "out", "oriBase": -60, "oriDirection": -1, "oriStrength": 0.775, "speedDirection": 1, "speedStrength": 0.775, "speed_start": 0.12, "speed_end": 0.12377882460065043, "ori_start": -60, "ori_end": -72.04516338490205, "motion_direction": "out"}, "stimResponseInterval": 0.8695368146586351, "stimulusDuration": 1.5, "trial_count": 8, "ts": "orientation", "trial_type": "threshold_estimation", "exp_stage": "adaptive_procedure", "decision_var": 12.045163384902047, "response": "left", "rt": 0.297108788996411, "FB": 1, "quest_estimate": 12.498848846822526, "trial_time": 3.1933804340005736}
{"FBDuration": 0.5, "FBonset": 0, "ITI": 0.4812528566023967, "displayFB": true, "onset": 38.89138013729752, "punishment_amount": 0, "responseWindow": 1.5, "reward_amount": 1, "stim": {"motionDirection": "in", "oriBase": -60, "oriDirection": 1, "oriStrength": 0.775, "speedDirection": -1, "speedStrength": 0.775, "speed_start": 0.12, "speed_end": 0.11622117539934956, "ori_start": -60, "ori_end": -49.7263513564389, "motion_direction": "in"}, "stimResponseInterval": 0.6548436280628018, "stimulusDuration": 1.5, "trial_count": 9, "ts": "orientation", "trial_type": "threshold_estimation", "exp_stage": "adaptive_procedure", "decision_var": 10.273648643561106, "response": "right", "rt": 0.4042626879963791, "FB": 1, "quest_estimate": 10.89990293690024, "trial_time": 3.091730029002065}
{"FBDuration": 0.5, "FBonset": 0, "ITI": 0.3908933253059461, "displayFB": true, "onset": 43.52747662196271, "punishment_amount": 0, "responseWindow": 1.5, "reward_amount": 1, "stim": {"motionDirection": "out", "oriBase": -60, "oriDirection": 1, "oriStrength": 0.775, "speedDirection": -1, "speedStrength": 0.775, "speed_start": 0.12, "speed_end": 0.11622117539934956, "ori_start": -60, "ori_end": -50.49163284029467, "motion_direction": "out"}, "stimResponseInterval": 0.7512650284568889, "stimulusDuration": 1.5, "trial_count": 10, "ts": "orientation", "trial_type": "threshold_estimation", "exp_stage": "adaptive_procedure", "decision_var": 9.508367159705326, "response": "right", "rt": 0.3072910470000352, "FB": 1, "quest_estimate": 9.7244828896613, "trial_time": 3.0862219639966497}
{"FBDuration": 0.5, "FBonset": 0, "ITI": 0.3963183737009024, "displayFB": true, "onset": 48.16963497572554, "punishment_amount": 0, "responseWindow": 1.5, "reward_amount": 1, "stim": {"motionDirection": "in", "oriBase": 30, "oriDirection": 1, "oriStrength": 0.775, "speedDirection": -1, "speedStrength": 0.775, "speed_start": 0.12, "speed_end": 0.11622117539934956, "ori_start": 30, "ori_end": 38.90946505031892, "motion_direction": "in"}, "stimResponseInterval": 0.6879495925635106, "stimulusDuration": 1.5, "trial_count": 11, "ts": "orientation", "trial_type": "threshold_estimation", "exp_stage": "adaptive_procedure", "decision_var": 8.909465050318921, "response": "left", "rt": 0.41728724100539694, "FB": 0, "quest_estimate": 13.07247341533169, "trial_time": 3.139673423000204}
{"FBDuration": 0.5, "FBonset": 0, "ITI": 0.07538978486832171, "displayFB": true, "onset": 52.753902941989956, "punishment_amount": 0, "responseWindow": 1.5, "reward_amount": 1, "stim": {"motionDirection": "out", "oriBase": 30, "oriDirection": -1, "oriStrength": 0.775, "speedDirection": -1, "speedStrength": 0.775, "speed_start": 0.12, "speed_end": 0.11622117539934956, "ori_start": 30, "ori_end": 19.79835550039717, "motion_direction": "out"}, "stimResponseInterval": 0.3732311591045866, "stimulusDuration": 1.5, "trial_count": 12, "ts": "orientation", "trial_type": "threshold_estimation", "exp_stage": "adaptive_procedure", "decision_var": 10.201644499602828, "response": "left", "rt": 0.35228449800342787, "FB": 1, "quest_estimate": 11.737176575880262, "trial_time": 2.7567756100033876}
{"FBDuration": 0.5, "FBonset": 0, "ITI": 0.5111768432163806, "displayFB": true, "onset": 56.70252388596286, "punishment_amount": 0, "responseWindow": 1.5, "reward_amount": 1, "stim": {"motionDirection": "out", "oriBase": -60, "oriDirection": -1, "oriStrength": 0.775, "speedDirection": -1, "speedStrength": 0.775, "speed_start": 0.12, "speed_end": 0.11622117539934956, "ori_start": -60, "ori_end": -69.78950208829053, "motion_direction": "out"}, "stimResponseInterval": 0.810056409931148, "stimulusDuration": 1.5, "trial_count": 13, "ts": "orientation", "trial_type": "threshold_estimation", "exp_stage": "adaptive_procedure", "decision_var": 9.789502088290536, "response": "left", "rt": 0.31811838199791964, "FB": 1, "quest_estimate": 10.82842271248101, "trial_time": 3.1600802850007312}
{"FBDuration": 0.5, "FBonset": 0, "ITI": 0.9144352015678237, "displayFB": true, "onset": 61.52375713911039, "punishment_amount": 0, "responseWindow": 1.5, "reward_amount": 1, "stim": {"motionDirection": "in", "oriBase": 30, "oriDirection": 1, "oriStrength": 0.775, "speedDirection": 1, "speedStrength": 0.775, "speed_start": 0.12, "speed_end": 0.12377882460065043, "ori_start": 30, "ori_end": 39.5213382383946, "motion_direction": "in"}, "stimResponseInterval": 0.9888912495750932, "stimulusDuration": 1.5, "trial_count": 14, "ts": "orientation", "trial_type": "threshold_estimation", "exp_stage": "adaptive_procedure", "decision_var": 9.521338238394598, "response": "right", "rt": 0.2940595510008279, "FB": 1, "quest_estimate": 10.227805779362022, "trial_time": 3.3090785829990637}
{"FBDuration": 0.5, "FBonset": 0, "ITI": 0.5017210968482304, "displayFB": true, "onset": 66.9270835902533, "punishment_amount": 0, "responseWindow": 1.5, "reward_amount": 1, "stim": {"motionDirection": "out", "oriBase": 30, "oriDirection": -1, "oriStrength": 0.775, "speedDirection": 1, "speedStrength": 0.775, "speed_start": 0.12, "speed_end": 0.12377882460065043, "ori_start": 30, "ori_end": 20.64251854893663, "motion_direction": "out"}, "stimResponseInterval": 0.598515430771283, "stimulusDuration": 1.5, "trial_count": 15, "ts": "orientation", "trial_type": "threshold_estimation", "exp_stage": "adaptive_procedure", "decision_var": 9.357481451063371, "response": "left", "rt": 0.35432249199948274, "FB": 1, "quest_estimate": 9.798633990725065, "trial_time": 2.990025755003444}
{"FBDuration": 0.5, "FBonset": 0, "ITI": 0.2209534087190037, "displayFB": true, "onset": 71.52732011787282, "punishment_amount": 0, "responseWindow": 1.5, "reward_amount": 1, "stim": {"motionDirection": "out", "oriBase": 30, "oriDirection": 1, "oriStrength": 0.775, "speedDirection": -1, "speedStrength": 0.775, "speed_start": 0.12, "speed_end": 0.11622117539934956, "ori_start": 30, "ori_end": 39.25566819578688, "motion_direction": "out"}, "stimResponseInterval": 0.3277441348484449, "stimulusDuration": 1.5, "trial_count": 16, "ts": "orientation", "trial_type": "threshold_estimation", "exp_stage": "adaptive_procedure", "decision_var": 9.255668195786885, "response": "left", "rt": 0.410251605004305, "FB": 0, "quest_estimate": 10.980095788630415, "trial_time": 2.773150782006269}
{"FBDuration": 0.5, "FBonset": 0, "ITI": 0.22023924611300316, "displayFB": true, "onset": 75.57601766144026, "punishment_amount": 0, "responseWindow": 1.5, "reward_amount": 1, "stim": {"motionDirection": "in", "oriBase": 30, "oriDirection": -1, "oriStrength": 0.775, "speedDirection": -1, "speedStrength": 0.775, "speed_start": 0.12, "speed_end": 0.11622117539934956, "ori_start": 30, "ori_end": 20.43556056183183, "motion_direction": "in"}, "stimResponseInterval": 0.8316689108280104, "stimulusDuration": 1.5, "trial_count": 17, "ts": "orientation", "trial_type": "threshold_estimation", "exp_stage": "adaptive_procedure", "decision_var": 9.564439438168169, "response": "left", "rt": 0.30371924200153444, "FB": 1, "quest_estimate": 10.397669178243277, "trial_time": 3.171672620002937}
{"FBDuration": 0.5, "FBonset": 0, "ITI": 0.7711898383880764, "displayFB": true, "onset": 80.12792581838127, "punishment_amount": 0, "responseWindow": 1.5, "reward_amount": 1, "stim": {"motionDirection": "out", "oriBase": 30, "oriDirection": -1, "oriStrength": 0.775, "speedDirection": -1, "speedStrength": 0.775, "speed_start": 0.12, "speed_end": 0.11622117539934956, "ori_start": 30, "ori_end": 20.545267661488896, "motion_direction": "out"}, "stimResponseInterval": 0.4905912800378808, "stimulusDuration": 1.5, "trial_count": 18, "ts": "orientation", "trial_type": "threshold_estimation", "exp_stage": "adaptive_procedure", "decision_var": 9.454732338511104, "response": "left", "rt": 0.31450132399913855, "FB": 1, "quest_estimate": 10.014659355800386, "trial_time": 2.8370510660024593}
{"FBDuration": 0.5, "FBonset": 0, "ITI": 0.47578264067238796, "displayFB": true, "onset": 84.88970693680723, "punishment_amount": 0, "responseWindow": 1.5, "reward_amount": 1, "stim": {"motionDirection": "out", "oriBase": -60, "oriDirection": -1, "oriStrength": 0.775, "speedDirection": 1, "speedStrength": 0.775, "speed_start": 0.12, "speed_end": 0.12377882460065043, "ori_start": -60, "ori_end": -69.38983164716252, "motion_direction": "out"}, "stimResponseInterval": 0.52671973931, "stimulusDuration": 1.5, "trial_count": 19, "ts": "orientation", "trial_type": "threshold_estimation", "exp_stage": "adaptive_procedure", "decision_var": 9.389831647162527, "response": "left", "rt": 0.3178520869987551, "FB": 1, "quest_estimate": 9.778339745567632, "trial_time": 2.8795540319988504}
{"FBDuration": 0.5, "FBonset": 0, "ITI": 0.9629581177319304, "displayFB": true, "onset": 89.39220931678962, "punishment_amount": 0, "responseWindow": 1.5, "reward_amount": 1, "stim": {"motionDirection": "out", "oriBase": 30, "oriDirection": 1, "oriStrength": 0.775, "speedDirection": 1, "speedStrength": 0.775, "speed_start": 0.12, "speed_end": 0.12377882460065043, "ori_start": 30, "ori_end": 39.35383064100411, "motion_direction": "out"}, "stimResponseInterval": 0.47752124925877826, "stimulusDuration": 1.5, "trial_count": 20, "ts": "orientation", "trial_type": "threshold_estimation", "exp_stage": "adaptive_procedure", "decision_var": 9.353830641004109, "response": "right", "rt": 0.28247930300130975, "FB": 1, "quest_estimate": 9.602643264253317, "trial_time": 2.7914997420011787}
{"FBDuration": 0.5, "FBonset": 0, "ITI": 0.7376271611863627, "displayFB": true, "onset": 94.33268868378033, "punishment_amount": 0, "responseWindow": 1.5, "reward_amount": 1, "stim": {"motionDirection": "in", "oriBase": 30, "oriDirection": 1, "oriStrength": 0.775, "speedDirection": 1, "speedStrength": 0.775, "speed_start": 0.12, "speed_end": 0.12377882460065043, "ori_start": 30, "ori_end": 39.32152568402542, "motion_direction": "in"}, "stimResponseInterval": 0.8450293796378188, "stimulusDuration": 1.5, "trial_count": 21, "ts": "orientation", "trial_type": "threshold_estimation", "exp_stage": "adaptive_procedure", "decision_var": 9.321525684025413, "response": "left", "rt": 0.33753815299860435, "FB": 0, "quest_estimate": 9.875537342448531, "trial_time": 3.222225109995634}
{"FBDuration": 0.5, "FBonset": 0, "ITI": 0.42191286276404005, "displayFB": true, "onset": 99.41534522460451, "punishment_amount": 0, "responseWindow": 1.5, "reward_amount": 1, "stim": {"motionDirection": "in", "oriBase": -60, "oriDirection": -1, "oriStrength": 0.775, "speedDirection": -1, "speedStrength": 0.775, "speed_start": 0.12, "speed_end": 0.11622117539934956, "ori_start": -60, "ori_end": -69.38225363176969, "motion_direction": "in"}, "stimResponseInterval": 0.16575775391946823, "stimulusDuration": 1.5, "trial_count": 22, "ts": "orientation", "trial_type": "threshold_estimation", "exp_stage": "adaptive_procedure", "decision_var": 9.382253631769679, "response": "left", "rt": 0.42414053499669535, "FB": 1, "quest_estimate": 9.697868025746658, "trial_time": 2.6278799200008507}
{"FBDuration": 0.5, "FBonset": 0, "ITI": 0.9564145696427717, "displayFB": true, "onset": 103.50301584128802, "punishment_amount": 0, "responseWindow": 1.5, "reward_amount": 1, "stim": {"motionDirection": "in", "oriBase": 30, "oriDirection": -1, "oriStrength": 0.775, "speedDirection": 1, "speedStrength": 0.775, "speed_start": 0.12, "speed_end": 0.12377882460065043, "ori_start": 30, "ori_end": 20.642168875465252, "motion_direction": "in"}, "stimResponseInterval": 0.6027607895279923, "stimulusDuration": 1.5, "trial_count": 23, "ts": "orientation", "trial_type": "threshold_estimation", "exp_stage": "adaptive_procedure", "decision_var": 9.357831124534748, "response": "left", "rt": 0.31272257000091486, "FB": 1, "quest_estimate": 9.567673033174476, "trial_time": 2.948074441999779}
{"FBDuration": 0.5, "FBonset": 0, "ITI": 0.9228963152779328, "displayFB": true, "onset": 108.56219120045878, "punishment_amount": 0, "responseWindow": 1.5, "reward_amount": 1, "stim": {"motionDirection": "in", "oriBase": -60, "oriDirection": -1, "oriStrength": 0.775, "speedDirection": 1, "speedStrength": 0.775, "speed_start": 0.12, "speed_end": 0.12377882460065043, "ori_start": -60, "ori_end": -69.33607709231127, "motion_direction": "in"}, "stimResponseInterval": 0.40412780690391836, "stimulusDuration": 1.5, "trial_count": 24, "ts": "orientation", "trial_type": "threshold_estimation", "exp_stage": "adaptive_procedure", "decision_var": 9.336077092311267, "response": "left", "rt": 0.11757969800237333, "FB": 1, "quest_estimate": 9.495987956974488, "trial_time": 2.5596468210060266}
{"FBDuration": 0.5, "FBonset": 0, "ITI": 0.5165852007716629, "displayFB": true, "onset": 113.38921532264064, "punishment_amount": 0, "responseWindow": 1.5, "reward_amount": 1, "stim": {"motionDirection": "in", "oriBase": 30, "oriDirection": 1, "oriStrength": 0.775, "speedDirection": -1, "speedStrength": 0.775, "speed_start": 0.12, "speed_end": 0.11622117539934956, "ori_start": 30, "ori_end": 39.31609809349927, "motion_direction": "in"}, "stimResponseInterval": 0.34425861921445156, "stimulusDuration": 1.5, "trial_count": 25, "ts": "orientation", "trial_type": "threshold_estimation", "exp_stage": "adaptive_procedure", "decision_var": 9.31609809349927, "response": "right", "rt": 0.3890309400012484, "FB": 1, "quest_estimate": 9.438493142923615, "trial_time": 2.7595166889950633}
{"FBDuration": 0.5, "FBonset": 0, "ITI": 0.8816482696547616, "displayFB": true, "onset": 117.75005914262675, "punishment_amount": 0, "responseWindow": 1.5, "reward_amount": 1, "stim": {"motionDirection": "out", "oriBase": -60, "oriDirection": 1, "oriStrength": 0.775, "speedDirection": -1, "speedStrength": 0.775, "speed_start": 0.12, "speed_end": 0.11622117539934956, "ori_start": -60, "ori_end": -50.70381897379832, "motion_direction": "out"}, "stimResponseInterval": 0.21503074154870094, "stimulusDuration": 1.5, "trial_count": 26, "ts": "orientation", "trial_type": "threshold_estimation", "exp_stage": "adaptive_procedure", "decision_var": 9.29618102620168, "response": "right", "rt": 0.3706953200016869, "FB": 1, "quest_estimate": 9.393064559875505, "trial_time": 2.6158504039995023}
{"FBDuration": 0.5, "FBonset": 0, "ITI": 0.9498209148651133, "displayFB": true, "onset": 122.34673815383022, "punishment_amount": 0, "responseWindow": 1.5, "reward_amount": 1, "stim": {"motionDirection": "in", "oriBase": -60, "oriDirection": -1, "oriStrength": 0.775, "speedDirection": 1, "speedStrength": 0.775, "speed_start": 0.12, "speed_end": 0.12377882460065043, "ori_start": -60, "ori_end": -69.28376534182117, "motion_direction": "in"}, "stimResponseInterval": 0.27177348299377224, "stimulusDuration": 1.5, "trial_count": 27, "ts": "orientation", "trial_type": "threshold_estimation", "exp_stage": "adaptive_procedure", "decision_var": 9.283765341821166, "response": "left", "rt": 0.3556947089964524, "FB": 1, "quest_estimate": 9.357467243917487, "trial_time": 2.6598147780023282}
{"FBDuration": 0.5, "FBonset": 0, "ITI": 0.6309225623738954, "displayFB": true, "onset": 127.0683325516891, "punishment_amount": 0, "responseWindow": 1.5, "reward_amount": 1, "stim": {"motionDirection": "in", "oriBase": -60, "oriDirection": 1, "oriStrength": 0.775, "speedDirection": -1, "speedStrength": 0.775, "speed_start": 0.12, "speed_end": 0.11622117539934956, "ori_start": -60, "ori_end": -50.72688954972287, "motion_direction": "in"}, "stimResponseInterval": 0.6415422283225702, "stimulusDuration": 1.5, "trial_count": 28, "ts": "orientation", "trial_type": "threshold_estimation", "exp_stage": "adaptive_procedure", "decision_var": 9.27311045027713, "response": "right", "rt": 0.28117440099595115, "FB": 1, "quest_estimate": 9.32959175209589, "trial_time": 2.948974041006295}
{"FBDuration": 0.5, "FBonset": 0, "ITI": 0.9721077016992035, "displayFB": true, "onset": 131.84079734238557, "punishment_amount": 0, "responseWindow": 1.5, "reward_amount": 1, "stim": {"motionDirection": "out", "oriBase": 30, "oriDirection": -1, "oriStrength": 0.775, "speedDirection": -1, "speedStrength": 0.775, "speed_start": 0.12, "speed_end": 0.11622117539934956, "ori_start": 30, "ori_end": 20.736402653373307, "motion_direction": "out"}, "stimResponseInterval": 0.5089402115385666, "stimulusDuration": 1.5, "trial_count": 29, "ts": "orientation", "trial_type": "threshold_estimation", "exp_stage": "adaptive_procedure", "decision_var": 9.263597346626693, "response": "left", "rt": 0.2645783659972949, "FB": 1, "quest_estimate": 9.307601216197899, "trial_time": 2.8086122079985216}
{"FBDuration": 0.5, "FBonset": 0, "ITI": 0.05596883085529414, "displayFB": true, "onset": 136.82184525562334, "punishment_amount": 0, "responseWindow": 1.5, "reward_amount": 1, "stim": {"motionDirection": "out", "oriBase": -60, "oriDirection": 1, "oriStrength": 0.775, "speedDirection": 1, "speedStrength": 0.775, "speed_start": 0.12, "speed_end": 0.12377882460065043, "ori_start": -60, "ori_end": -50.74526730355485, "motion_direction": "out"}, "stimResponseInterval": 0.43614614943481755, "stimulusDuration": 1.5, "trial_count": 30, "ts": "orientation", "trial_type": "threshold_estimation", "exp_stage": "adaptive_procedure", "decision_var": 9.254732696445153, "response": "right", "rt": 0.49234163100481965, "FB": 1, "quest_estimate": 9.289994377610732, "trial_time": 2.9642915560034453}
{"FBDuration": 0.5, "FBonset": 0, "ITI": 0.7957970149283364, "displayFB": true, "onset": 140.81396023591344, "punishment_amount": 0, "responseWindow": 1.5, "reward_amount": 1, "stim": {"motionDirection": "in", "oriBase": 30, "oriDirection": 1, "oriStrength": 0.775, "speedDirection": -1, "speedStrength": 0.775, "speed_start": 0.12, "speed_end": 0.11622117539934956, "ori_start": 30, "ori_end": 39.246105283597544, "motion_direction": "in"}, "stimResponseInterval": 0.6231186110464915, "stimulusDuration": 1.5, "trial_count": 31, "ts": "orientation", "trial_type": "threshold_estimation", "exp_stage": "adaptive_procedure", "decision_var": 9.24610528359754, "response": "right", "rt": 0.23068981999676907, "FB": 1, "quest_estimate": 9.277138648373974, "trial_time": 2.8803007659953437}
{"FBDuration": 0.5, "FBonset": 0, "ITI": 0.7952274253179508, "displayFB": true, "onset": 145.73287586188826, "punishment_amount": 0, "responseWindow": 1.5, "reward_amount": 1, "stim": {"motionDirection": "in", "oriBase": -60, "oriDirection": 1, "oriStrength": 0.775, "speedDirection": 1, "speedStrength": 0.775, "speed_start": 0.12, "speed_end": 0.12377882460065043, "ori_start": -60, "ori_end": -50.76224867498159, "motion_direction": "in"}, "stimResponseInterval": 0.5354243235667102, "stimulusDuration": 1.5, "trial_count": 32, "ts": "orientation", "trial_type": "threshold_estimation", "exp_stage": "adaptive_procedure", "decision_var": 9.237751325018404, "response": "right", "rt": 0.34339458199974615, "FB": 1, "quest_estimate": 9.264914056688813, "trial_time": 2.9172093469969695}
{"FBDuration": 0.5, "FBonset": 0, "ITI": 0.6706500209362458, "displayFB": true, "onset": 150.56352761077292, "punishment_amount": 0, "responseWindow": 1.5, "reward_amount": 1, "stim": {"motionDirection": "in", "oriBase": 30, "oriDirection": -1, "oriStrength": 0.775, "speedDirection": 1, "speedStrength": 0.775, "speed_start": 0.12, "speed_end": 0.12377882460065043, "ori_start": 30, "ori_end": 20.771631049982812, "motion_direction": "in"}, "stimResponseInterval": 0.7663863735108363, "stimulusDuration": 1.5, "trial_count": 33, "ts": "orientation", "trial_type": "threshold_estimation", "exp_stage": "adaptive_procedure", "decision_var": 9.228368950017188, "response": "left", "rt": 0.27785430700168945, "FB": 1, "quest_estimate": 9.253107555330047, "trial_time": 3.083800947999407}
{"FBDuration": 0.5, "FBonset": 0, "ITI": 0.6602607537024707, "displayFB": true, "onset": 155.50056400522, "punishment_amount": 0, "responseWindow": 1.5, "reward_amount": 1, "stim": {"motionDirection": "in", "oriBase": 30, "oriDirection": -1, "oriStrength": 0.775, "speedDirection": 1, "speedStrength": 0.775, "speed_start": 0.12, "speed_end": 0.12377882460065043, "ori_start": 30, "ori_end": 20.78241019694767, "motion_direction": "in"}, "stimResponseInterval": 0.7819412648189821, "stimulusDuration": 1.5, "trial_count": 34, "ts": "orientation", "trial_type": "threshold_estimation", "exp_stage": "adaptive_procedure", "decision_var": 9.21758980305233, "response": "left", "rt": 0.294466432002082, "FB": 1, "quest_estimate": 9.241507286992729, "trial_time": 3.1106405239988817}
{"FBDuration": 0.5, "FBonset": 0, "ITI": 0.2175268615344894, "displayFB": true, "onset": 160.44276602374146, "punishment_amount": 0, "responseWindow": 1.5, "reward_amount": 1, "stim": {"motionDirection": "in", "oriBase": -60, "oriDirection": -1, "oriStrength": 0.775, "speedDirection": -1, "speedStrength": 0.775, "speed_start": 0.12, "speed_end": 0.11622117539934956, "ori_start": -60, "ori_end": -69.20495730507415, "motion_direction": "in"}, "stimResponseInterval": 0.7883170713900511, "stimulusDuration": 1.5, "trial_count": 35, "ts": "orientation", "trial_type": "threshold_estimation", "exp_stage": "adaptive_procedure", "decision_var": 9.204957305074153, "response": "left", "rt": 0.22497278400260257, "FB": 1, "quest_estimate": 9.229897387561575, "trial_time": 3.037274147995049}
{"FBDuration": 0.5, "FBonset": 0, "ITI": 0.06530319557083819, "displayFB": true, "onset": 164.948609956666, "punishment_amount": 0, "responseWindow": 1.5, "reward_amount": 1, "stim": {"motionDirection": "in", "oriBase": -60, "oriDirection": -1, "oriStrength": 0.775, "speedDirection": -1, "speedStrength": 0.775, "speed_start": 0.12, "speed_end": 0.11622117539934956, "ori_start": -60, "ori_end": -69.1939600010409, "motion_direction": "in"}, "stimResponseInterval": 0.008566613756472718, "stimulusDuration": 1.5, "trial_count": 36, "ts": "orientation", "trial_type": "threshold_estimation", "exp_stage": "adaptive_procedure", "decision_var": 9.19396000104091, "response": "left", "rt": 0.4150756330054719, "FB": 1, "quest_estimate": 9.218054815657531, "trial_time": 2.462265973998001}
{"FBDuration": 0.5, "FBonset": 0, "ITI": 0.6793437608496196, "displayFB": true, "onset": 168.5224797659933, "punishment_amount": 0, "responseWindow": 1.5, "reward_amount": 1, "stim": {"motionDirection": "out", "oriBase": -60, "oriDirection": 1, "oriStrength": 0.775, "speedDirection": -1, "speedStrength": 0.775, "speed_start": 0.12, "speed_end": 0.11622117539934956, "ori_start": -60, "ori_end": -50.814229596329625, "motion_direction": "out"}, "stimResponseInterval": 0.5302167384132563, "stimulusDuration": 1.5, "trial_count": 37, "ts": "orientation", "trial_type": "threshold_estimation", "exp_stage": "adaptive_procedure", "decision_var": 9.185770403670379, "response": "right", "rt": 0.2788796770037152, "FB": 1, "quest_estimate": 9.205749551529582, "trial_time": 2.833470336001483}
{"FBDuration": 0.5, "FBonset": 0, "ITI": 0.6769516224806891, "displayFB": true, "onset": 173.23204026525616, "punishment_amount": 0, "responseWindow": 1.5, "reward_amount": 1, "stim": {"motionDirection": "out", "oriBase": 30, "oriDirection": -1, "oriStrength": 0.775, "speedDirection": 1, "speedStrength": 0.775, "speed_start": 0.12, "speed_end": 0.12377882460065043, "ori_start": 30, "ori_end": 20.821397266587056, "motion_direction": "out"}, "stimResponseInterval": 0.2803779663033088, "stimulusDuration": 1.5, "trial_count": 38, "ts": "orientation", "trial_type": "threshold_estimation", "exp_stage": "adaptive_procedure", "decision_var": 9.178602733412944, "response": "left", "rt": 0.3105499359953683, "FB": 1, "quest_estimate": 9.192749237070466, "trial_time": 2.6205901149951387}
{"FBDuration": 0.5, "FBonset": 0, "ITI": 0.580639553692456, "displayFB": true, "onset": 177.68936985404017, "punishment_amount": 0, "responseWindow": 1.5, "reward_amount": 1, "stim": {"motionDirection": "out", "oriBase": -60, "oriDirection": -1, "oriStrength": 0.775, "speedDirection": -1, "speedStrength": 0.775, "speed_start": 0.12, "speed_end": 0.11622117539934956, "ori_start": -60, "ori_end": -69.17215450149594, "motion_direction": "out"}, "stimResponseInterval": 0.1291793952932132, "stimulusDuration": 1.5, "trial_count": 39, "ts": "orientation", "trial_type": "threshold_estimation", "exp_stage": "adaptive_procedure", "decision_var": 9.172154501495942, "response": "left", "rt": 0.4126517650001915, "FB": 1, "quest_estimate": 9.178828865277797, "trial_time": 2.57922008800233}
{"FBDuration": 0.5, "FBonset": 0, "ITI": 0.40381864296041414, "displayFB": true, "onset": 181.89918880302582, "punishment_amount": 0, "responseWindow": 1.5, "reward_amount": 1, "stim": {"motionDirection": "in", "oriBase": -60, "oriDirection": 1, "oriStrength": 0.775, "speedDirection": -1, "speedStrength": 0.775, "speed_start": 0.12, "speed_end": 0.11622117539934956, "ori_start": -60, "ori_end": -50.83384083753904, "motion_direction": "in"}, "stimResponseInterval": 0.14003425521948099, "stimulusDuration": 1.5, "trial_count": 40, "ts": "orientation", "trial_type": "threshold_estimation", "exp_stage": "adaptive_procedure", "decision_var": 9.166159162460957, "response": "right", "rt": 0.33943918599834433, "FB": 1, "quest_estimate": 9.163785439048073, "trial_time": 2.505850763998751}
{"FBDuration": 0.5, "FBonset": 0, "ITI": 0.6241412314357042, "displayFB": true, "onset": 185.94304170120571, "punishment_amount": 0, "responseWindow": 1.5, "reward_amount": 1, "stim": {"motionDirection": "out", "oriBase": 30, "oriDirection": 1, "oriStrength": 0.775, "speedDirection": -1, "speedStrength": 0.775, "speed_start": 0.12, "speed_end": 0.11622117539934956, "ori_start": 30, "ori_end": 39.16037151958885, "motion_direction": "out"}, "stimResponseInterval": 0.1847277806013925, "stimulusDuration": 1.5, "trial_count": 41, "ts": "orientation", "trial_type": "threshold_estimation", "exp_stage": "adaptive_procedure", "decision_var": 9.160371519588846, "response": "right", "rt": 0.3996236870007124, "FB": 1, "quest_estimate": 9.147456578911264, "trial_time": 2.615494131001469}
{"FBDuration": 0.5, "FBonset": 0, "ITI": 0.053699620688178906, "displayFB": true, "onset": 190.2519107132428, "punishment_amount": 0, "responseWindow": 1.5, "reward_amount": 1, "stim": {"motionDirection": "out", "oriBase": 30, "oriDirection": 1, "oriStrength": 0.775, "speedDirection": 1, "speedStrength": 0.775, "speed_start": 0.12, "speed_end": 0.12377882460065043, "ori_start": 30, "ori_end": 39.1545548074159, "motion_direction": "out"}, "stimResponseInterval": 0.14762432811142367, "stimulusDuration": 1.5, "trial_count": 42, "ts": "orientation", "trial_type": "threshold_estimation", "exp_stage": "adaptive_procedure", "decision_var": 9.154554807415899, "response": "right", "rt": 0.30720057200232986, "FB": 1, "quest_estimate": 9.12974091575768, "trial_time": 2.491829882004822}
{"FBDuration": 0.5, "FBonset": 0, "ITI": 0.8840542802999456, "displayFB": true, "onset": 193.9532346620424, "punishment_amount": 0, "responseWindow": 1.5, "reward_amount": 1, "stim": {"motionDirection": "out", "oriBase": 30, "oriDirection": -1, "oriStrength": 0.775, "speedDirection": -1, "speedStrength": 0.775, "speed_start": 0.12, "speed_end": 0.11622117539934956, "ori_start": 30, "ori_end": 20.851531454911246, "motion_direction": "out"}, "stimResponseInterval": 0.009045303085376433, "stimulusDuration": 1.5, "trial_count": 43, "ts": "orientation", "trial_type": "threshold_estimation", "exp_stage": "adaptive_procedure", "decision_var": 9.148468545088754, "response": "left", "rt": 0.44238423299975693, "FB": 1, "quest_estimate": 9.100307252054925, "trial_time": 2.4923079509972013}
{"FBDuration": 0.5, "FBonset": 0, "ITI": 0.880523793078845, "displayFB": true, "onset": 198.34633424542773, "punishment_amount": 0, "responseWindow": 1.5, "reward_amount": 1, "stim": {"motionDirection": "out", "oriBase": 30, "oriDirection": 1, "oriStrength": 0.775, "speedDirection": 1, "speedStrength": 0.775, "speed_start": 0.12, "speed_end": 0.12377882460065043, "ori_start": 30, "ori_end": 39.14058452921864, "motion_direction": "out"}, "stimResponseInterval": 0.6377690963638534, "stimulusDuration": 1.5, "trial_count": 44, "ts": "orientation", "trial_type": "threshold_estimation", "exp_stage": "adaptive_procedure", "decision_var": 9.14058452921864, "response": "right", "rt": 0.24822859300184064, "FB": 1, "quest_estimate": 9.064379302458054, "trial_time": 2.910201986996981}
{"FBDuration": 0.5, "FBonset": 0, "ITI": 0.2352147230485866, "displayFB": true, "onset": 203.36462713487043, "punishment_amount": 0, "responseWindow": 1.5, "reward_amount": 1, "stim": {"motionDirection": "out", "oriBase": -60, "oriDirection": 1, "oriStrength": 0.775, "speedDirection": -1, "speedStrength": 0.775, "speed_start": 0.12, "speed_end": 0.11622117539934956, "ori_start": -60, "ori_end": -50.86959296773257, "motion_direction": "out"}, "stimResponseInterval": 0.4920890902158791, "stimulusDuration": 1.5, "trial_count": 45, "ts": "orientation", "trial_type": "threshold_estimation", "exp_stage": "adaptive_procedure", "decision_var": 9.130407032267431, "response": "right", "rt": 0.28645271999994293, "FB": 1, "quest_estimate": 9.021982416407067, "trial_time": 2.8160578120005084}
{"FBDuration": 0.5, "FBonset": 0, "ITI": 0.43760354460170037, "displayFB": true, "onset": 207.5919309481349, "punishment_amount": 0, "responseWindow": 1.5, "reward_amount": 1, "stim": {"motionDirection": "in", "oriBase": 30, "oriDirection": -1, "oriStrength": 0.775, "speedDirection": -1, "speedStrength": 0.775, "speed_start": 0.12, "speed_end": 0.11622117539934956, "ori_start": 30, "ori_end": 20.883146789166897, "motion_direction": "in"}, "stimResponseInterval": 0.13846397595390159, "stimulusDuration": 1.5, "trial_count": 46, "ts": "orientation", "trial_type": "threshold_estimation", "exp_stage": "adaptive_procedure", "decision_var": 9.116853210833103, "response": "left", "rt": 0.39753141500114, "FB": 1, "quest_estimate": 8.974007200598415, "trial_time": 2.560832830000436}
{"FBDuration": 0.5, "FBonset": 0, "ITI": 0.8262005590336212, "displayFB": true, "onset": 211.66799846869048, "punishment_amount": 0, "responseWindow": 1.5, "reward_amount": 1, "stim": {"motionDirection": "out", "oriBase": 30, "oriDirection": -1, "oriStrength": 0.775, "speedDirection": 1, "speedStrength": 0.775, "speed_start": 0.12, "speed_end": 0.12377882460065043, "ori_start": 30, "ori_end": 20.90262830509779, "motion_direction": "out"}, "stimResponseInterval": 0.9839641634505598, "stimulusDuration": 1.5, "trial_count": 47, "ts": "orientation", "trial_type": "threshold_estimation", "exp_stage": "adaptive_procedure", "decision_var": 9.097371694902211, "response": "left", "rt": 0.12122841800010065, "FB": 1, "quest_estimate": 8.922222621625252, "trial_time": 3.1367213490011636}
{"FBDuration": 0.5, "FBonset": 0, "ITI": 0.9357520055079664, "displayFB": true, "onset": 216.97816319117467, "punishment_amount": 0, "responseWindow": 1.5, "reward_amount": 1, "stim": {"motionDirection": "in", "oriBase": -60, "oriDirection": -1, "oriStrength": 0.775, "speedDirection": -1, "speedStrength": 0.775, "speed_start": 0.12, "speed_end": 0.11622117539934956, "ori_start": -60, "ori_end": -69.06345039400597, "motion_direction": "in"}, "stimResponseInterval": 0.8778954396782557, "stimulusDuration": 1.5, "trial_count": 48, "ts": "orientation", "trial_type": "threshold_estimation", "exp_stage": "adaptive_procedure", "decision_var": 9.063450394005976, "response": "left", "rt": 0.3373713089968078, "FB": 1, "quest_estimate": 8.868995733453957, "trial_time": 3.2520407359988894}
{"FBDuration": 0.5, "FBonset": 0, "ITI": 0.2617398646442669, "displayFB": true, "onset": 222.2918106363609, "punishment_amount": 0, "responseWindow": 1.5, "reward_amount": 1, "stim": {"motionDirection": "out", "oriBase": 30, "oriDirection": 1, "oriStrength": 0.775, "speedDirection": 1, "speedStrength": 0.775, "speed_start": 0.12, "speed_end": 0.12377882460065043, "ori_start": 30, "ori_end": 39.02847301149485, "motion_direction": "out"}, "stimResponseInterval": 0.141650991018628, "stimulusDuration": 1.5, "trial_count": 49, "ts": "orientation", "trial_type": "threshold_estimation", "exp_stage": "adaptive_procedure", "decision_var": 9.028473011494857, "response": "right", "rt": 0.4672584709987859, "FB": 1, "quest_estimate": 8.79029167072158, "trial_time": 2.645164435998595}
{"FBDuration": 0.5, "FBonset": 0, "ITI": 0.6098952400679245, "displayFB": true, "onset": 226.1952014920238, "punishment_amount": 0, "responseWindow": 1.5, "reward_amount": 1, "stim": {"motionDirection": "in", "oriBase": -60, "oriDirection": 1, "oriStrength": 0.775, "speedDirection": 1, "speedStrength": 0.775, "speed_start": 0.12, "speed_end": 0.12377882460065043, "ori_start": -60, "ori_end": -51.02039847097182, "motion_direction": "in"}, "stimResponseInterval": 0.17279292325092788, "stimulusDuration": 1.5, "trial_count": 50, "ts": "orientation", "trial_type": "threshold_estimation", "exp_stage": "adaptive_procedure", "decision_var": 8.97960152902818, "response": "right", "rt": 0.4843617770020501, "FB": 1, "quest_estimate": 8.709516159849752, "trial_time": 2.688593286999094}
{"FBDuration": 0.5, "FBonset": 0, "ITI": 0.24832909784140167, "displayFB": true, "onset": 230.47788965534266, "punishment_amount": 0, "responseWindow": 1.5, "reward_amount": 1, "stim": {"motionDirection": "in", "oriBase": -60, "oriDirection": 1, "oriStrength": 0.775, "speedDirection": 1, "speedStrength": 0.775, "speed_start": 0.12, "speed_end": 0.12377882460065043, "ori_start": -60, "ori_end": -51.073969337887476, "motion_direction": "in"}, "stimResponseInterval": 0.18160665740785553, "stimulusDuration": 1.5, "trial_count": 51, "ts": "orientation", "trial_type": "threshold_estimation", "exp_stage": "adaptive_procedure", "decision_var": 8.92603066211252, "response": "right", "rt": 0.3627303179964656, "FB": 1, "quest_estimate": 8.594742783350195, "trial_time": 2.575411425998027}
{"FBDuration": 0.5, "FBonset": 0, "ITI": 0.784051333536737, "displayFB": true, "onset": 234.40782541059193, "punishment_amount": 0, "responseWindow": 1.5, "reward_amount": 1, "stim": {"motionDirection": "out", "oriBase": -60, "oriDirection": 1, "oriStrength": 0.775, "speedDirection": 1, "speedStrength": 0.775, "speed_start": 0.12, "speed_end": 0.12377882460065043, "ori_start": -60, "ori_end": -51.11905983935259, "motion_direction": "out"}, "stimResponseInterval": 0.5250662018816517, "stimulusDuration": 1.5, "trial_count": 52, "ts": "orientation", "trial_type": "threshold_estimation", "exp_stage": "adaptive_procedure", "decision_var": 8.880940160647416, "response": "right", "rt": 0.3122058980006841, "FB": 1, "quest_estimate": 8.473787777167338, "trial_time": 2.8709752510039834}
{"FBDuration": 0.5, "FBonset": 0, "ITI": 0.3809750434356436, "displayFB": true, "onset": 239.2169429460103, "punishment_amount": 0, "responseWindow": 1.5, "reward_amount": 1, "stim": {"motionDirection": "out", "oriBase": -60, "oriDirection": -1, "oriStrength": 0.775, "speedDirection": 1, "speedStrength": 0.775, "speed_start": 0.12, "speed_end": 0.12377882460065043, "ori_start": -60, "ori_end": -68.84878269590075, "motion_direction": "out"}, "stimResponseInterval": 0.48492082668019476, "stimulusDuration": 1.5, "trial_count": 53, "ts": "orientation", "trial_type": "threshold_estimation", "exp_stage": "adaptive_procedure", "decision_var": 8.84878269590076, "response": "left", "rt": 0.37586866499623284, "FB": 1, "quest_estimate": 8.29961740694208, "trial_time": 2.9006768249964807}
{"FBDuration": 0.5, "FBonset": 0, "ITI": 0.03223461763569291, "displayFB": true, "onset": 243.58283881612616, "punishment_amount": 0, "responseWindow": 1.5, "reward_amount": 1, "stim": {"motionDirection": "in", "oriBase": 30, "oriDirection": 1, "oriStrength": 0.775, "speedDirection": 1, "speedStrength": 0.775, "speed_start": 0.12, "speed_end": 0.12377882460065043, "ori_start": 30, "ori_end": 38.81170217213898, "motion_direction": "in"}, "stimResponseInterval": 0.5988409393898002, "stimulusDuration": 1.5, "trial_count": 54, "ts": "orientation", "trial_type": "threshold_estimation", "exp_stage": "adaptive_procedure", "decision_var": 8.811702172138979, "response": "left", "rt": 0.35268235400144476, "FB": 0, "quest_estimate": 8.93931422981274, "trial_time": 2.990590424997208}
{"FBDuration": 0.5, "FBonset": 0, "ITI": 0.8810440237694905, "displayFB": true, "onset": 247.71391437315165, "punishment_amount": 0, "responseWindow": 1.5, "reward_amount": 1, "stim": {"motionDirection": "out", "oriBase": 30, "oriDirection": 1, "oriStrength": 0.775, "speedDirection": -1, "speedStrength": 0.775, "speed_start": 0.12, "speed_end": 0.11622117539934956, "ori_start": 30, "ori_end": 38.90105165409288, "motion_direction": "out"}, "stimResponseInterval": 0.8035218731441154, "stimulusDuration": 1.5, "trial_count": 55, "ts": "orientation", "trial_type": "threshold_estimation", "exp_stage": "adaptive_procedure", "decision_var": 8.901051654092885, "response": "right", "rt": 0.43014270099956775, "FB": 1, "quest_estimate": 8.91209615646002, "trial_time": 3.2740623650024645}
{"FBDuration": 0.5, "FBonset": 0, "ITI": 0.10169378236563109, "displayFB": true, "onset": 252.89848027006525, "punishment_amount": 0, "responseWindow": 1.5, "reward_amount": 1, "stim": {"motionDirection": "out", "oriBase": -60, "oriDirection": 1, "oriStrength": 0.775, "speedDirection": 1, "speedStrength": 0.775, "speed_start": 0.12, "speed_end": 0.12377882460065043, "ori_start": -60, "ori_end": -51.11902171960632, "motion_direction": "out"}, "stimResponseInterval": 0.6802517330031876, "stimulusDuration": 1.5, "trial_count": 56, "ts": "orientation", "trial_type": "threshold_estimation", "exp_stage": "adaptive_procedure", "decision_var": 8.88097828039368, "response": "right", "rt": 0.40062668299651705, "FB": 1, "quest_estimate": 8.885770858501427, "trial_time": 3.1175214930044604}
{"FBDuration": 0.5, "FBonset": 0, "ITI": 0.5064393217841499, "displayFB": true, "onset": 257.18042578543407, "punishment_amount": 0, "responseWindow": 1.5, "reward_amount": 1, "stim": {"motionDirection": "in", "oriBase": -60, "oriDirection": -1, "oriStrength": 0.775, "speedDirection": 1, "speedStrength": 0.775, "speed_start": 0.12, "speed_end": 0.12377882460065043, "ori_start": -60, "ori_end": -68.86421584006463, "motion_direction": "in"}, "stimResponseInterval": 0.8424886824202265, "stimulusDuration": 1.5, "trial_count": 57, "ts": "orientation", "trial_type": "threshold_estimation", "exp_stage": "adaptive_procedure", "decision_var": 8.864215840064631, "response": "left", "rt": 0.34891681999579305, "FB": 1, "quest_estimate": 8.860735311086, "trial_time": 3.2286153200038825}
{"FBDuration": 0.5, "FBonset": 0, "ITI": 0.8935269644647508, "displayFB": true, "onset": 262.02935378963844, "punishment_amount": 0, "responseWindow": 1.5, "reward_amount": 1, "stim": {"motionDirection": "out", "oriBase": -60, "oriDirection": -1, "oriStrength": 0.775, "speedDirection": -1, "speedStrength": 0.775, "speed_start": 0.12, "speed_end": 0.11622117539934956, "ori_start": -60, "ori_end": -68.84907307399342, "motion_direction": "out"}, "stimResponseInterval": 0.41573921821080384, "stimulusDuration": 1.5, "trial_count": 58, "ts": "orientation", "trial_type": "threshold_estimation", "exp_stage": "adaptive_procedure", "decision_var": 8.84907307399342, "response": "left", "rt": 0.32740361399919493, "FB": 1, "quest_estimate": 8.83252127350654, "trial_time": 2.779104669003573}
{"FBDuration": 0.5, "FBonset": 0, "ITI": 0.8241448463832954, "displayFB": true, "onset": 266.838619972314, "punishment_amount": 0, "responseWindow": 1.5, "reward_amount": 1, "stim": {"motionDirection": "in", "oriBase": 30, "oriDirection": -1, "oriStrength": 0.775, "speedDirection": -1, "speedStrength": 0.775, "speed_start": 0.12, "speed_end": 0.11622117539934956, "ori_start": 30, "ori_end": 21.164685611836525, "motion_direction": "in"}, "stimResponseInterval": 0.2739940421244704, "stimulusDuration": 1.5, "trial_count": 59, "ts": "orientation", "trial_type": "threshold_estimation", "exp_stage": "adaptive_procedure", "decision_var": 8.835314388163475, "response": "left", "rt": 0.3171304389979923, "FB": 1, "quest_estimate": 8.800341426716123, "trial_time": 2.6163396680058213}
{"FBDuration": 0.5, "FBonset": 0, "ITI": 0.538995230046575, "displayFB": true, "onset": 271.4367588608218, "punishment_amount": 0, "responseWindow": 1.5, "reward_amount": 1, "stim": {"motionDirection": "in", "oriBase": -60, "oriDirection": 1, "oriStrength": 0.775, "speedDirection": -1, "speedStrength": 0.775, "speed_start": 0.12, "speed_end": 0.11622117539934956, "ori_start": -60, "ori_end": -51.180172308415735, "motion_direction": "in"}, "stimResponseInterval": 0.33353461636970927, "stimulusDuration": 1.5, "trial_count": 60, "ts": "orientation", "trial_type": "threshold_estimation", "exp_stage": "adaptive_procedure", "decision_var": 8.819827691584265, "response": "right", "rt": 0.3445144290017197, "FB": 1, "quest_estimate": 8.763365876225617, "trial_time": 2.7033804599996074}
{"FBDuration": 0.5, "FBonset": 0, "ITI": 0.049711507170839164, "displayFB": true, "onset": 275.80928870723807, "punishment_amount": 0, "responseWindow": 1.5, "reward_amount": 1, "stim": {"motionDirection": "in", "oriBase": 30, "oriDirection": 1, "oriStrength": 0.775, "speedDirection": 1, "speedStrength": 0.775, "speed_start": 0.12, "speed_end": 0.12377882460065043, "ori_start": 30, "ori_end": 38.801702416897285, "motion_direction": "in"}, "stimResponseInterval": 0.6824987188466158, "stimulusDuration": 1.5, "trial_count": 61, "ts": "orientation", "trial_type": "threshold_estimation", "exp_stage": "adaptive_procedure", "decision_var": 8.801702416897285, "response": "left", "rt": 0.2620005819990183, "FB": 0, "quest_estimate": 8.880985260039843, "trial_time": 2.97953295300249}
{"FBDuration": 0.5, "FBonset": 0, "ITI": 0.19263616460425625, "displayFB": true, "onset": 280.0414989332555, "punishment_amount": 0, "responseWindow": 1.5, "reward_amount": 1, "stim": {"motionDirection": "in", "oriBase": -60, "oriDirection": -1, "oriStrength": 0.775, "speedDirection": 1, "speedStrength": 0.775, "speed_start": 0.12, "speed_end": 0.12377882460065043, "ori_start": -60, "ori_end": -68.842175352469, "motion_direction": "in"}, "stimResponseInterval": 0.3460636742357218, "stimulusDuration": 1.5, "trial_count": 62, "ts": "orientation", "trial_type": "threshold_estimation", "exp_stage": "adaptive_procedure", "decision_var": 8.842175352469003, "response": "left", "rt": 0.29021664599713404, "FB": 1, "quest_estimate": 8.86804407484938, "trial_time": 2.6710804400063353}
{"FBDuration": 0.5, "FBonset": 0, "ITI": 0.2994503729197191, "displayFB": true, "onset": 284.0801987720955, "punishment_amount": 0, "responseWindow": 1.5, "reward_amount": 1, "stim": {"motionDirection": "in", "oriBase": 30, "oriDirection": 1, "oriStrength": 0.775, "speedDirection": -1, "speedStrength": 0.775, "speed_start": 0.12, "speed_end": 0.11622117539934956, "ori_start": 30, "ori_end": 38.83026950249953, "motion_direction": "in"}, "stimResponseInterval": 0.3451206790985576, "stimulusDuration": 1.5, "trial_count": 63, "ts": "orientation", "trial_type": "threshold_estimation", "exp_stage": "adaptive_procedure", "decision_var": 8.83026950249953, "response": "right", "rt": 0.2841965369952959, "FB": 1, "quest_estimate": 8.855565864801118, "trial_time": 2.6571041329953005}
{"FBDuration": 0.5, "FBonset": 0, "ITI": 0.22619915674870716, "displayFB": true, "onset": 288.22476982411376, "punishment_amount": 0, "responseWindow": 1.5, "reward_amount": 1, "stim": {"motionDirection": "in", "oriBase": 30, "oriDirection": -1, "oriStrength": 0.775, "speedDirection": -1, "speedStrength": 0.775, "speed_start": 0.12, "speed_end": 0.11622117539934956, "ori_start": 30, "ori_end": 21.18295307153043, "motion_direction": "in"}, "stimResponseInterval": 0.0036534080135161018, "stimulusDuration": 1.5, "trial_count": 64, "ts": "orientation", "trial_type": "threshold_estimation", "exp_stage": "adaptive_procedure", "decision_var": 8.81704692846957, "response": "left", "rt": 0.4151128779994906, "FB": 1, "quest_estimate": 8.843491111394815, "trial_time": 2.461435164004797}
