{"FBDuration": 0.5, "FBonset": 0, "ITI": 0.21014646303619333, "displayFB": true, "onset": 2, "punishment_amount": 0, "responseWindow": 1.5, "reward_amount": 1, "stim": {"motionDirection": "in", "oriBase": 30, "oriDirection": 1, "oriStrength": 0.775, "speedDirection": 1, "speedStrength": 0.775, "speed_start": 0.12, "speed_end": 0.13756705854999285, "ori_start": 30, "ori_end": 38.550128261859044, "motion_direction": "in"}, "stimResponseInterval": 0.43570891507828535, "stimulusDuration": 1.5, "trial_count": 1, "ts": "motion", "trial_type": "intensity-95", "exp_stage": "adaptive_procedure", "decision_var": 0.017567058549992853, "response": "up", "rt": 0.284239371001604, "FB": 1, "quest_estimate": 0.007664097386055044, "trial_time": 2.7564552559924778}
{"FBDuration": 0.5, "FBonset": 0, "ITI": 0.6711208981516124, "displayFB": true, "onset": 6.1458553781144785, "punishment_amount": 0, "responseWindow": 1.5, "reward_amount": 1, "stim": {"motionDirection": "in", "oriBase": -60, "oriDirection": -1, "oriStrength": 0.775, "speedDirection": -1, "speedStrength": 0.775, "speed_start": 0.12, "speed_end": 0.10815151017215698, "ori_start": -60, "ori_end": -68.55012826185904, "motion_direction": "in"}, "stimResponseInterval": 0.5961672044693804, "stimulusDuration": 1.5, "trial_count": 2, "ts": "motion", "trial_type": "intensity-85", "exp_stage": "adaptive_procedure", "decision_var": 0.011848489827843025, "response": "down", "rt": 0.2735657080047531, "FB": 1, "quest_estimate": 0.007188253008105973, "trial_time": 2.9090776560042286}
{"FBDuration": 0.5, "FBonset": 0, "ITI": 0.9012424563048662, "displayFB": true, "onset": 10.91314348073547, "punishment_amount": 0, "responseWindow": 1.5, "reward_amount": 1, "stim": {"motionDirection": "out", "oriBase": 30, "oriDirection": -1, "oriStrength": 0.775, "speedDirection": -1, "speedStrength": 0.775, "speed_start": 0.12, "speed_end": 0.11574357238622662, "ori_start": 30, "ori_end": 21.44987173814096, "motion_direction": "out"}, "stimResponseInterval": 0.8130204202075846, "stimulusDuration": 1.5, "trial_count": 3, "ts": "motion", "trial_type": "intensity-60", "exp_stage": "adaptive_procedure", "decision_var": 0.004256427613773368, "response": "down", "rt": 0.2660490709968144, "FB": 1, "quest_estimate": 0.006714421597178548, "trial_time": 3.115849991008872}
{"FBDuration": 0.5, "FBonset": 0, "ITI": 0.834645094433154, "displayFB": true, "onset": 16.12740635724792, "punishment_amount": 0, "responseWindow": 1.5, "reward_amount": 1, "stim": {"motionDirection": "in", "oriBase": 30, "oriDirection": 1, "oriStrength": 0.775, "speedDirection": -1, "speedStrength": 0.775, "speed_start": 0.12, "speed_end": 0.11296100331380873, "ori_start": 30, "ori_end": 38.550128261859044, "motion_direction": "in"}, "stimResponseInterval": 0.1314572408062895, "stimulusDuration": 1.5, "trial_count": 4, "ts": "motion", "trial_type": "intensity-70", "exp_stage": "adaptive_procedure", "decision_var": 0.0070389966861912606, "response": "up", "rt": 0.3906443800078705, "FB": 0, "quest_estimate": 0.008342288355655404, "trial_time": 2.55852067800879}
{"FBDuration": 0.5, "FBonset": 0, "ITI": 0.5994378137622958, "displayFB": true, "onset": 20.593508692487365, "punishment_amount": 0, "responseWindow": 1.5, "reward_amount": 1, "stim": {"motionDirection": "in", "oriBase": -60, "oriDirection": 1, "oriStrength": 0.775, "speedDirection": -1, "speedStrength": 0.775, "speed_start": 0.12, "speed_end": 0.10815151017215698, "ori_start": -60, "ori_end": -51.449871738140956, "motion_direction": "in"}, "stimResponseInterval": 0.7213915142935505, "stimulusDuration": 1.5, "trial_count": 5, "ts": "motion", "trial_type": "intensity-85", "exp_stage": "adaptive_procedure", "decision_var": 0.011848489827843025, "response": "up", "rt": 0.24558293000154663, "FB": 0, "quest_estimate": 0.010027464168060642, "trial_time": 3.0029897589993197}
{"FBDuration": 0.5, "FBonset": 0, "ITI": 0.8687504883501789, "displayFB": true, "onset": 25.414338020543212, "punishment_amount": 0, "responseWindow": 1.5, "reward_amount": 1, "stim": {"motionDirection": "out", "oriBase": 30, "oriDirection": -1, "oriStrength": 0.775, "speedDirection": -1, "speedStrength": 0.775, "speed_start": 0.12, "speed_end": 0.11296100331380873, "ori_start": 30, "ori_end": 21.44987173814096, "motion_direction": "out"}, "stimResponseInterval": 0.04646441085532782, "stimulusDuration": 1.5, "trial_count": 6, "ts": "motion", "trial_type": "intensity-70", "exp_stage": "adaptive_procedure", "decision_var": 0.0070389966861912606, "response": "down", "rt": 0.3327239990030648, "FB": 1, "quest_estimate": 0.009547859764358395, "trial_time": 2.4086594139953377}
{"FBDuration": 0.5, "FBonset": 0, "ITI": 0.09917119203443858, "displayFB": true, "onset": 29.82955291974872, "punishment_amount": 0, "responseWindow": 1.5, "reward_amount": 1, "stim": {"motionDirection": "in", "oriBase": 30, "oriDirection": 1, "oriStrength": 0.775, "speedDirection": 1, "speedStrength": 0.775, "speed_start": 0.12, "speed_end": 0.12425642761377337, "ori_start": 30, "ori_end": 38.550128261859044, "motion_direction": "in"}, "stimResponseInterval": 0.8020331019454365, "stimulusDuration": 1.5, "trial_count": 7, "ts": "motion", "trial_type": "intensity-60", "exp_stage": "adaptive_procedure", "decision_var": 0.004256427613773368, "response": "down", "rt": 0.5170162520080339, "FB": 0, "quest_estimate": 0.011124889227308268, "trial_time": 3.3496222969988594}
{"FBDuration": 0.5, "FBonset": 0, "ITI": 0.7571238055380438, "displayFB": true, "onset": 34.230757213728594, "punishment_amount": 0, "responseWindow": 1.5, "reward_amount": 1, "stim": {"motionDirection": "in", "oriBase": -60, "oriDirection": 1, "oriStrength": 0.775, "speedDirection": 1, "speedStrength": 0.775, "speed_start": 0.12, "speed_end": 0.12703899668619126, "ori_start": -60, "ori_end": -51.449871738140956, "motion_direction": "in"}, "stimResponseInterval": 0.7910219552926081, "stimulusDuration": 1.5, "trial_count": 8, "ts": "motion", "trial_type": "intensity-70", "exp_stage": "adaptive_procedure", "decision_var": 0.0070389966861912606, "response": "up", "rt": 0.27914517700264696, "FB": 1, "quest_estimate": 0.010644104871187006, "trial_time": 3.097325014998205}
{"FBDuration": 0.5, "FBonset": 0, "ITI": 0.6217550648625161, "displayFB": true, "onset": 39.278902974559244, "punishment_amount": 0, "responseWindow": 1.5, "reward_amount": 1, "stim": {"motionDirection": "out", "oriBase": -60, "oriDirection": 1, "oriStrength": 0.775, "speedDirection": -1, "speedStrength": 0.775, "speed_start": 0.12, "speed_end": 0.10243294145000714, "ori_start": -60, "ori_end": -51.449871738140956, "motion_direction": "out"}, "stimResponseInterval": 0.37656277235158364, "stimulusDuration": 1.5, "trial_count": 9, "ts": "motion", "trial_type": "intensity-95", "exp_stage": "adaptive_procedure", "decision_var": 0.017567058549992853, "response": "down", "rt": 0.26056625400087796, "FB": 1, "quest_estimate": 0.010168457360235424, "trial_time": 2.6641213490074733}
{"FBDuration": 0.5, "FBonset": 0, "ITI": 0.3612184727323513, "displayFB": true, "onset": 43.77722081177335, "punishment_amount": 0, "responseWindow": 1.5, "reward_amount": 1, "stim": {"motionDirection": "out", "oriBase": 30, "oriDirection": 1, "oriStrength": 0.775, "speedDirection": -1, "speedStrength": 0.775, "speed_start": 0.12, "speed_end": 0.10243294145000714, "ori_start": 30, "ori_end": 38.550128261859044, "motion_direction": "out"}, "stimResponseInterval": 0.9460212262168735, "stimulusDuration": 1.5, "trial_count": 10, "ts": "motion", "trial_type": "intensity-95", "exp_stage": "adaptive_procedure", "decision_var": 0.017567058549992853, "response": "down", "rt": 0.11910330899991095, "FB": 1, "quest_estimate": 0.009696170331157904, "trial_time": 3.0927936070074793}
{"FBDuration": 0.5, "FBonset": 0, "ITI": 0.7134971885555033, "displayFB": true, "onset": 48.58446051072257, "punishment_amount": 0, "responseWindow": 1.5, "reward_amount": 1, "stim": {"motionDirection": "out", "oriBase": -60, "oriDirection": -1, "oriStrength": 0.775, "speedDirection": 1, "speedStrength": 0.775, "speed_start": 0.12, "speed_end": 0.12425642761377337, "ori_start": -60, "ori_end": -68.55012826185904, "motion_direction": "out"}, "stimResponseInterval": 0.10437959856389056, "stimulusDuration": 1.5, "trial_count": 11, "ts": "motion", "trial_type": "intensity-60", "exp_stage": "adaptive_procedure", "decision_var": 0.004256427613773368, "response": "up", "rt": 0.33462121899356134, "FB": 1, "quest_estimate": 0.009224889488960011, "trial_time": 2.4735318629973335}
{"FBDuration": 0.5, "FBonset": 0, "ITI": 0.3821269261282777, "displayFB": true, "onset": 52.90233729784197, "punishment_amount": 0, "responseWindow": 1.5, "reward_amount": 1, "stim": {"motionDirection": "in", "oriBase": 30, "oriDirection": -1, "oriStrength": 0.775, "speedDirection": -1, "speedStrength": 0.775, "speed_start": 0.12, "speed_end": 0.11574357238622662, "ori_start": 30, "ori_end": 21.44987173814096, "motion_direction": "in"}, "stimResponseInterval": 0.1289737642922827, "stimulusDuration": 1.5, "trial_count": 12, "ts": "motion", "trial_type": "intensity-60", "exp_stage": "adaptive_procedure", "decision_var": 0.004256427613773368, "response": "down", "rt": 0.5067713239986915, "FB": 1, "quest_estimate": 0.008756616665567575, "trial_time": 2.6675728720001644}
{"FBDuration": 0.5, "FBonset": 0, "ITI": 0.8322530571988609, "displayFB": true, "onset": 56.91343798826253, "punishment_amount": 0, "responseWindow": 1.5, "reward_amount": 1, "stim": {"motionDirection": "out", "oriBase": 30, "oriDirection": 1, "oriStrength": 0.775, "speedDirection": 1, "speedStrength": 0.775, "speed_start": 0.12, "speed_end": 0.13184848982784303, "ori_start": 30, "ori_end": 38.550128261859044, "motion_direction": "out"}, "stimResponseInterval": 0.2964046210173127, "stimulusDuration": 1.5, "trial_count": 13, "ts": "motion", "trial_type": "intensity-85", "exp_stage": "adaptive_procedure", "decision_var": 0.011848489827843025, "response": "up", "rt": 0.2816370590007864, "FB": 1, "quest_estimate": 0.008292283047369675, "trial_time": 2.6141004760138458}
{"FBDuration": 0.5, "FBonset": 0, "ITI": 0.7563992062218023, "displayFB": true, "onset": 61.5420956664787, "punishment_amount": 0, "responseWindow": 1.5, "reward_amount": 1, "stim": {"motionDirection": "in", "oriBase": -60, "oriDirection": -1, "oriStrength": 0.775, "speedDirection": 1, "speedStrength": 0.775, "speed_start": 0.12, "speed_end": 0.13184848982784303, "ori_start": -60, "ori_end": -68.55012826185904, "motion_direction": "in"}, "stimResponseInterval": 0.42276318502167476, "stimulusDuration": 1.5, "trial_count": 14, "ts": "motion", "trial_type": "intensity-85", "exp_stage": "adaptive_procedure", "decision_var": 0.011848489827843025, "response": "down", "rt": 0.27432400100224186, "FB": 0, "quest_estimate": 0.00993236899941223, "trial_time": 2.736356794994208}
{"FBDuration": 0.5, "FBonset": 0, "ITI": 0.8988566456657825, "displayFB": true, "onset": 66.22125805772218, "punishment_amount": 0, "responseWindow": 1.5, "reward_amount": 1, "stim": {"motionDirection": "in", "oriBase": 30, "oriDirection": 1, "oriStrength": 0.775, "speedDirection": -1, "speedStrength": 0.775, "speed_start": 0.12, "speed_end": 0.10243294145000714, "ori_start": 30, "ori_end": 38.550128261859044, "motion_direction": "in"}, "stimResponseInterval": 0.8060588040648025, "stimulusDuration": 1.5, "trial_count": 15, "ts": "motion", "trial_type": "intensity-95", "exp_stage": "adaptive_procedure", "decision_var": 0.017567058549992853, "response": "down", "rt": 0.3114715349947801, "FB": 1, "quest_estimate": 0.00946799962134761, "trial_time": 3.142883612003061}
{"FBDuration": 0.5, "FBonset": 0, "ITI": 0.9865136092542555, "displayFB": true, "onset": 71.42617350745277, "punishment_amount": 0, "responseWindow": 1.5, "reward_amount": 1, "stim": {"motionDirection": "in", "oriBase": -60, "oriDirection": 1, "oriStrength": 0.775, "speedDirection": -1, "speedStrength": 0.775, "speed_start": 0.12, "speed_end": 0.10243294145000714, "ori_start": -60, "ori_end": -51.449871738140956, "motion_direction": "in"}, "stimResponseInterval": 0.329505564443656, "stimulusDuration": 1.5, "trial_count": 16, "ts": "motion", "trial_type": "intensity-95", "exp_stage": "adaptive_procedure", "decision_var": 0.017567058549992853, "response": "down", "rt": 0.2855271769949468, "FB": 1, "quest_estimate": 0.009006843185711412, "trial_time": 2.6496943300007842}
{"FBDuration": 0.5, "FBonset": 0, "ITI": 0.04929436878088156, "displayFB": true, "onset": 76.24219268115068, "punishment_amount": 0, "responseWindow": 1.5, "reward_amount": 1, "stim": {"motionDirection": "out", "oriBase": 30, "oriDirection": -1, "oriStrength": 0.775, "speedDirection": -1, "speedStrength": 0.775, "speed_start": 0.12, "speed_end": 0.11296100331380873, "ori_start": 30, "ori_end": 21.44987173814096, "motion_direction": "out"}, "stimResponseInterval": 0.3798172540707687, "stimulusDuration": 1.5, "trial_count": 17, "ts": "motion", "trial_type": "intensity-70", "exp_stage": "adaptive_procedure", "decision_var": 0.0070389966861912606, "response": "down", "rt": 0.2831582849903498, "FB": 1, "quest_estimate": 0.008546551574369475, "trial_time": 2.697019198007183}
{"FBDuration": 0.5, "FBonset": 0, "ITI": 0.27128271714515584, "displayFB": true, "onset": 80.17130430400233, "punishment_amount": 0, "responseWindow": 1.5, "reward_amount": 1, "stim": {"motionDirection": "in", "oriBase": 30, "oriDirection": -1, "oriStrength": 0.775, "speedDirection": 1, "speedStrength": 0.775, "speed_start": 0.12, "speed_end": 0.13756705854999285, "ori_start": 30, "ori_end": 21.44987173814096, "motion_direction": "in"}, "stimResponseInterval": 0.8795829300639404, "stimulusDuration": 1.5, "trial_count": 18, "ts": "motion", "trial_type": "intensity-95", "exp_stage": "adaptive_procedure", "decision_var": 0.017567058549992853, "response": "up", "rt": 0.2624245409970172, "FB": 1, "quest_estimate": 0.00809160775639408, "trial_time": 3.1794684740016237}
{"FBDuration": 0.5, "FBonset": 0, "ITI": 0.7260883078680918, "displayFB": true, "onset": 84.82216995121144, "punishment_amount": 0, "responseWindow": 1.5, "reward_amount": 1, "stim": {"motionDirection": "out", "oriBase": -60, "oriDirection": 1, "oriStrength": 0.775, "speedDirection": 1, "speedStrength": 0.775, "speed_start": 0.12, "speed_end": 0.12703899668619126, "ori_start": -60, "ori_end": -51.449871738140956, "motion_direction": "out"}, "stimResponseInterval": 0.18947934751964934, "stimulusDuration": 1.5, "trial_count": 19, "ts": "motion", "trial_type": "intensity-70", "exp_stage": "adaptive_procedure", "decision_var": 0.0070389966861912606, "response": "up", "rt": 0.3657702399941627, "FB": 1, "quest_estimate": 0.007637256304475794, "trial_time": 2.589075430005323}
{"FBDuration": 0.5, "FBonset": 0, "ITI": 0.45042329941679904, "displayFB": true, "onset": 89.23773760659918, "punishment_amount": 0, "responseWindow": 1.5, "reward_amount": 1, "stim": {"motionDirection": "in", "oriBase": 30, "oriDirection": -1, "oriStrength": 0.775, "speedDirection": -1, "speedStrength": 0.775, "speed_start": 0.12, "speed_end": 0.10243294145000714, "ori_start": 30, "ori_end": 21.44987173814096, "motion_direction": "in"}, "stimResponseInterval": 0.9324799122679566, "stimulusDuration": 1.5, "trial_count": 20, "ts": "motion", "trial_type": "intensity-95", "exp_stage": "adaptive_procedure", "decision_var": 0.017567058549992853, "response": "down", "rt": 0.30809361500723753, "FB": 1, "quest_estimate": 0.007188387487738264, "trial_time": 3.274907629005611}
{"FBDuration": 0.5, "FBonset": 0, "ITI": 0.16276151241875503, "displayFB": true, "onset": 94.12064081828393, "punishment_amount": 0, "responseWindow": 1.5, "reward_amount": 1, "stim": {"motionDirection": "in", "oriBase": -60, "oriDirection": -1, "oriStrength": 0.775, "speedDirection": 1, "speedStrength": 0.775, "speed_start": 0.12, "speed_end": 0.12703899668619126, "ori_start": -60, "ori_end": -68.55012826185904, "motion_direction": "in"}, "stimResponseInterval": 0.7767802167827749, "stimulusDuration": 1.5, "trial_count": 21, "ts": "motion", "trial_type": "intensity-70", "exp_stage": "adaptive_procedure", "decision_var": 0.0070389966861912606, "response": "down", "rt": 0.3032746560056694, "FB": 0, "quest_estimate": 0.008734373584606811, "trial_time": 3.112966760993004}
{"FBDuration": 0.5, "FBonset": 0, "ITI": 0.7891448039440823, "displayFB": true, "onset": 98.56018254748547, "punishment_amount": 0, "responseWindow": 1.5, "reward_amount": 1, "stim": {"motionDirection": "out", "oriBase": -60, "oriDirection": -1, "oriStrength": 0.775, "speedDirection": -1, "speedStrength": 0.775, "speed_start": 0.12, "speed_end": 0.10815151017215698, "ori_start": -60, "ori_end": -68.55012826185904, "motion_direction": "out"}, "stimResponseInterval": 0.9182344178108004, "stimulusDuration": 1.5, "trial_count": 22, "ts": "motion", "trial_type": "intensity-85", "exp_stage": "adaptive_procedure", "decision_var": 0.011848489827843025, "response": "down", "rt": 0.30775519799499307, "FB": 1, "quest_estimate": 0.00828255026160963, "trial_time": 3.2509634320012992}
{"FBDuration": 0.5, "FBonset": 0, "ITI": 0.14602811988764863, "displayFB": true, "onset": 103.76756176924034, "punishment_amount": 0, "responseWindow": 1.5, "reward_amount": 1, "stim": {"motionDirection": "out", "oriBase": 30, "oriDirection": 1, "oriStrength": 0.775, "speedDirection": -1, "speedStrength": 0.775, "speed_start": 0.12, "speed_end": 0.11574357238622662, "ori_start": 30, "ori_end": 38.550128261859044, "motion_direction": "out"}, "stimResponseInterval": 0.22714378310047378, "stimulusDuration": 1.5, "trial_count": 23, "ts": "motion", "trial_type": "intensity-60", "exp_stage": "adaptive_procedure", "decision_var": 0.004256427613773368, "response": "down", "rt": 0.36978537299728487, "FB": 1, "quest_estimate": 0.007832643952486396, "trial_time": 2.6286819060042035}
{"FBDuration": 0.5, "FBonset": 0, "ITI": 0.5699421583165263, "displayFB": true, "onset": 107.64073367222846, "punishment_amount": 0, "responseWindow": 1.5, "reward_amount": 1, "stim": {"motionDirection": "in", "oriBase": -60, "oriDirection": 1, "oriStrength": 0.775, "speedDirection": 1, "speedStrength": 0.775, "speed_start": 0.12, "speed_end": 0.13756705854999285, "ori_start": -60, "ori_end": -51.449871738140956, "motion_direction": "in"}, "stimResponseInterval": 0.6748153341816412, "stimulusDuration": 1.5, "trial_count": 24, "ts": "motion", "trial_type": "intensity-95", "exp_stage": "adaptive_procedure", "decision_var": 0.017567058549992853, "response": "up", "rt": 0.22970769999665208, "FB": 1, "quest_estimate": 0.007388271490870346, "trial_time": 2.928800752997631}
{"FBDuration": 0.5, "FBonset": 0, "ITI": 0.4210143709370656, "displayFB": true, "onset": 112.38549116472663, "punishment_amount": 0, "responseWindow": 1.5, "reward_amount": 1, "stim": {"motionDirection": "in", "oriBase": 30, "oriDirection": 1, "oriStrength": 0.775, "speedDirection": -1, "speedStrength": 0.775, "speed_start": 0.12, "speed_end": 0.10815151017215698, "ori_start": 30, "ori_end": 38.550128261859044, "motion_direction": "in"}, "stimResponseInterval": 0.11657517358386116, "stimulusDuration": 1.5, "trial_count": 25, "ts": "motion", "trial_type": "intensity-85", "exp_stage": "adaptive_procedure", "decision_var": 0.011848489827843025, "response": "down", "rt": 0.34593691100599244, "FB": 1, "quest_estimate": 0.006945133473335197, "trial_time": 2.4899397260014666}
{"FBDuration": 0.5, "FBonset": 0, "ITI": 0.8594306306991366, "displayFB": true, "onset": 116.42308070924756, "punishment_amount": 0, "responseWindow": 1.5, "reward_amount": 1, "stim": {"motionDirection": "in", "oriBase": -60, "oriDirection": -1, "oriStrength": 0.775, "speedDirection": -1, "speedStrength": 0.775, "speed_start": 0.12, "speed_end": 0.10243294145000714, "ori_start": -60, "ori_end": -68.55012826185904, "motion_direction": "in"}, "stimResponseInterval": 0.4078145450759453, "stimulusDuration": 1.5, "trial_count": 26, "ts": "motion", "trial_type": "intensity-95", "exp_stage": "adaptive_procedure", "decision_var": 0.017567058549992853, "response": "down", "rt": 0.2494258949882351, "FB": 1, "quest_estimate": 0.006506621181298494, "trial_time": 2.695745420001913}
{"FBDuration": 0.5, "FBonset": 0, "ITI": 0.8499635551865354, "displayFB": true, "onset": 121.19032588502265, "punishment_amount": 0, "responseWindow": 1.5, "reward_amount": 1, "stim": {"motionDirection": "out", "oriBase": 30, "oriDirection": -1, "oriStrength": 0.775, "speedDirection": 1, "speedStrength": 0.775, "speed_start": 0.12, "speed_end": 0.12425642761377337, "ori_start": 30, "ori_end": 21.44987173814096, "motion_direction": "out"}, "stimResponseInterval": 0.318830179261421, "stimulusDuration": 1.5, "trial_count": 27, "ts": "motion", "trial_type": "intensity-60", "exp_stage": "adaptive_procedure", "decision_var": 0.004256427613773368, "response": "up", "rt": 0.31074654299300164, "FB": 1, "quest_estimate": 0.006067885251815591, "trial_time": 2.6660431509953924}
{"FBDuration": 0.5, "FBonset": 0, "ITI": 0.6390604639552624, "displayFB": true, "onset": 125.8591196194706, "punishment_amount": 0, "responseWindow": 1.5, "reward_amount": 1, "stim": {"motionDirection": "out", "oriBase": -60, "oriDirection": -1, "oriStrength": 0.775, "speedDirection": -1, "speedStrength": 0.775, "speed_start": 0.12, "speed_end": 0.11574357238622662, "ori_start": -60, "ori_end": -68.55012826185904, "motion_direction": "out"}, "stimResponseInterval": 0.8174895454827829, "stimulusDuration": 1.5, "trial_count": 28, "ts": "motion", "trial_type": "intensity-60", "exp_stage": "adaptive_procedure", "decision_var": 0.004256427613773368, "response": "up", "rt": 0.2327338010072708, "FB": 0, "quest_estimate": 0.007551650100533311, "trial_time": 3.083309851004742}
{"FBDuration": 0.5, "FBonset": 0, "ITI": 0.942264296242564, "displayFB": true, "onset": 130.81566962890864, "punishment_amount": 0, "responseWindow": 1.5, "reward_amount": 1, "stim": {"motionDirection": "in", "oriBase": -60, "oriDirection": -1, "oriStrength": 0.775, "speedDirection": 1, "speedStrength": 0.775, "speed_start": 0.12, "speed_end": 0.12703899668619126, "ori_start": -60, "ori_end": -68.55012826185904, "motion_direction": "in"}, "stimResponseInterval": 0.8055716495092093, "stimulusDuration": 1.5, "trial_count": 29, "ts": "motion", "trial_type": "intensity-70", "exp_stage": "adaptive_procedure", "decision_var": 0.0070389966861912606, "response": "up", "rt": 0.2635123000072781, "FB": 1, "quest_estimate": 0.007112123381830725, "trial_time": 3.0940086459886516}
{"FBDuration": 0.5, "FBonset": 0, "ITI": 0.5283766946848516, "displayFB": true, "onset": 136.0635055746604, "punishment_amount": 0, "responseWindow": 1.5, "reward_amount": 1, "stim": {"motionDirection": "in", "oriBase": 30, "oriDirection": -1, "oriStrength": 0.775, "speedDirection": -1, "speedStrength": 0.775, "speed_start": 0.12, "speed_end": 0.10815151017215698, "ori_start": 30, "ori_end": 21.44987173814096, "motion_direction": "in"}, "stimResponseInterval": 0.4253634819681811, "stimulusDuration": 1.5, "trial_count": 30, "ts": "motion", "trial_type": "intensity-85", "exp_stage": "adaptive_procedure", "decision_var": 0.011848489827843025, "response": "down", "rt": 0.33885937700688373, "FB": 1, "quest_estimate": 0.006676201498884274, "trial_time": 2.7889289489976363}
{"FBDuration": 0.5, "FBonset": 0, "ITI": 0.918692465909402, "displayFB": true, "onset": 140.51724575131345, "punishment_amount": 0, "responseWindow": 1.5, "reward_amount": 1, "stim": {"motionDirection": "out", "oriBase": -60, "oriDirection": 1, "oriStrength": 0.775, "speedDirection": -1, "speedStrength": 0.775, "speed_start": 0.12, "speed_end": 0.11574357238622662, "ori_start": -60, "ori_end": -51.449871738140956, "motion_direction": "out"}, "stimResponseInterval": 0.45482424829730794, "stimulusDuration": 1.5, "trial_count": 31, "ts": "motion", "trial_type": "intensity-60", "exp_stage": "adaptive_procedure", "decision_var": 0.004256427613773368, "response": "up", "rt": 0.3436955810029758, "FB": 0, "quest_estimate": 0.00814702430321599, "trial_time": 2.834431734998361}
{"FBDuration": 0.5, "FBonset": 0, "ITI": 0.6320778904358633, "displayFB": true, "onset": 145.39076246552017, "punishment_amount": 0, "responseWindow": 1.5, "reward_amount": 1, "stim": {"motionDirection": "out", "oriBase": -60, "oriDirection": -1, "oriStrength": 0.775, "speedDirection": -1, "speedStrength": 0.775, "speed_start": 0.12, "speed_end": 0.11574357238622662, "ori_start": -60, "ori_end": -68.55012826185904, "motion_direction": "out"}, "stimResponseInterval": 0.44005417129366553, "stimulusDuration": 1.5, "trial_count": 32, "ts": "motion", "trial_type": "intensity-60", "exp_stage": "adaptive_procedure", "decision_var": 0.004256427613773368, "response": "up", "rt": 0.4210595909971744, "FB": 0, "quest_estimate": 0.009612686086844228, "trial_time": 2.8884993349929573}
{"FBDuration": 0.5, "FBonset": 0, "ITI": 0.524955023225441, "displayFB": true, "onset": 149.9628945272497, "punishment_amount": 0, "responseWindow": 1.5, "reward_amount": 1, "stim": {"motionDirection": "out", "oriBase": -60, "oriDirection": -1, "oriStrength": 0.775, "speedDirection": 1, "speedStrength": 0.775, "speed_start": 0.12, "speed_end": 0.12425642761377337, "ori_start": -60, "ori_end": -68.55012826185904, "motion_direction": "out"}, "stimResponseInterval": 0.3115664944967732, "stimulusDuration": 1.5, "trial_count": 33, "ts": "motion", "trial_type": "intensity-60", "exp_stage": "adaptive_procedure", "decision_var": 0.004256427613773368, "response": "up", "rt": 0.33057797100627795, "FB": 1, "quest_estimate": 0.009171001761559397, "trial_time": 2.6792665859975386}
{"FBDuration": 0.5, "FBonset": 0, "ITI": 0.18493596356425845, "displayFB": true, "onset": 154.2994160449719, "punishment_amount": 0, "responseWindow": 1.5, "reward_amount": 1, "stim": {"motionDirection": "in", "oriBase": 30, "oriDirection": -1, "oriStrength": 0.775, "speedDirection": 1, "speedStrength": 0.775, "speed_start": 0.12, "speed_end": 0.13756705854999285, "ori_start": 30, "ori_end": 21.44987173814096, "motion_direction": "in"}, "stimResponseInterval": 0.8482402886665188, "stimulusDuration": 1.5, "trial_count": 34, "ts": "motion", "trial_type": "intensity-95", "exp_stage": "adaptive_procedure", "decision_var": 0.017567058549992853, "response": "up", "rt": 0.4202600860007806, "FB": 1, "quest_estimate": 0.008734283642351653, "trial_time": 3.301285240013385}
{"FBDuration": 0.5, "FBonset": 0, "ITI": 0.7857329995248037, "displayFB": true, "onset": 158.8325922972027, "punishment_amount": 0, "responseWindow": 1.5, "reward_amount": 1, "stim": {"motionDirection": "in", "oriBase": 30, "oriDirection": 1, "oriStrength": 0.775, "speedDirection": 1, "speedStrength": 0.775, "speed_start": 0.12, "speed_end": 0.13756705854999285, "ori_start": 30, "ori_end": 38.550128261859044, "motion_direction": "in"}, "stimResponseInterval": 0.1572232143493285, "stimulusDuration": 1.5, "trial_count": 35, "ts": "motion", "trial_type": "intensity-95", "exp_stage": "adaptive_procedure", "decision_var": 0.017567058549992853, "response": "down", "rt": 0.6803400989883812, "FB": 0, "quest_estimate": 0.010347173066649201, "trial_time": 2.8679006269958336}
{"FBDuration": 0.5, "FBonset": 0, "ITI": 0.2649548939938001, "displayFB": true, "onset": 163.27554851107683, "punishment_amount": 0, "responseWindow": 1.5, "reward_amount": 1, "stim": {"motionDirection": "out", "oriBase": 30, "oriDirection": 1, "oriStrength": 0.775, "speedDirection": 1, "speedStrength": 0.775, "speed_start": 0.12, "speed_end": 0.12703899668619126, "ori_start": 30, "ori_end": 38.550128261859044, "motion_direction": "out"}, "stimResponseInterval": 0.35440196394873036, "stimulusDuration": 1.5, "trial_count": 36, "ts": "motion", "trial_type": "intensity-70", "exp_stage": "adaptive_procedure", "decision_var": 0.0070389966861912606, "response": "up", "rt": 0.3036883309978293, "FB": 1, "quest_estimate": 0.009906957039791019, "trial_time": 2.694136919992161}
{"FBDuration": 0.5, "FBonset": 0, "ITI": 0.5386664329714217, "displayFB": true, "onset": 167.39490536901937, "punishment_amount": 0, "responseWindow": 1.5, "reward_amount": 1, "stim": {"motionDirection": "in", "oriBase": 30, "oriDirection": 1, "oriStrength": 0.775, "speedDirection": -1, "speedStrength": 0.775, "speed_start": 0.12, "speed_end": 0.10815151017215698, "ori_start": 30, "ori_end": 38.550128261859044, "motion_direction": "in"}, "stimResponseInterval": 0.3789077867348245, "stimulusDuration": 1.5, "trial_count": 37, "ts": "motion", "trial_type": "intensity-85", "exp_stage": "adaptive_procedure", "decision_var": 0.011848489827843025, "response": "down", "rt": 0.34321876100148074, "FB": 1, "quest_estimate": 0.009470013902460307, "trial_time": 2.7540580360073363}
{"FBDuration": 0.5, "FBonset": 0, "ITI": 0.7412766715129724, "displayFB": true, "onset": 171.8124795887256, "punishment_amount": 0, "responseWindow": 1.5, "reward_amount": 1, "stim": {"motionDirection": "out", "oriBase": 30, "oriDirection": 1, "oriStrength": 0.775, "speedDirection": 1, "speedStrength": 0.775, "speed_start": 0.12, "speed_end": 0.13184848982784303, "ori_start": 30, "ori_end": 38.550128261859044, "motion_direction": "out"}, "stimResponseInterval": 0.8747903096151308, "stimulusDuration": 1.5, "trial_count": 38, "ts": "motion", "trial_type": "intensity-85", "exp_stage": "adaptive_procedure", "decision_var": 0.011848489827843025, "response": "up", "rt": 0.2723644359939499, "FB": 1, "quest_estimate": 0.009035798508634937, "trial_time": 3.177436181998928}
{"FBDuration": 0.5, "FBonset": 0, "ITI": 0.027631281842489197, "displayFB": true, "onset": 176.92854656985372, "punishment_amount": 0, "responseWindow": 1.5, "reward_amount": 1, "stim": {"motionDirection": "out", "oriBase": 30, "oriDirection": 1, "oriStrength": 0.775, "speedDirection": -1, "speedStrength": 0.775, "speed_start": 0.12, "speed_end": 0.10815151017215698, "ori_start": 30, "ori_end": 38.550128261859044, "motion_direction": "out"}, "stimResponseInterval": 0.8988892360995919, "stimulusDuration": 1.5, "trial_count": 39, "ts": "motion", "trial_type": "intensity-85", "exp_stage": "adaptive_procedure", "decision_var": 0.011848489827843025, "response": "up", "rt": 0.2750869040028192, "FB": 0, "quest_estimate": 0.010560558014912715, "trial_time": 3.2030431110033533}
{"FBDuration": 0.5, "FBonset": 0, "ITI": 0.18669100464124366, "displayFB": true, "onset": 181.35506708779582, "punishment_amount": 0, "responseWindow": 1.5, "reward_amount": 1, "stim": {"motionDirection": "in", "oriBase": -60, "oriDirection": 1, "oriStrength": 0.775, "speedDirection": -1, "speedStrength": 0.775, "speed_start": 0.12, "speed_end": 0.11574357238622662, "ori_start": -60, "ori_end": -51.449871738140956, "motion_direction": "in"}, "stimResponseInterval": 0.285467504423937, "stimulusDuration": 1.5, "trial_count": 40, "ts": "motion", "trial_type": "intensity-60", "exp_stage": "adaptive_procedure", "decision_var": 0.004256427613773368, "response": "down", "rt": 0.7400403300125618, "FB": 1, "quest_estimate": 0.010124462185057297, "trial_time": 3.058955469998182}
{"FBDuration": 0.5, "FBonset": 0, "ITI": 0.7581961181456616, "displayFB": true, "onset": 185.32722559686098, "punishment_amount": 0, "responseWindow": 1.5, "reward_amount": 1, "stim": {"motionDirection": "in", "oriBase": 30, "oriDirection": -1, "oriStrength": 0.775, "speedDirection": -1, "speedStrength": 0.775, "speed_start": 0.12, "speed_end": 0.11296100331380873, "ori_start": 30, "ori_end": 21.44987173814096, "motion_direction": "in"}, "stimResponseInterval": 0.3393301849265261, "stimulusDuration": 1.5, "trial_count": 41, "ts": "motion", "trial_type": "intensity-70", "exp_stage": "adaptive_procedure", "decision_var": 0.0070389966861912606, "response": "down", "rt": 0.916633490996901, "FB": 1, "quest_estimate": 0.009691027474243136, "trial_time": 3.282623291001073}
{"FBDuration": 0.5, "FBonset": 0, "ITI": 0.3890343485183074, "displayFB": true, "onset": 189.92475189993317, "punishment_amount": 0, "responseWindow": 1.5, "reward_amount": 1, "stim": {"motionDirection": "out", "oriBase": -60, "oriDirection": -1, "oriStrength": 0.775, "speedDirection": 1, "speedStrength": 0.775, "speed_start": 0.12, "speed_end": 0.12703899668619126, "ori_start": -60, "ori_end": -68.55012826185904, "motion_direction": "out"}, "stimResponseInterval": 0.1958024185231596, "stimulusDuration": 1.5, "trial_count": 42, "ts": "motion", "trial_type": "intensity-70", "exp_stage": "adaptive_procedure", "decision_var": 0.0070389966861912606, "response": "down", "rt": 1.0869477190135513, "FB": 0, "quest_estimate": 0.01114600421858624, "trial_time": 3.3101764979946893}
{"FBDuration": 0.5, "FBonset": 0, "ITI": 0.6104667565697843, "displayFB": true, "onset": 194.00958866697465, "punishment_amount": 0, "responseWindow": 1.5, "reward_amount": 1, "stim": {"motionDirection": "in", "oriBase": -60, "oriDirection": -1, "oriStrength": 0.775, "speedDirection": -1, "speedStrength": 0.775, "speed_start": 0.12, "speed_end": 0.10243294145000714, "ori_start": -60, "ori_end": -68.55012826185904, "motion_direction": "in"}, "stimResponseInterval": 0.21016300247385455, "stimulusDuration": 1.5, "trial_count": 43, "ts": "motion", "trial_type": "intensity-95", "exp_stage": "adaptive_procedure", "decision_var": 0.017567058549992853, "response": "down", "rt": 0.653771887999028, "FB": 1, "quest_estimate": 0.010713221847080463, "trial_time": 2.888413765002042}
{"FBDuration": 0.5, "FBonset": 0, "ITI": 0.31215280640982634, "displayFB": true, "onset": 198.3302184260183, "punishment_amount": 0, "responseWindow": 1.5, "reward_amount": 1, "stim": {"motionDirection": "in", "oriBase": -60, "oriDirection": 1, "oriStrength": 0.775, "speedDirection": 1, "speedStrength": 0.775, "speed_start": 0.12, "speed_end": 0.12703899668619126, "ori_start": -60, "ori_end": -51.449871738140956, "motion_direction": "in"}, "stimResponseInterval": 0.3890333024465603, "stimulusDuration": 1.5, "trial_count": 44, "ts": "motion", "trial_type": "intensity-70", "exp_stage": "adaptive_procedure", "decision_var": 0.0070389966861912606, "response": "up", "rt": 0.5465546479972545, "FB": 1, "quest_estimate": 0.010281440970733281, "trial_time": 2.9711896119988523}
{"FBDuration": 0.5, "FBonset": 0, "ITI": 0.149098778320231, "displayFB": true, "onset": 202.53140453487467, "punishment_amount": 0, "responseWindow": 1.5, "reward_amount": 1, "stim": {"motionDirection": "in", "oriBase": 30, "oriDirection": 1, "oriStrength": 0.775, "speedDirection": 1, "speedStrength": 0.775, "speed_start": 0.12, "speed_end": 0.13756705854999285, "ori_start": 30, "ori_end": 38.550128261859044, "motion_direction": "in"}, "stimResponseInterval": 0.9743958073318426, "stimulusDuration": 1.5, "trial_count": 45, "ts": "motion", "trial_type": "intensity-95", "exp_stage": "adaptive_procedure", "decision_var": 0.017567058549992853, "response": "up", "rt": 0.4420293270086404, "FB": 1, "quest_estimate": 0.00985408627481877, "trial_time": 3.450206445006188}
{"FBDuration": 0.5, "FBonset": 0, "ITI": 0.9713555044160587, "displayFB": true, "onset": 207.15489912052675, "punishment_amount": 0, "responseWindow": 1.5, "reward_amount": 1, "stim": {"motionDirection": "in", "oriBase": 30, "oriDirection": -1, "oriStrength": 0.775, "speedDirection": 1, "speedStrength": 0.775, "speed_start": 0.12, "speed_end": 0.12703899668619126, "ori_start": 30, "ori_end": 21.44987173814096, "motion_direction": "in"}, "stimResponseInterval": 0.9017902752426061, "stimulusDuration": 1.5, "trial_count": 46, "ts": "motion", "trial_type": "intensity-70", "exp_stage": "adaptive_procedure", "decision_var": 0.0070389966861912606, "response": "up", "rt": 0.6513490950019332, "FB": 1, "quest_estimate": 0.009427493129913034, "trial_time": 3.5785717489925446}
{"FBDuration": 0.5, "FBonset": 0, "ITI": 0.95282920176881, "displayFB": true, "onset": 212.52804490018542, "punishment_amount": 0, "responseWindow": 1.5, "reward_amount": 1, "stim": {"motionDirection": "out", "oriBase": -60, "oriDirection": 1, "oriStrength": 0.775, "speedDirection": -1, "speedStrength": 0.775, "speed_start": 0.12, "speed_end": 0.11574357238622662, "ori_start": -60, "ori_end": -51.449871738140956, "motion_direction": "out"}, "stimResponseInterval": 0.8675924600513785, "stimulusDuration": 1.5, "trial_count": 47, "ts": "motion", "trial_type": "intensity-60", "exp_stage": "adaptive_procedure", "decision_var": 0.004256427613773368, "response": "up", "rt": 0.3665448449901305, "FB": 0, "quest_estimate": 0.010832336625804309, "trial_time": 3.2679144510038896}
{"FBDuration": 0.5, "FBonset": 0, "ITI": 0.25792886043328, "displayFB": true, "onset": 217.8484665620056, "punishment_amount": 0, "responseWindow": 1.5, "reward_amount": 1, "stim": {"motionDirection": "out", "oriBase": 30, "oriDirection": -1, "oriStrength": 0.775, "speedDirection": 1, "speedStrength": 0.775, "speed_start": 0.12, "speed_end": 0.13756705854999285, "ori_start": 30, "ori_end": 21.44987173814096, "motion_direction": "out"}, "stimResponseInterval": 0.5764779623180343, "stimulusDuration": 1.5, "trial_count": 48, "ts": "motion", "trial_type": "intensity-95", "exp_stage": "adaptive_procedure", "decision_var": 0.017567058549992853, "response": "up", "rt": 0.2938217939954484, "FB": 1, "quest_estimate": 0.010406548711543784, "trial_time": 2.8974260649993084}
{"FBDuration": 0.5, "FBonset": 0, "ITI": 0.2633972512572661, "displayFB": true, "onset": 222.1828733847569, "punishment_amount": 0, "responseWindow": 1.5, "reward_amount": 1, "stim": {"motionDirection": "in", "oriBase": -60, "oriDirection": -1, "oriStrength": 0.775, "speedDirection": 1, "speedStrength": 0.775, "speed_start": 0.12, "speed_end": 0.12703899668619126, "ori_start": -60, "ori_end": -68.55012826185904, "motion_direction": "in"}, "stimResponseInterval": 0.6037023632414718, "stimulusDuration": 1.5, "trial_count": 49, "ts": "motion", "trial_type": "intensity-70", "exp_stage": "adaptive_procedure", "decision_var": 0.0070389966861912606, "response": "up", "rt": 0.39279987300687935, "FB": 1, "quest_estimate": 0.009981631809563948, "trial_time": 3.021564402995864}
{"FBDuration": 0.5, "FBonset": 0, "ITI": 0.9051891222575277, "displayFB": true, "onset": 226.54997299925563, "punishment_amount": 0, "responseWindow": 1.5, "reward_amount": 1, "stim": {"motionDirection": "in", "oriBase": -60, "oriDirection": 1, "oriStrength": 0.775, "speedDirection": 1, "speedStrength": 0.775, "speed_start": 0.12, "speed_end": 0.12425642761377337, "ori_start": -60, "ori_end": -51.449871738140956, "motion_direction": "in"}, "stimResponseInterval": 0.6268327812063337, "stimulusDuration": 1.5, "trial_count": 50, "ts": "motion", "trial_type": "intensity-60", "exp_stage": "adaptive_procedure", "decision_var": 0.004256427613773368, "response": "down", "rt": 1.0647067410027375, "FB": 0, "quest_estimate": 0.011374743469333648, "trial_time": 3.7311758540017763}
{"FBDuration": 0.5, "FBonset": 0, "ITI": 0.16634004079290587, "displayFB": true, "onset": 231.5819949027195, "punishment_amount": 0, "responseWindow": 1.5, "reward_amount": 1, "stim": {"motionDirection": "out", "oriBase": -60, "oriDirection": -1, "oriStrength": 0.775, "speedDirection": -1, "speedStrength": 0.775, "speed_start": 0.12, "speed_end": 0.11296100331380873, "ori_start": -60, "ori_end": -68.55012826185904, "motion_direction": "out"}, "stimResponseInterval": 0.5161552470202093, "stimulusDuration": 1.5, "trial_count": 51, "ts": "motion", "trial_type": "intensity-70", "exp_stage": "adaptive_procedure", "decision_var": 0.0070389966861912606, "response": "down", "rt": 0.28440212398709264, "FB": 1, "quest_estimate": 0.010948922752430777, "trial_time": 2.8398946749948664}
{"FBDuration": 0.5, "FBonset": 0, "ITI": 0.2343793782851784, "displayFB": true, "onset": 235.7644901905326, "punishment_amount": 0, "responseWindow": 1.5, "reward_amount": 1, "stim": {"motionDirection": "in", "oriBase": -60, "oriDirection": -1, "oriStrength": 0.775, "speedDirection": -1, "speedStrength": 0.775, "speed_start": 0.12, "speed_end": 0.10815151017215698, "ori_start": -60, "ori_end": -68.55012826185904, "motion_direction": "in"}, "stimResponseInterval": 0.7038196940139199, "stimulusDuration": 1.5, "trial_count": 52, "ts": "motion", "trial_type": "intensity-85", "exp_stage": "adaptive_procedure", "decision_var": 0.011848489827843025, "response": "down", "rt": 0.2548465209983988, "FB": 1, "quest_estimate": 0.010526065719265704, "trial_time": 2.997443360000034}
{"FBDuration": 0.5, "FBonset": 0, "ITI": 0.39471909775354963, "displayFB": true, "onset": 240.20268926283168, "punishment_amount": 0, "responseWindow": 1.5, "reward_amount": 1, "stim": {"motionDirection": "out", "oriBase": -60, "oriDirection": 1, "oriStrength": 0.775, "speedDirection": -1, "speedStrength": 0.775, "speed_start": 0.12, "speed_end": 0.11296100331380873, "ori_start": -60, "ori_end": -51.449871738140956, "motion_direction": "out"}, "stimResponseInterval": 0.37238885475402184, "stimulusDuration": 1.5, "trial_count": 53, "ts": "motion", "trial_type": "intensity-70", "exp_stage": "adaptive_procedure", "decision_var": 0.0070389966861912606, "response": "down", "rt": 0.28655598100158386, "FB": 1, "quest_estimate": 0.010105232249720202, "trial_time": 2.6908527909981785}
{"FBDuration": 0.5, "FBonset": 0, "ITI": 0.7216064908444602, "displayFB": true, "onset": 244.46979721533924, "punishment_amount": 0, "responseWindow": 1.5, "reward_amount": 1, "stim": {"motionDirection": "out", "oriBase": -60, "oriDirection": 1, "oriStrength": 0.775, "speedDirection": 1, "speedStrength": 0.775, "speed_start": 0.12, "speed_end": 0.13756705854999285, "ori_start": -60, "ori_end": -51.449871738140956, "motion_direction": "out"}, "stimResponseInterval": 0.21713001777261487, "stimulusDuration": 1.5, "trial_count": 54, "ts": "motion", "trial_type": "intensity-95", "exp_stage": "adaptive_procedure", "decision_var": 0.017567058549992853, "response": "up", "rt": 0.35763165798562113, "FB": 1, "quest_estimate": 0.009688695093687583, "trial_time": 2.6043356519949157}
{"FBDuration": 0.5, "FBonset": 0, "ITI": 0.3502537356973957, "displayFB": true, "onset": 248.9085337239563, "punishment_amount": 0, "responseWindow": 1.5, "reward_amount": 1, "stim": {"motionDirection": "in", "oriBase": -60, "oriDirection": 1, "oriStrength": 0.775, "speedDirection": -1, "speedStrength": 0.775, "speed_start": 0.12, "speed_end": 0.10243294145000714, "ori_start": -60, "ori_end": -51.449871738140956, "motion_direction": "in"}, "stimResponseInterval": 0.7904462272494988, "stimulusDuration": 1.5, "trial_count": 55, "ts": "motion", "trial_type": "intensity-95", "exp_stage": "adaptive_procedure", "decision_var": 0.017567058549992853, "response": "down", "rt": 0.46912748699833173, "FB": 1, "quest_estimate": 0.009274739372642733, "trial_time": 3.2996982430049684}
{"FBDuration": 0.5, "FBonset": 0, "ITI": 0.15577349931273654, "displayFB": true, "onset": 253.5492336869032, "punishment_amount": 0, "responseWindow": 1.5, "reward_amount": 1, "stim": {"motionDirection": "out", "oriBase": 30, "oriDirection": 1, "oriStrength": 0.775, "speedDirection": -1, "speedStrength": 0.775, "speed_start": 0.12, "speed_end": 0.11296100331380873, "ori_start": 30, "ori_end": 38.550128261859044, "motion_direction": "out"}, "stimResponseInterval": 0.5152634192019718, "stimulusDuration": 1.5, "trial_count": 56, "ts": "motion", "trial_type": "intensity-70", "exp_stage": "adaptive_procedure", "decision_var": 0.0070389966861912606, "response": "down", "rt": 0.35655883100116625, "FB": 1, "quest_estimate": 0.008861308865384027, "trial_time": 2.9024041179945925}
{"FBDuration": 0.5, "FBonset": 0, "ITI": 0.8676088290164874, "displayFB": true, "onset": 257.7202706054179, "punishment_amount": 0, "responseWindow": 1.5, "reward_amount": 1, "stim": {"motionDirection": "out", "oriBase": 30, "oriDirection": -1, "oriStrength": 0.775, "speedDirection": 1, "speedStrength": 0.775, "speed_start": 0.12, "speed_end": 0.12425642761377337, "ori_start": 30, "ori_end": 21.44987173814096, "motion_direction": "out"}, "stimResponseInterval": 0.7336667466277786, "stimulusDuration": 1.5, "trial_count": 57, "ts": "motion", "trial_type": "intensity-60", "exp_stage": "adaptive_procedure", "decision_var": 0.004256427613773368, "response": "up", "rt": 0.2485181710071629, "FB": 1, "quest_estimate": 0.008450075943584164, "trial_time": 3.0073122970061377}
{"FBDuration": 0.5, "FBonset": 0, "ITI": 0.7090539437702197, "displayFB": true, "onset": 262.82154618106216, "punishment_amount": 0, "responseWindow": 1.5, "reward_amount": 1, "stim": {"motionDirection": "out", "oriBase": 30, "oriDirection": 1, "oriStrength": 0.775, "speedDirection": 1, "speedStrength": 0.775, "speed_start": 0.12, "speed_end": 0.13184848982784303, "ori_start": 30, "ori_end": 38.550128261859044, "motion_direction": "out"}, "stimResponseInterval": 0.9284748934201845, "stimulusDuration": 1.5, "trial_count": 58, "ts": "motion", "trial_type": "intensity-85", "exp_stage": "adaptive_procedure", "decision_var": 0.011848489827843025, "response": "up", "rt": 0.2305356910073897, "FB": 1, "quest_estimate": 0.008042043565218426, "trial_time": 3.19789307800238}
{"FBDuration": 0.5, "FBonset": 0, "ITI": 0.6704510124753875, "displayFB": true, "onset": 267.9590750182526, "punishment_amount": 0, "responseWindow": 1.5, "reward_amount": 1, "stim": {"motionDirection": "out", "oriBase": 30, "oriDirection": -1, "oriStrength": 0.775, "speedDirection": -1, "speedStrength": 0.775, "speed_start": 0.12, "speed_end": 0.10815151017215698, "ori_start": 30, "ori_end": 21.44987173814096, "motion_direction": "out"}, "stimResponseInterval": 0.09576136438662064, "stimulusDuration": 1.5, "trial_count": 59, "ts": "motion", "trial_type": "intensity-85", "exp_stage": "adaptive_procedure", "decision_var": 0.011848489827843025, "response": "down", "rt": 0.2946127979957964, "FB": 1, "quest_estimate": 0.007636404341291862, "trial_time": 2.422283506995882}
{"FBDuration": 0.5, "FBonset": 0, "ITI": 0.27904551612208706, "displayFB": true, "onset": 272.2252873951146, "punishment_amount": 0, "responseWindow": 1.5, "reward_amount": 1, "stim": {"motionDirection": "out", "oriBase": -60, "oriDirection": 1, "oriStrength": 0.775, "speedDirection": 1, "speedStrength": 0.775, "speed_start": 0.12, "speed_end": 0.13184848982784303, "ori_start": -60, "ori_end": -51.449871738140956, "motion_direction": "out"}, "stimResponseInterval": 0.35296937781113624, "stimulusDuration": 1.5, "trial_count": 60, "ts": "motion", "trial_type": "intensity-85", "exp_stage": "adaptive_procedure", "decision_var": 0.011848489827843025, "response": "up", "rt": 0.3184607040020637, "FB": 1, "quest_estimate": 0.007233134426632266, "trial_time": 2.7025368589966092}
{"FBDuration": 0.5, "FBonset": 0, "ITI": 0.04216163316331045, "displayFB": true, "onset": 276.3573022890478, "punishment_amount": 0, "responseWindow": 1.5, "reward_amount": 1, "stim": {"motionDirection": "out", "oriBase": 30, "oriDirection": -1, "oriStrength": 0.775, "speedDirection": 1, "speedStrength": 0.775, "speed_start": 0.12, "speed_end": 0.13184848982784303, "ori_start": 30, "ori_end": 21.44987173814096, "motion_direction": "out"}, "stimResponseInterval": 0.1102928267321267, "stimulusDuration": 1.5, "trial_count": 61, "ts": "motion", "trial_type": "intensity-85", "exp_stage": "adaptive_procedure", "decision_var": 0.011848489827843025, "response": "up", "rt": 0.32251993399404455, "FB": 1, "quest_estimate": 0.006832210359908969, "trial_time": 2.463785326006473}
{"FBDuration": 0.5, "FBonset": 0, "ITI": 0.13659414890843558, "displayFB": true, "onset": 280.00975674894323, "punishment_amount": 0, "responseWindow": 1.5, "reward_amount": 1, "stim": {"motionDirection": "in", "oriBase": 30, "oriDirection": -1, "oriStrength": 0.775, "speedDirection": 1, "speedStrength": 0.775, "speed_start": 0.12, "speed_end": 0.12425642761377337, "ori_start": 30, "ori_end": 21.44987173814096, "motion_direction": "in"}, "stimResponseInterval": 0.6502600035990906, "stimulusDuration": 1.5, "trial_count": 62, "ts": "motion", "trial_type": "intensity-60", "exp_stage": "adaptive_procedure", "decision_var": 0.004256427613773368, "response": "down", "rt": 0.26430588199582417, "FB": 0, "quest_estimate": 0.008183714900664836, "trial_time": 2.942191686001024}
{"FBDuration": 0.5, "FBonset": 0, "ITI": 0.3148468286354744, "displayFB": true, "onset": 284.2966109014508, "punishment_amount": 0, "responseWindow": 1.5, "reward_amount": 1, "stim": {"motionDirection": "out", "oriBase": -60, "oriDirection": 1, "oriStrength": 0.775, "speedDirection": 1, "speedStrength": 0.775, "speed_start": 0.12, "speed_end": 0.13184848982784303, "ori_start": -60, "ori_end": -51.449871738140956, "motion_direction": "out"}, "stimResponseInterval": 0.7575213826577811, "stimulusDuration": 1.5, "trial_count": 63, "ts": "motion", "trial_type": "intensity-85", "exp_stage": "adaptive_procedure", "decision_var": 0.011848489827843025, "response": "up", "rt": 0.27772305499820504, "FB": 1, "quest_estimate": 0.007781860370981768, "trial_time": 3.0746151710045524}
{"FBDuration": 0.5, "FBonset": 0, "ITI": 0.4412910306099478, "displayFB": true, "onset": 288.86897911274406, "punishment_amount": 0, "responseWindow": 1.5, "reward_amount": 1, "stim": {"motionDirection": "out", "oriBase": -60, "oriDirection": -1, "oriStrength": 0.775, "speedDirection": 1, "speedStrength": 0.775, "speed_start": 0.12, "speed_end": 0.12425642761377337, "ori_start": -60, "ori_end": -68.55012826185904, "motion_direction": "out"}, "stimResponseInterval": 0.19180640490021805, "stimulusDuration": 1.5, "trial_count": 64, "ts": "motion", "trial_type": "intensity-60", "exp_stage": "adaptive_procedure", "decision_var": 0.004256427613773368, "response": "up", "rt": 0.3317700089974096, "FB": 1, "quest_estimate": 0.0073813371253780916, "trial_time": 2.5549152250023326}
