{"FBDuration": 0.5, "FBonset": 0, "ITI": 0.5197880849206686, "displayFB": true, "onset": 2, "punishment_amount": 0, "responseWindow": 1.5, "reward_amount": 1, "stim": {"motionDirection": "in", "oriBase": -60, "oriDirection": 1, "oriStrength": 0.775, "speedDirection": 1, "speedStrength": 0.775, "speed_start": 0.12, "speed_end": 0.12082389453775044, "ori_start": -60, "ori_end": -58.127338124558534, "motion_direction": "in"}, "stimResponseInterval": 0.709787594055246, "stimulusDuration": 1.5, "trial_count": 1, "ts": "orientation", "trial_type": "intensity-60", "exp_stage": "adaptive_procedure", "decision_var": 1.872661875441469, "response": "right", "rt": 0.2829194680089131, "FB": 1, "quest_estimate": 8.55012825137717, "trial_time": 3.0193336340016685}
{"FBDuration": 0.5, "FBonset": 0, "ITI": 0.04723162799006997, "displayFB": true, "onset": 6.729575678975915, "punishment_amount": 0, "responseWindow": 1.5, "reward_amount": 1, "stim": {"motionDirection": "out", "oriBase": 30, "oriDirection": 1, "oriStrength": 0.775, "speedDirection": 1, "speedStrength": 0.775, "speed_start": 0.12, "speed_end": 0.12082389453775044, "ori_start": 30, "ori_end": 36.10270474077284, "motion_direction": "out"}, "stimResponseInterval": 0.7419083153049266, "stimulusDuration": 1.5, "trial_count": 2, "ts": "orientation", "trial_type": "intensity-93", "exp_stage": "adaptive_procedure", "decision_var": 6.102704740772841, "response": "right", "rt": 0.5054272780107567, "FB": 1, "quest_estimate": 8.546107491025147, "trial_time": 3.276523427994107}
{"FBDuration": 0.5, "FBonset": 0, "ITI": 0.1964452590095488, "displayFB": true, "onset": 11.01871562227091, "punishment_amount": 0, "responseWindow": 1.5, "reward_amount": 1, "stim": {"motionDirection": "out", "oriBase": -60, "oriDirection": -1, "oriStrength": 0.775, "speedDirection": -1, "speedStrength": 0.775, "speed_start": 0.12, "speed_end": 0.11917610546224955, "ori_start": -60, "ori_end": -61.872661875441466, "motion_direction": "out"}, "stimResponseInterval": 0.356928247228966, "stimulusDuration": 1.5, "trial_count": 3, "ts": "orientation", "trial_type": "intensity-60", "exp_stage": "adaptive_procedure", "decision_var": 1.872661875441469, "response": "right", "rt": 0.37130999499640893, "FB": 0, "quest_estimate": 8.546107511851098, "trial_time": 2.766042886010837}
{"FBDuration": 0.5, "FBonset": 0, "ITI": 0.36809872058683424, "displayFB": true, "onset": 15.072089128509425, "punishment_amount": 0, "responseWindow": 1.5, "reward_amount": 1, "stim": {"motionDirection": "out", "oriBase": 30, "oriDirection": 1, "oriStrength": 0.775, "speedDirection": 1, "speedStrength": 0.775, "speed_start": 0.12, "speed_end": 0.12082389453775044, "ori_start": 30, "ori_end": 33.91607307820803, "motion_direction": "out"}, "stimResponseInterval": 0.9530802503702349, "stimulusDuration": 1.5, "trial_count": 4, "ts": "orientation", "trial_type": "intensity-85", "exp_stage": "adaptive_procedure", "decision_var": 3.9160730782080306, "response": "right", "rt": 0.29871285799890757, "FB": 1, "quest_estimate": 8.53837370713659, "trial_time": 3.285947586991824}
{"FBDuration": 0.5, "FBonset": 0, "ITI": 0.13967837121318616, "displayFB": true, "onset": 19.893268099466496, "punishment_amount": 0, "responseWindow": 1.5, "reward_amount": 1, "stim": {"motionDirection": "out", "oriBase": -60, "oriDirection": -1, "oriStrength": 0.775, "speedDirection": 1, "speedStrength": 0.775, "speed_start": 0.12, "speed_end": 0.12082389453775044, "ori_start": -60, "ori_end": -63.91607307820803, "motion_direction": "out"}, "stimResponseInterval": 0.8468047935402814, "stimulusDuration": 1.5, "trial_count": 5, "ts": "orientation", "trial_type": "intensity-85", "exp_stage": "adaptive_procedure", "decision_var": 3.9160730782080306, "response": "left", "rt": 0.30847157699463423, "FB": 1, "quest_estimate": 8.523153098833735, "trial_time": 3.1826033770048525}
{"FBDuration": 0.5, "FBonset": 0, "ITI": 0.7508273279011015, "displayFB": true, "onset": 24.379751264219962, "punishment_amount": 0, "responseWindow": 1.5, "reward_amount": 1, "stim": {"motionDirection": "out", "oriBase": -60, "oriDirection": 1, "oriStrength": 0.775, "speedDirection": 1, "speedStrength": 0.775, "speed_start": 0.12, "speed_end": 0.12082389453775044, "ori_start": -60, "ori_end": -56.08392692179197, "motion_direction": "out"}, "stimResponseInterval": 0.5125378031325134, "stimulusDuration": 1.5, "trial_count": 6, "ts": "orientation", "trial_type": "intensity-85", "exp_stage": "adaptive_procedure", "decision_var": 3.9160730782080306, "response": "right", "rt": 0.30449692699767184, "FB": 1, "quest_estimate": 8.493284258227359, "trial_time": 2.8560373060026905}
{"FBDuration": 0.5, "FBonset": 0, "ITI": 0.9701823793861415, "displayFB": true, "onset": 29.14311639525358, "punishment_amount": 0, "responseWindow": 1.5, "reward_amount": 1, "stim": {"motionDirection": "out", "oriBase": -60, "oriDirection": -1, "oriStrength": 0.775, "speedDirection": -1, "speedStrength": 0.775, "speed_start": 0.12, "speed_end": 0.11917610546224955, "ori_start": -60, "ori_end": -62.642602873879476, "motion_direction": "out"}, "stimResponseInterval": 0.3387072927304696, "stimulusDuration": 1.5, "trial_count": 7, "ts": "orientation", "trial_type": "intensity-70", "exp_stage": "adaptive_procedure", "decision_var": 2.642602873879475, "response": "left", "rt": 0.30548299600195605, "FB": 1, "quest_estimate": 8.493239029537918, "trial_time": 2.667758977986523}
{"FBDuration": 0.5, "FBonset": 0, "ITI": 0.986079921187669, "displayFB": true, "onset": 33.95200606737019, "punishment_amount": 0, "responseWindow": 1.5, "reward_amount": 1, "stim": {"motionDirection": "in", "oriBase": -60, "oriDirection": -1, "oriStrength": 0.775, "speedDirection": 1, "speedStrength": 0.775, "speed_start": 0.12, "speed_end": 0.12082389453775044, "ori_start": -60, "ori_end": -62.642602873879476, "motion_direction": "in"}, "stimResponseInterval": 0.9640262365739865, "stimulusDuration": 1.5, "trial_count": 8, "ts": "orientation", "trial_type": "intensity-70", "exp_stage": "adaptive_procedure", "decision_var": 2.642602873879475, "response": "left", "rt": 0.29648655200435314, "FB": 1, "quest_estimate": 8.493193752884764, "trial_time": 3.290997193005751}
{"FBDuration": 0.5, "FBonset": 0, "ITI": 0.9674649978268102, "displayFB": true, "onset": 39.402112225131845, "punishment_amount": 0, "responseWindow": 1.5, "reward_amount": 1, "stim": {"motionDirection": "out", "oriBase": -60, "oriDirection": -1, "oriStrength": 0.775, "speedDirection": -1, "speedStrength": 0.775, "speed_start": 0.12, "speed_end": 0.11917610546224955, "ori_start": -60, "ori_end": -62.642602873879476, "motion_direction": "out"}, "stimResponseInterval": 0.5647741383543454, "stimulusDuration": 1.5, "trial_count": 9, "ts": "orientation", "trial_type": "intensity-70", "exp_stage": "adaptive_procedure", "decision_var": 2.642602873879475, "response": "right", "rt": 0.26504437300900463, "FB": 0, "quest_estimate": 8.493239078378942, "trial_time": 2.858088525987114}
{"FBDuration": 0.5, "FBonset": 0, "ITI": 0.43450837722532354, "displayFB": true, "onset": 44.434351361313, "punishment_amount": 0, "responseWindow": 1.5, "reward_amount": 1, "stim": {"motionDirection": "in", "oriBase": 30, "oriDirection": 1, "oriStrength": 0.775, "speedDirection": -1, "speedStrength": 0.775, "speed_start": 0.12, "speed_end": 0.11917610546224955, "ori_start": 30, "ori_end": 32.642602873879476, "motion_direction": "in"}, "stimResponseInterval": 0.23414703577215124, "stimulusDuration": 1.5, "trial_count": 10, "ts": "orientation", "trial_type": "intensity-70", "exp_stage": "adaptive_procedure", "decision_var": 2.642602873879475, "response": "right", "rt": 0.4957248319988139, "FB": 1, "quest_estimate": 8.49319380179221, "trial_time": 2.757204854002339}
{"FBDuration": 0.5, "FBonset": 0, "ITI": 0.026573161513558263, "displayFB": true, "onset": 48.60300677431047, "punishment_amount": 0, "responseWindow": 1.5, "reward_amount": 1, "stim": {"motionDirection": "in", "oriBase": -60, "oriDirection": -1, "oriStrength": 0.775, "speedDirection": -1, "speedStrength": 0.775, "speed_start": 0.12, "speed_end": 0.11917610546224955, "ori_start": -60, "ori_end": -66.10270474077284, "motion_direction": "in"}, "stimResponseInterval": 0.6224366013770861, "stimulusDuration": 1.5, "trial_count": 11, "ts": "orientation", "trial_type": "intensity-93", "exp_stage": "adaptive_procedure", "decision_var": 6.102704740772841, "response": "left", "rt": 0.25470134800707456, "FB": 1, "quest_estimate": 8.434235054312925, "trial_time": 2.9011781660083216}
{"FBDuration": 0.5, "FBonset": 0, "ITI": 0.9722707418393393, "displayFB": true, "onset": 52.752016537201115, "punishment_amount": 0, "responseWindow": 1.5, "reward_amount": 1, "stim": {"motionDirection": "out", "oriBase": -60, "oriDirection": -1, "oriStrength": 0.775, "speedDirection": 1, "speedStrength": 0.775, "speed_start": 0.12, "speed_end": 0.12082389453775044, "ori_start": -60, "ori_end": -61.872661875441466, "motion_direction": "out"}, "stimResponseInterval": 0.813472179774763, "stimulusDuration": 1.5, "trial_count": 12, "ts": "orientation", "trial_type": "intensity-60", "exp_stage": "adaptive_procedure", "decision_var": 1.872661875441469, "response": "left", "rt": 0.2580885290080914, "FB": 1, "quest_estimate": 8.434234741580187, "trial_time": 3.0955661600019084}
{"FBDuration": 0.5, "FBonset": 0, "ITI": 0.9361783223572495, "displayFB": true, "onset": 58.037759458815216, "punishment_amount": 0, "responseWindow": 1.5, "reward_amount": 1, "stim": {"motionDirection": "in", "oriBase": 30, "oriDirection": -1, "oriStrength": 0.775, "speedDirection": -1, "speedStrength": 0.775, "speed_start": 0.12, "speed_end": 0.11917610546224955, "ori_start": 30, "ori_end": 23.897295259227157, "motion_direction": "in"}, "stimResponseInterval": 0.6364429387796211, "stimulusDuration": 1.5, "trial_count": 13, "ts": "orientation", "trial_type": "intensity-93", "exp_stage": "adaptive_procedure", "decision_var": 6.102704740772841, "response": "left", "rt": 0.26683327100181486, "FB": 1, "quest_estimate": 8.320954251721815, "trial_time": 2.9393955400009872}
{"FBDuration": 0.5, "FBonset": 0, "ITI": 0.7907089754177723, "displayFB": true, "onset": 63.11038071995209, "punishment_amount": 0, "responseWindow": 1.5, "reward_amount": 1, "stim": {"motionDirection": "in", "oriBase": -60, "oriDirection": -1, "oriStrength": 0.775, "speedDirection": 1, "speedStrength": 0.775, "speed_start": 0.12, "speed_end": 0.12082389453775044, "ori_start": -60, "ori_end": -62.642602873879476, "motion_direction": "in"}, "stimResponseInterval": 0.13451553400844818, "stimulusDuration": 1.5, "trial_count": 14, "ts": "orientation", "trial_type": "intensity-70", "exp_stage": "adaptive_procedure", "decision_var": 2.642602873879475, "response": "right", "rt": 0.3091296019993024, "FB": 0, "quest_estimate": 8.321121653303393, "trial_time": 2.4713232789945323}
{"FBDuration": 0.5, "FBonset": 0, "ITI": 0.6585317949636844, "displayFB": true, "onset": 67.5356052293783, "punishment_amount": 0, "responseWindow": 1.5, "reward_amount": 1, "stim": {"motionDirection": "in", "oriBase": 30, "oriDirection": -1, "oriStrength": 0.775, "speedDirection": 1, "speedStrength": 0.775, "speed_start": 0.12, "speed_end": 0.12082389453775044, "ori_start": 30, "ori_end": 27.357397126120524, "motion_direction": "in"}, "stimResponseInterval": 0.14276368427250763, "stimulusDuration": 1.5, "trial_count": 15, "ts": "orientation", "trial_type": "intensity-70", "exp_stage": "adaptive_procedure", "decision_var": 2.642602873879475, "response": "left", "rt": 0.32524441499845125, "FB": 1, "quest_estimate": 8.320954432391801, "trial_time": 2.50238318600168}
{"FBDuration": 0.5, "FBonset": 0, "ITI": 0.7259548874836765, "displayFB": true, "onset": 71.8369007086145, "punishment_amount": 0, "responseWindow": 1.5, "reward_amount": 1, "stim": {"motionDirection": "out", "oriBase": 30, "oriDirection": 1, "oriStrength": 0.775, "speedDirection": -1, "speedStrength": 0.775, "speed_start": 0.12, "speed_end": 0.11917610546224955, "ori_start": 30, "ori_end": 36.10270474077284, "motion_direction": "out"}, "stimResponseInterval": 0.5954495665836599, "stimulusDuration": 1.5, "trial_count": 16, "ts": "orientation", "trial_type": "intensity-93", "exp_stage": "adaptive_procedure", "decision_var": 6.102704740772841, "response": "right", "rt": 0.2732312260050094, "FB": 1, "quest_estimate": 8.110326524112804, "trial_time": 2.9011160290101543}
{"FBDuration": 0.5, "FBonset": 0, "ITI": 0.28354091951149163, "displayFB": true, "onset": 76.65830516268183, "punishment_amount": 0, "responseWindow": 1.5, "reward_amount": 1, "stim": {"motionDirection": "out", "oriBase": -60, "oriDirection": 1, "oriStrength": 0.775, "speedDirection": -1, "speedStrength": 0.775, "speed_start": 0.12, "speed_end": 0.11917610546224955, "ori_start": -60, "ori_end": -57.357397126120524, "motion_direction": "out"}, "stimResponseInterval": 0.06130197423557826, "stimulusDuration": 1.5, "trial_count": 17, "ts": "orientation", "trial_type": "intensity-70", "exp_stage": "adaptive_procedure", "decision_var": 2.642602873879475, "response": "right", "rt": 0.34495113999582827, "FB": 1, "quest_estimate": 8.110021722554006, "trial_time": 2.4313423190033063}
{"FBDuration": 0.5, "FBonset": 0, "ITI": 0.7096510620046028, "displayFB": true, "onset": 80.5031480564289, "punishment_amount": 0, "responseWindow": 1.5, "reward_amount": 1, "stim": {"motionDirection": "out", "oriBase": -60, "oriDirection": 1, "oriStrength": 0.775, "speedDirection": 1, "speedStrength": 0.775, "speed_start": 0.12, "speed_end": 0.12082389453775044, "ori_start": -60, "ori_end": -56.08392692179197, "motion_direction": "out"}, "stimResponseInterval": 0.6754678894077293, "stimulusDuration": 1.5, "trial_count": 18, "ts": "orientation", "trial_type": "intensity-85", "exp_stage": "adaptive_procedure", "decision_var": 3.9160730782080306, "response": "right", "rt": 0.31260026899690274, "FB": 1, "quest_estimate": 7.745072329608249, "trial_time": 3.0180786779965274}
{"FBDuration": 0.5, "FBonset": 0, "ITI": 0.4958377244946488, "displayFB": true, "onset": 85.38826700784124, "punishment_amount": 0, "responseWindow": 1.5, "reward_amount": 1, "stim": {"motionDirection": "out", "oriBase": -60, "oriDirection": 1, "oriStrength": 0.775, "speedDirection": 1, "speedStrength": 0.775, "speed_start": 0.12, "speed_end": 0.12082389453775044, "ori_start": -60, "ori_end": -53.89729525922716, "motion_direction": "out"}, "stimResponseInterval": 0.23588434090228516, "stimulusDuration": 1.5, "trial_count": 19, "ts": "orientation", "trial_type": "intensity-93", "exp_stage": "adaptive_procedure", "decision_var": 6.102704740772841, "response": "right", "rt": 0.3335717899899464, "FB": 1, "quest_estimate": 7.1642361950799796, "trial_time": 2.5949343940010294}
{"FBDuration": 0.5, "FBonset": 0, "ITI": 0.4963896857312652, "displayFB": true, "onset": 89.61998907323817, "punishment_amount": 0, "responseWindow": 1.5, "reward_amount": 1, "stim": {"motionDirection": "in", "oriBase": -60, "oriDirection": 1, "oriStrength": 0.775, "speedDirection": -1, "speedStrength": 0.775, "speed_start": 0.12, "speed_end": 0.11917610546224955, "ori_start": -60, "ori_end": -56.08392692179197, "motion_direction": "in"}, "stimResponseInterval": 0.6986167927077154, "stimulusDuration": 1.5, "trial_count": 20, "ts": "orientation", "trial_type": "intensity-85", "exp_stage": "adaptive_procedure", "decision_var": 3.9160730782080306, "response": "right", "rt": 0.25992612999107223, "FB": 1, "quest_estimate": 6.385191276387527, "trial_time": 2.984871214008308}
{"FBDuration": 0.5, "FBonset": 0, "ITI": 0.8628491139941343, "displayFB": true, "onset": 94.31499555167716, "punishment_amount": 0, "responseWindow": 1.5, "reward_amount": 1, "stim": {"motionDirection": "in", "oriBase": -60, "oriDirection": 1, "oriStrength": 0.775, "speedDirection": -1, "speedStrength": 0.775, "speed_start": 0.12, "speed_end": 0.11917610546224955, "ori_start": -60, "ori_end": -56.08392692179197, "motion_direction": "in"}, "stimResponseInterval": 0.4733806277122792, "stimulusDuration": 1.5, "trial_count": 21, "ts": "orientation", "trial_type": "intensity-85", "exp_stage": "adaptive_procedure", "decision_var": 3.9160730782080306, "response": "right", "rt": 0.28121779700450134, "FB": 1, "quest_estimate": 5.527928862311125, "trial_time": 2.784158323003794}
{"FBDuration": 0.5, "FBonset": 0, "ITI": 0.5010195467939371, "displayFB": true, "onset": 99.15122529338358, "punishment_amount": 0, "responseWindow": 1.5, "reward_amount": 1, "stim": {"motionDirection": "out", "oriBase": 30, "oriDirection": 1, "oriStrength": 0.775, "speedDirection": 1, "speedStrength": 0.775, "speed_start": 0.12, "speed_end": 0.12082389453775044, "ori_start": 30, "ori_end": 36.10270474077284, "motion_direction": "out"}, "stimResponseInterval": 0.4017408119994722, "stimulusDuration": 1.5, "trial_count": 22, "ts": "orientation", "trial_type": "intensity-93", "exp_stage": "adaptive_procedure", "decision_var": 6.102704740772841, "response": "right", "rt": 0.2776645240082871, "FB": 1, "quest_estimate": 4.771599230506215, "trial_time": 2.703965733991936}
{"FBDuration": 0.5, "FBonset": 0, "ITI": 0.7871577607159046, "displayFB": true, "onset": 103.55398565217699, "punishment_amount": 0, "responseWindow": 1.5, "reward_amount": 1, "stim": {"motionDirection": "in", "oriBase": 30, "oriDirection": -1, "oriStrength": 0.775, "speedDirection": -1, "speedStrength": 0.775, "speed_start": 0.12, "speed_end": 0.11917610546224955, "ori_start": 30, "ori_end": 26.08392692179197, "motion_direction": "in"}, "stimResponseInterval": 0.8393741493492759, "stimulusDuration": 1.5, "trial_count": 23, "ts": "orientation", "trial_type": "intensity-85", "exp_stage": "adaptive_procedure", "decision_var": 3.9160730782080306, "response": "left", "rt": 0.28587793199403677, "FB": 1, "quest_estimate": 4.229257274324194, "trial_time": 3.1628874290036038}
{"FBDuration": 0.5, "FBonset": 0, "ITI": 0.7579966595403564, "displayFB": true, "onset": 108.68051756224217, "punishment_amount": 0, "responseWindow": 1.5, "reward_amount": 1, "stim": {"motionDirection": "out", "oriBase": -60, "oriDirection": 1, "oriStrength": 0.775, "speedDirection": 1, "speedStrength": 0.775, "speed_start": 0.12, "speed_end": 0.12082389453775044, "ori_start": -60, "ori_end": -53.89729525922716, "motion_direction": "out"}, "stimResponseInterval": 0.4578179256061067, "stimulusDuration": 1.5, "trial_count": 24, "ts": "orientation", "trial_type": "intensity-93", "exp_stage": "adaptive_procedure", "decision_var": 6.102704740772841, "response": "right", "rt": 0.2681909689999884, "FB": 1, "quest_estimate": 3.8918718840856243, "trial_time": 2.7521383940038504}
{"FBDuration": 0.5, "FBonset": 0, "ITI": 0.9074440560084513, "displayFB": true, "onset": 113.39633214738863, "punishment_amount": 0, "responseWindow": 1.5, "reward_amount": 1, "stim": {"motionDirection": "in", "oriBase": 30, "oriDirection": -1, "oriStrength": 0.775, "speedDirection": 1, "speedStrength": 0.775, "speed_start": 0.12, "speed_end": 0.12082389453775044, "ori_start": 30, "ori_end": 27.357397126120524, "motion_direction": "in"}, "stimResponseInterval": 0.17529351109340918, "stimulusDuration": 1.5, "trial_count": 25, "ts": "orientation", "trial_type": "intensity-70", "exp_stage": "adaptive_procedure", "decision_var": 2.642602873879475, "response": "left", "rt": 0.3397719060012605, "FB": 1, "quest_estimate": 3.891555390978837, "trial_time": 2.539457794991904}
{"FBDuration": 0.5, "FBonset": 0, "ITI": 0.07001222966480292, "displayFB": true, "onset": 117.97906971449049, "punishment_amount": 0, "responseWindow": 1.5, "reward_amount": 1, "stim": {"motionDirection": "out", "oriBase": -60, "oriDirection": -1, "oriStrength": 0.775, "speedDirection": 1, "speedStrength": 0.775, "speed_start": 0.12, "speed_end": 0.12082389453775044, "ori_start": -60, "ori_end": -61.872661875441466, "motion_direction": "out"}, "stimResponseInterval": 0.5285001720841629, "stimulusDuration": 1.5, "trial_count": 26, "ts": "orientation", "trial_type": "intensity-60", "exp_stage": "adaptive_procedure", "decision_var": 1.872661875441469, "response": "right", "rt": 0.2799260879983194, "FB": 0, "quest_estimate": 3.891556515108924, "trial_time": 2.831566542008659}
{"FBDuration": 0.5, "FBonset": 0, "ITI": 0.17503261262280834, "displayFB": true, "onset": 122.07758211623945, "punishment_amount": 0, "responseWindow": 1.5, "reward_amount": 1, "stim": {"motionDirection": "out", "oriBase": -60, "oriDirection": -1, "oriStrength": 0.775, "speedDirection": 1, "speedStrength": 0.775, "speed_start": 0.12, "speed_end": 0.12082389453775044, "ori_start": -60, "ori_end": -63.91607307820803, "motion_direction": "out"}, "stimResponseInterval": 0.2534998656495696, "stimulusDuration": 1.5, "trial_count": 27, "ts": "orientation", "trial_type": "intensity-85", "exp_stage": "adaptive_procedure", "decision_var": 3.9160730782080306, "response": "left", "rt": 0.317015912005445, "FB": 1, "quest_estimate": 3.701088808858067, "trial_time": 2.5939220689906506}
{"FBDuration": 0.5, "FBonset": 0, "ITI": 0.28679541735817293, "displayFB": true, "onset": 126.00611459451183, "punishment_amount": 0, "responseWindow": 1.5, "reward_amount": 1, "stim": {"motionDirection": "out", "oriBase": 30, "oriDirection": -1, "oriStrength": 0.775, "speedDirection": 1, "speedStrength": 0.775, "speed_start": 0.12, "speed_end": 0.12082389453775044, "ori_start": 30, "ori_end": 27.357397126120524, "motion_direction": "out"}, "stimResponseInterval": 0.24810803551611726, "stimulusDuration": 1.5, "trial_count": 28, "ts": "orientation", "trial_type": "intensity-70", "exp_stage": "adaptive_procedure", "decision_var": 2.642602873879475, "response": "left", "rt": 0.29656161200546194, "FB": 1, "quest_estimate": 3.7008970783639015, "trial_time": 2.5713634160056245}
{"FBDuration": 0.5, "FBonset": 0, "ITI": 0.4989851507988382, "displayFB": true, "onset": 130.04101804738613, "punishment_amount": 0, "responseWindow": 1.5, "reward_amount": 1, "stim": {"motionDirection": "out", "oriBase": 30, "oriDirection": 1, "oriStrength": 0.775, "speedDirection": -1, "speedStrength": 0.775, "speed_start": 0.12, "speed_end": 0.11917610546224955, "ori_start": 30, "ori_end": 31.87266187544147, "motion_direction": "out"}, "stimResponseInterval": 0.9133681924449044, "stimulusDuration": 1.5, "trial_count": 29, "ts": "orientation", "trial_type": "intensity-60", "exp_stage": "adaptive_procedure", "decision_var": 1.872661875441469, "response": "right", "rt": 0.2982187249872368, "FB": 1, "quest_estimate": 3.700896397332844, "trial_time": 3.2362973679992137}
{"FBDuration": 0.5, "FBonset": 0, "ITI": 0.18616838696910987, "displayFB": true, "onset": 134.95337139062988, "punishment_amount": 0, "responseWindow": 1.5, "reward_amount": 1, "stim": {"motionDirection": "out", "oriBase": -60, "oriDirection": -1, "oriStrength": 0.775, "speedDirection": -1, "speedStrength": 0.775, "speed_start": 0.12, "speed_end": 0.11917610546224955, "ori_start": -60, "ori_end": -63.91607307820803, "motion_direction": "out"}, "stimResponseInterval": 0.5394084684570253, "stimulusDuration": 1.5, "trial_count": 30, "ts": "orientation", "trial_type": "intensity-85", "exp_stage": "adaptive_procedure", "decision_var": 3.9160730782080306, "response": "right", "rt": 0.2841628989990568, "FB": 0, "quest_estimate": 7.326786207219612, "trial_time": 2.8501358770008665}
{"FBDuration": 0.5, "FBonset": 0, "ITI": 0.8021289725552232, "displayFB": true, "onset": 139.17894824605602, "punishment_amount": 0, "responseWindow": 1.5, "reward_amount": 1, "stim": {"motionDirection": "in", "oriBase": 30, "oriDirection": 1, "oriStrength": 0.775, "speedDirection": -1, "speedStrength": 0.775, "speed_start": 0.12, "speed_end": 0.11917610546224955, "ori_start": 30, "ori_end": 31.87266187544147, "motion_direction": "in"}, "stimResponseInterval": 0.541580955004161, "stimulusDuration": 1.5, "trial_count": 31, "ts": "orientation", "trial_type": "intensity-60", "exp_stage": "adaptive_procedure", "decision_var": 1.872661875441469, "response": "left", "rt": 0.2993607240059646, "FB": 0, "quest_estimate": 7.326788084362825, "trial_time": 2.8738492020056583}
{"FBDuration": 0.5, "FBonset": 0, "ITI": 0.6035982232702608, "displayFB": true, "onset": 144.0226581736154, "punishment_amount": 0, "responseWindow": 1.5, "reward_amount": 1, "stim": {"motionDirection": "in", "oriBase": 30, "oriDirection": -1, "oriStrength": 0.775, "speedDirection": 1, "speedStrength": 0.775, "speed_start": 0.12, "speed_end": 0.12082389453775044, "ori_start": 30, "ori_end": 23.897295259227157, "motion_direction": "in"}, "stimResponseInterval": 0.2819552663050062, "stimulusDuration": 1.5, "trial_count": 32, "ts": "orientation", "trial_type": "intensity-93", "exp_stage": "adaptive_procedure", "decision_var": 6.102704740772841, "response": "left", "rt": 0.34768387200892903, "FB": 1, "quest_estimate": 6.592276768425812, "trial_time": 2.6672497859981377}
{"FBDuration": 0.5, "FBonset": 0, "ITI": 0.8832328852353752, "displayFB": true, "onset": 148.40821166319068, "punishment_amount": 0, "responseWindow": 1.5, "reward_amount": 1, "stim": {"motionDirection": "in", "oriBase": 30, "oriDirection": -1, "oriStrength": 0.775, "speedDirection": -1, "speedStrength": 0.775, "speed_start": 0.12, "speed_end": 0.11917610546224955, "ori_start": 30, "ori_end": 27.357397126120524, "motion_direction": "in"}, "stimResponseInterval": 0.45096515926497405, "stimulusDuration": 1.5, "trial_count": 33, "ts": "orientation", "trial_type": "intensity-70", "exp_stage": "adaptive_procedure", "decision_var": 2.642602873879475, "response": "up", "rt": 0.24421626899857074, "FB": 0, "quest_estimate": 6.59296215211592, "trial_time": 2.7290228079946246}
{"FBDuration": 0.5, "FBonset": 0, "ITI": 0.16396393161004785, "displayFB": true, "onset": 153.24240970769102, "punishment_amount": 0, "responseWindow": 1.5, "reward_amount": 1, "stim": {"motionDirection": "in", "oriBase": 30, "oriDirection": 1, "oriStrength": 0.775, "speedDirection": 1, "speedStrength": 0.775, "speed_start": 0.12, "speed_end": 0.12082389453775044, "ori_start": 30, "ori_end": 36.10270474077284, "motion_direction": "in"}, "stimResponseInterval": 0.5797143833845733, "stimulusDuration": 1.5, "trial_count": 34, "ts": "orientation", "trial_type": "intensity-93", "exp_stage": "adaptive_procedure", "decision_var": 6.102704740772841, "response": "right", "rt": 0.29967871100234333, "FB": 1, "quest_estimate": 5.749302026307237, "trial_time": 2.9106428119994234}
{"FBDuration": 0.5, "FBonset": 0, "ITI": 0.6570431956217146, "displayFB": true, "onset": 157.48608802268564, "punishment_amount": 0, "responseWindow": 1.5, "reward_amount": 1, "stim": {"motionDirection": "out", "oriBase": 30, "oriDirection": 1, "oriStrength": 0.775, "speedDirection": -1, "speedStrength": 0.775, "speed_start": 0.12, "speed_end": 0.11917610546224955, "ori_start": 30, "ori_end": 31.87266187544147, "motion_direction": "out"}, "stimResponseInterval": 0.4837179378370998, "stimulusDuration": 1.5, "trial_count": 35, "ts": "orientation", "trial_type": "intensity-60", "exp_stage": "adaptive_procedure", "decision_var": 1.872661875441469, "response": "left", "rt": 0.26185216099838726, "FB": 0, "quest_estimate": 5.749304571119676, "trial_time": 2.781860949995462}
{"FBDuration": 0.5, "FBonset": 0, "ITI": 0.36766678160988886, "displayFB": true, "onset": 162.12684915614446, "punishment_amount": 0, "responseWindow": 1.5, "reward_amount": 1, "stim": {"motionDirection": "in", "oriBase": -60, "oriDirection": 1, "oriStrength": 0.775, "speedDirection": 1, "speedStrength": 0.775, "speed_start": 0.12, "speed_end": 0.12082389453775044, "ori_start": -60, "ori_end": -53.89729525922716, "motion_direction": "in"}, "stimResponseInterval": 0.5431357531716763, "stimulusDuration": 1.5, "trial_count": 36, "ts": "orientation", "trial_type": "intensity-93", "exp_stage": "adaptive_procedure", "decision_var": 6.102704740772841, "response": "left", "rt": 0.29621753298852127, "FB": 0, "quest_estimate": 8.490472733450297, "trial_time": 2.8660387889976846}
{"FBDuration": 0.5, "FBonset": 0, "ITI": 0.30413155015709525, "displayFB": true, "onset": 166.53765169092603, "punishment_amount": 0, "responseWindow": 1.5, "reward_amount": 1, "stim": {"motionDirection": "out", "oriBase": 30, "oriDirection": -1, "oriStrength": 0.775, "speedDirection": -1, "speedStrength": 0.775, "speed_start": 0.12, "speed_end": 0.11917610546224955, "ori_start": 30, "ori_end": 26.08392692179197, "motion_direction": "out"}, "stimResponseInterval": 0.13097994705249705, "stimulusDuration": 1.5, "trial_count": 37, "ts": "orientation", "trial_type": "intensity-85", "exp_stage": "adaptive_procedure", "decision_var": 3.9160730782080306, "response": "left", "rt": 0.3039524519990664, "FB": 1, "quest_estimate": 8.43417849675389, "trial_time": 2.465422646011575}
{"FBDuration": 0.5, "FBonset": 0, "ITI": 0.9679920918474103, "displayFB": true, "onset": 170.47276318813562, "punishment_amount": 0, "responseWindow": 1.5, "reward_amount": 1, "stim": {"motionDirection": "out", "oriBase": 30, "oriDirection": 1, "oriStrength": 0.775, "speedDirection": 1, "speedStrength": 0.775, "speed_start": 0.12, "speed_end": 0.12082389453775044, "ori_start": 30, "ori_end": 36.10270474077284, "motion_direction": "out"}, "stimResponseInterval": 0.16268251548006674, "stimulusDuration": 1.5, "trial_count": 38, "ts": "orientation", "trial_type": "intensity-93", "exp_stage": "adaptive_procedure", "decision_var": 6.102704740772841, "response": "right", "rt": 0.39558942000439856, "FB": 1, "quest_estimate": 8.320931486596294, "trial_time": 2.5859035949979443}
{"FBDuration": 0.5, "FBonset": 0, "ITI": 0.8246982835257781, "displayFB": true, "onset": 175.1034377954631, "punishment_amount": 0, "responseWindow": 1.5, "reward_amount": 1, "stim": {"motionDirection": "in", "oriBase": -60, "oriDirection": 1, "oriStrength": 0.775, "speedDirection": -1, "speedStrength": 0.775, "speed_start": 0.12, "speed_end": 0.11917610546224955, "ori_start": -60, "ori_end": -53.89729525922716, "motion_direction": "in"}, "stimResponseInterval": 0.22183459901752944, "stimulusDuration": 1.5, "trial_count": 39, "ts": "orientation", "trial_type": "intensity-93", "exp_stage": "adaptive_procedure", "decision_var": 6.102704740772841, "response": "right", "rt": 0.3102030299924081, "FB": 1, "quest_estimate": 8.110588842705134, "trial_time": 2.5605336669977987}
{"FBDuration": 0.5, "FBonset": 0, "ITI": 0.34417855370379047, "displayFB": true, "onset": 179.6499706780064, "punishment_amount": 0, "responseWindow": 1.5, "reward_amount": 1, "stim": {"motionDirection": "in", "oriBase": -60, "oriDirection": -1, "oriStrength": 0.775, "speedDirection": 1, "speedStrength": 0.775, "speed_start": 0.12, "speed_end": 0.12082389453775044, "ori_start": -60, "ori_end": -61.872661875441466, "motion_direction": "in"}, "stimResponseInterval": 0.14101304822355765, "stimulusDuration": 1.5, "trial_count": 40, "ts": "orientation", "trial_type": "intensity-60", "exp_stage": "adaptive_procedure", "decision_var": 1.872661875441469, "response": "left", "rt": 0.33095733499794733, "FB": 1, "quest_estimate": 8.110587992965808, "trial_time": 2.5024057580012595}
{"FBDuration": 0.5, "FBonset": 0, "ITI": 0.6935361053508273, "displayFB": true, "onset": 183.63516227993375, "punishment_amount": 0, "responseWindow": 1.5, "reward_amount": 1, "stim": {"motionDirection": "in", "oriBase": -60, "oriDirection": -1, "oriStrength": 0.775, "speedDirection": -1, "speedStrength": 0.775, "speed_start": 0.12, "speed_end": 0.11917610546224955, "ori_start": -60, "ori_end": -62.642602873879476, "motion_direction": "in"}, "stimResponseInterval": 0.7961434811246355, "stimulusDuration": 1.5, "trial_count": 41, "ts": "orientation", "trial_type": "intensity-70", "exp_stage": "adaptive_procedure", "decision_var": 2.642602873879475, "response": "right", "rt": 0.2818082269950537, "FB": 0, "quest_estimate": 8.110827367555359, "trial_time": 3.1057364369917195}
{"FBDuration": 0.5, "FBonset": 0, "ITI": 0.03264536032974363, "displayFB": true, "onset": 188.6248418664092, "punishment_amount": 0, "responseWindow": 1.5, "reward_amount": 1, "stim": {"motionDirection": "out", "oriBase": 30, "oriDirection": -1, "oriStrength": 0.775, "speedDirection": 1, "speedStrength": 0.775, "speed_start": 0.12, "speed_end": 0.12082389453775044, "ori_start": 30, "ori_end": 27.357397126120524, "motion_direction": "out"}, "stimResponseInterval": 0.2700550418619114, "stimulusDuration": 1.5, "trial_count": 42, "ts": "orientation", "trial_type": "intensity-70", "exp_stage": "adaptive_procedure", "decision_var": 2.642602873879475, "response": "left", "rt": 0.3298204480088316, "FB": 1, "quest_estimate": 8.110588246335865, "trial_time": 2.6356726300000446}
{"FBDuration": 0.5, "FBonset": 0, "ITI": 0.08071954700442285, "displayFB": true, "onset": 192.42754226860086, "punishment_amount": 0, "responseWindow": 1.5, "reward_amount": 1, "stim": {"motionDirection": "in", "oriBase": -60, "oriDirection": 1, "oriStrength": 0.775, "speedDirection": -1, "speedStrength": 0.775, "speed_start": 0.12, "speed_end": 0.11917610546224955, "ori_start": -60, "ori_end": -53.89729525922716, "motion_direction": "in"}, "stimResponseInterval": 0.5019649438479568, "stimulusDuration": 1.5, "trial_count": 43, "ts": "orientation", "trial_type": "intensity-93", "exp_stage": "adaptive_procedure", "decision_var": 6.102704740772841, "response": "right", "rt": 0.33892954599286895, "FB": 1, "quest_estimate": 7.743016093018028, "trial_time": 2.873101534001762}
{"FBDuration": 0.5, "FBonset": 0, "ITI": 0.7590100388749244, "displayFB": true, "onset": 196.51022675945325, "punishment_amount": 0, "responseWindow": 1.5, "reward_amount": 1, "stim": {"motionDirection": "in", "oriBase": -60, "oriDirection": 1, "oriStrength": 0.775, "speedDirection": 1, "speedStrength": 0.775, "speed_start": 0.12, "speed_end": 0.12082389453775044, "ori_start": -60, "ori_end": -53.89729525922716, "motion_direction": "in"}, "stimResponseInterval": 0.44471829664156115, "stimulusDuration": 1.5, "trial_count": 44, "ts": "orientation", "trial_type": "intensity-93", "exp_stage": "adaptive_procedure", "decision_var": 6.102704740772841, "response": "right", "rt": 0.29236836500058416, "FB": 1, "quest_estimate": 7.1642837117869504, "trial_time": 2.768325092998566}
{"FBDuration": 0.5, "FBonset": 0, "ITI": 0.7476475770513789, "displayFB": true, "onset": 201.21395509496972, "punishment_amount": 0, "responseWindow": 1.5, "reward_amount": 1, "stim": {"motionDirection": "in", "oriBase": 30, "oriDirection": 1, "oriStrength": 0.775, "speedDirection": 1, "speedStrength": 0.775, "speed_start": 0.12, "speed_end": 0.12082389453775044, "ori_start": 30, "ori_end": 33.91607307820803, "motion_direction": "in"}, "stimResponseInterval": 0.14973895004306848, "stimulusDuration": 1.5, "trial_count": 45, "ts": "orientation", "trial_type": "intensity-85", "exp_stage": "adaptive_procedure", "decision_var": 3.9160730782080306, "response": "right", "rt": 0.36810898399562575, "FB": 1, "quest_estimate": 6.427356768867767, "trial_time": 2.5432049070077483}
{"FBDuration": 0.5, "FBonset": 0, "ITI": 0.3229472919480936, "displayFB": true, "onset": 205.61134162206417, "punishment_amount": 0, "responseWindow": 1.5, "reward_amount": 1, "stim": {"motionDirection": "out", "oriBase": 30, "oriDirection": -1, "oriStrength": 0.775, "speedDirection": -1, "speedStrength": 0.775, "speed_start": 0.12, "speed_end": 0.11917610546224955, "ori_start": 30, "ori_end": 28.12733812455853, "motion_direction": "out"}, "stimResponseInterval": 0.05605433092907319, "stimulusDuration": 1.5, "trial_count": 46, "ts": "orientation", "trial_type": "intensity-60", "exp_stage": "adaptive_procedure", "decision_var": 1.872661875441469, "response": "left", "rt": 0.32991072301228996, "FB": 1, "quest_estimate": 6.427354077202793, "trial_time": 2.41253541498736}
{"FBDuration": 0.5, "FBonset": 0, "ITI": 0.9994493679206569, "displayFB": true, "onset": 209.49034324494133, "punishment_amount": 0, "responseWindow": 1.5, "reward_amount": 1, "stim": {"motionDirection": "in", "oriBase": -60, "oriDirection": -1, "oriStrength": 0.775, "speedDirection": -1, "speedStrength": 0.775, "speed_start": 0.12, "speed_end": 0.11917610546224955, "ori_start": -60, "ori_end": -62.642602873879476, "motion_direction": "in"}, "stimResponseInterval": 0.21563841087479618, "stimulusDuration": 1.5, "trial_count": 47, "ts": "orientation", "trial_type": "intensity-70", "exp_stage": "adaptive_procedure", "decision_var": 2.642602873879475, "response": "left", "rt": 0.38556799599609803, "FB": 1, "quest_estimate": 6.426596060307052, "trial_time": 2.6310212219977984}
{"FBDuration": 0.5, "FBonset": 0, "ITI": 0.7709997876554049, "displayFB": true, "onset": 214.2054310237368, "punishment_amount": 0, "responseWindow": 1.5, "reward_amount": 1, "stim": {"motionDirection": "in", "oriBase": 30, "oriDirection": 1, "oriStrength": 0.775, "speedDirection": -1, "speedStrength": 0.775, "speed_start": 0.12, "speed_end": 0.11917610546224955, "ori_start": 30, "ori_end": 33.91607307820803, "motion_direction": "in"}, "stimResponseInterval": 0.6843478677333936, "stimulusDuration": 1.5, "trial_count": 48, "ts": "orientation", "trial_type": "intensity-85", "exp_stage": "adaptive_procedure", "decision_var": 3.9160730782080306, "response": "right", "rt": 0.19265588199777994, "FB": 1, "quest_estimate": 5.607167032834344, "trial_time": 2.9069739879923873}
{"FBDuration": 0.5, "FBonset": 0, "ITI": 0.33614953162019856, "displayFB": true, "onset": 219.1607786791256, "punishment_amount": 0, "responseWindow": 1.5, "reward_amount": 1, "stim": {"motionDirection": "out", "oriBase": -60, "oriDirection": 1, "oriStrength": 0.775, "speedDirection": -1, "speedStrength": 0.775, "speed_start": 0.12, "speed_end": 0.11917610546224955, "ori_start": -60, "ori_end": -58.127338124558534, "motion_direction": "out"}, "stimResponseInterval": 0.36646960252830596, "stimulusDuration": 1.5, "trial_count": 49, "ts": "orientation", "trial_type": "intensity-60", "exp_stage": "adaptive_procedure", "decision_var": 1.872661875441469, "response": "right", "rt": 0.3099545080040116, "FB": 1, "quest_estimate": 5.607164254904351, "trial_time": 2.715802785998676}
{"FBDuration": 0.5, "FBonset": 0, "ITI": 0.40040187217518264, "displayFB": true, "onset": 223.3633978132741, "punishment_amount": 0, "responseWindow": 1.5, "reward_amount": 1, "stim": {"motionDirection": "out", "oriBase": 30, "oriDirection": -1, "oriStrength": 0.775, "speedDirection": -1, "speedStrength": 0.775, "speed_start": 0.12, "speed_end": 0.11917610546224955, "ori_start": 30, "ori_end": 23.897295259227157, "motion_direction": "out"}, "stimResponseInterval": 0.7759657922391032, "stimulusDuration": 1.5, "trial_count": 50, "ts": "orientation", "trial_type": "intensity-93", "exp_stage": "adaptive_procedure", "decision_var": 6.102704740772841, "response": "left", "rt": 0.3003351050138008, "FB": 1, "quest_estimate": 4.851275653444684, "trial_time": 3.112419480996323}
{"FBDuration": 0.5, "FBonset": 0, "ITI": 0.19313520589750643, "displayFB": true, "onset": 228.03976547768838, "punishment_amount": 0, "responseWindow": 1.5, "reward_amount": 1, "stim": {"motionDirection": "out", "oriBase": 30, "oriDirection": 1, "oriStrength": 0.775, "speedDirection": -1, "speedStrength": 0.775, "speed_start": 0.12, "speed_end": 0.11917610546224955, "ori_start": 30, "ori_end": 33.91607307820803, "motion_direction": "out"}, "stimResponseInterval": 0.2985406961342214, "stimulusDuration": 1.5, "trial_count": 51, "ts": "orientation", "trial_type": "intensity-85", "exp_stage": "adaptive_procedure", "decision_var": 3.9160730782080306, "response": "right", "rt": 0.3286903709959006, "FB": 1, "quest_estimate": 4.312055351431898, "trial_time": 2.650977815996157}
{"FBDuration": 0.5, "FBonset": 0, "ITI": 0.9333207565543975, "displayFB": true, "onset": 232.0314413797201, "punishment_amount": 0, "responseWindow": 1.5, "reward_amount": 1, "stim": {"motionDirection": "in", "oriBase": 30, "oriDirection": 1, "oriStrength": 0.775, "speedDirection": 1, "speedStrength": 0.775, "speed_start": 0.12, "speed_end": 0.12082389453775044, "ori_start": 30, "ori_end": 32.642602873879476, "motion_direction": "in"}, "stimResponseInterval": 0.5773554262284275, "stimulusDuration": 1.5, "trial_count": 52, "ts": "orientation", "trial_type": "intensity-70", "exp_stage": "adaptive_procedure", "decision_var": 2.642602873879475, "response": "right", "rt": 0.2528029940003762, "FB": 1, "quest_estimate": 4.311593572270844, "trial_time": 2.8608823730028234}
{"FBDuration": 0.5, "FBonset": 0, "ITI": 0.4753522863376646, "displayFB": true, "onset": 237.0421175625029, "punishment_amount": 0, "responseWindow": 1.5, "reward_amount": 1, "stim": {"motionDirection": "out", "oriBase": 30, "oriDirection": -1, "oriStrength": 0.775, "speedDirection": 1, "speedStrength": 0.775, "speed_start": 0.12, "speed_end": 0.12082389453775044, "ori_start": 30, "ori_end": 26.08392692179197, "motion_direction": "out"}, "stimResponseInterval": 0.9778447150909795, "stimulusDuration": 1.5, "trial_count": 53, "ts": "orientation", "trial_type": "intensity-85", "exp_stage": "adaptive_procedure", "decision_var": 3.9160730782080306, "response": "left", "rt": 0.25435139299952425, "FB": 1, "quest_estimate": 3.9651093272212634, "trial_time": 3.267739356000675}
{"FBDuration": 0.5, "FBonset": 0, "ITI": 0.40198719647053494, "displayFB": true, "onset": 241.99531456393154, "punishment_amount": 0, "responseWindow": 1.5, "reward_amount": 1, "stim": {"motionDirection": "in", "oriBase": 30, "oriDirection": 1, "oriStrength": 0.775, "speedDirection": -1, "speedStrength": 0.775, "speed_start": 0.12, "speed_end": 0.11917610546224955, "ori_start": 30, "ori_end": 36.10270474077284, "motion_direction": "in"}, "stimResponseInterval": 0.7890630694892473, "stimulusDuration": 1.5, "trial_count": 54, "ts": "orientation", "trial_type": "intensity-93", "exp_stage": "adaptive_procedure", "decision_var": 6.102704740772841, "response": "right", "rt": 0.22584558199741878, "FB": 1, "quest_estimate": 3.7639747751002517, "trial_time": 3.045489568001358}
{"FBDuration": 0.5, "FBonset": 0, "ITI": 0.34312129030741456, "displayFB": true, "onset": 246.68636482989132, "punishment_amount": 0, "responseWindow": 1.5, "reward_amount": 1, "stim": {"motionDirection": "out", "oriBase": -60, "oriDirection": 1, "oriStrength": 0.775, "speedDirection": -1, "speedStrength": 0.775, "speed_start": 0.12, "speed_end": 0.11917610546224955, "ori_start": -60, "ori_end": -57.357397126120524, "motion_direction": "out"}, "stimResponseInterval": 0.8383832589083113, "stimulusDuration": 1.5, "trial_count": 55, "ts": "orientation", "trial_type": "intensity-70", "exp_stage": "adaptive_procedure", "decision_var": 2.642602873879475, "response": "right", "rt": 0.24206616599985864, "FB": 1, "quest_estimate": 3.7637785653407185, "trial_time": 3.118378501996631}
{"FBDuration": 0.5, "FBonset": 0, "ITI": 0.2818603462429141, "displayFB": true, "onset": 251.36786937910705, "punishment_amount": 0, "responseWindow": 1.5, "reward_amount": 1, "stim": {"motionDirection": "out", "oriBase": 30, "oriDirection": -1, "oriStrength": 0.775, "speedDirection": 1, "speedStrength": 0.775, "speed_start": 0.12, "speed_end": 0.12082389453775044, "ori_start": 30, "ori_end": 28.12733812455853, "motion_direction": "out"}, "stimResponseInterval": 0.7561109049806831, "stimulusDuration": 1.5, "trial_count": 56, "ts": "orientation", "trial_type": "intensity-60", "exp_stage": "adaptive_procedure", "decision_var": 1.872661875441469, "response": "left", "rt": 0.23300530599954072, "FB": 1, "quest_estimate": 3.7637778683475673, "trial_time": 3.027269147001789}
{"FBDuration": 0.5, "FBonset": 0, "ITI": 0.4853394192438464, "displayFB": true, "onset": 255.90584063033066, "punishment_amount": 0, "responseWindow": 1.5, "reward_amount": 1, "stim": {"motionDirection": "in", "oriBase": 30, "oriDirection": 1, "oriStrength": 0.775, "speedDirection": 1, "speedStrength": 0.775, "speed_start": 0.12, "speed_end": 0.12082389453775044, "ori_start": 30, "ori_end": 33.91607307820803, "motion_direction": "in"}, "stimResponseInterval": 0.7079810103458475, "stimulusDuration": 1.5, "trial_count": 57, "ts": "orientation", "trial_type": "intensity-85", "exp_stage": "adaptive_procedure", "decision_var": 3.9160730782080306, "response": "right", "rt": 0.24143093099701218, "FB": 1, "quest_estimate": 3.6526700320222183, "trial_time": 2.9809769529965706}
{"FBDuration": 0.5, "FBonset": 0, "ITI": 0.23469136411933977, "displayFB": true, "onset": 260.59916105992033, "punishment_amount": 0, "responseWindow": 1.5, "reward_amount": 1, "stim": {"motionDirection": "in", "oriBase": 30, "oriDirection": -1, "oriStrength": 0.775, "speedDirection": 1, "speedStrength": 0.775, "speed_start": 0.12, "speed_end": 0.12082389453775044, "ori_start": 30, "ori_end": 28.12733812455853, "motion_direction": "in"}, "stimResponseInterval": 0.796410006202684, "stimulusDuration": 1.5, "trial_count": 58, "ts": "orientation", "trial_type": "intensity-60", "exp_stage": "adaptive_procedure", "decision_var": 1.872661875441469, "response": "left", "rt": 0.2359976860025199, "FB": 1, "quest_estimate": 3.652669558112411, "trial_time": 3.0688644680049038}
{"FBDuration": 0.5, "FBonset": 0, "ITI": 0.6217493159001142, "displayFB": true, "onset": 265.13026243024234, "punishment_amount": 0, "responseWindow": 1.5, "reward_amount": 1, "stim": {"motionDirection": "out", "oriBase": 30, "oriDirection": -1, "oriStrength": 0.775, "speedDirection": -1, "speedStrength": 0.775, "speed_start": 0.12, "speed_end": 0.11917610546224955, "ori_start": 30, "ori_end": 28.12733812455853, "motion_direction": "out"}, "stimResponseInterval": 0.3151108031176757, "stimulusDuration": 1.5, "trial_count": 59, "ts": "orientation", "trial_type": "intensity-60", "exp_stage": "adaptive_procedure", "decision_var": 1.872661875441469, "response": "right", "rt": 0.31356054700154345, "FB": 0, "quest_estimate": 3.6526700320243286, "trial_time": 2.665253405997646}
{"FBDuration": 0.5, "FBonset": 0, "ITI": 0.05771440986440768, "displayFB": true, "onset": 269.56712254926015, "punishment_amount": 0, "responseWindow": 1.5, "reward_amount": 1, "stim": {"motionDirection": "in", "oriBase": 30, "oriDirection": -1, "oriStrength": 0.775, "speedDirection": -1, "speedStrength": 0.775, "speed_start": 0.12, "speed_end": 0.11917610546224955, "ori_start": 30, "ori_end": 28.12733812455853, "motion_direction": "in"}, "stimResponseInterval": 0.4865866044054604, "stimulusDuration": 1.5, "trial_count": 60, "ts": "orientation", "trial_type": "intensity-60", "exp_stage": "adaptive_procedure", "decision_var": 1.872661875441469, "response": "left", "rt": 0.26894318898848724, "FB": 1, "quest_estimate": 3.652669558114521, "trial_time": 2.787462325009983}
{"FBDuration": 0.5, "FBonset": 0, "ITI": 0.1900689701498034, "displayFB": true, "onset": 273.61142356353, "punishment_amount": 0, "responseWindow": 1.5, "reward_amount": 1, "stim": {"motionDirection": "in", "oriBase": -60, "oriDirection": -1, "oriStrength": 0.775, "speedDirection": 1, "speedStrength": 0.775, "speed_start": 0.12, "speed_end": 0.12082389453775044, "ori_start": -60, "ori_end": -63.91607307820803, "motion_direction": "in"}, "stimResponseInterval": 0.8646789259117011, "stimulusDuration": 1.5, "trial_count": 61, "ts": "orientation", "trial_type": "intensity-85", "exp_stage": "adaptive_procedure", "decision_var": 3.9160730782080306, "response": "right", "rt": 0.20712697500130162, "FB": 0, "quest_estimate": 5.6257360126288205, "trial_time": 3.108072845003335}
{"FBDuration": 0.5, "FBonset": 0, "ITI": 0.14276058608541398, "displayFB": true, "onset": 278.1661714595915, "punishment_amount": 0, "responseWindow": 1.5, "reward_amount": 1, "stim": {"motionDirection": "in", "oriBase": -60, "oriDirection": 1, "oriStrength": 0.775, "speedDirection": 1, "speedStrength": 0.775, "speed_start": 0.12, "speed_end": 0.12082389453775044, "ori_start": -60, "ori_end": -58.127338124558534, "motion_direction": "in"}, "stimResponseInterval": 0.6691715910885803, "stimulusDuration": 1.5, "trial_count": 62, "ts": "orientation", "trial_type": "intensity-60", "exp_stage": "adaptive_procedure", "decision_var": 1.872661875441469, "response": "right", "rt": 0.26898024999536574, "FB": 1, "quest_estimate": 5.625735069687849, "trial_time": 2.968476894995547}
{"FBDuration": 0.5, "FBonset": 0, "ITI": 0.8694622887629764, "displayFB": true, "onset": 282.4781036367655, "punishment_amount": 0, "responseWindow": 1.5, "reward_amount": 1, "stim": {"motionDirection": "out", "oriBase": -60, "oriDirection": 1, "oriStrength": 0.775, "speedDirection": -1, "speedStrength": 0.775, "speed_start": 0.12, "speed_end": 0.11917610546224955, "ori_start": -60, "ori_end": -58.127338124558534, "motion_direction": "out"}, "stimResponseInterval": 0.7473401406741245, "stimulusDuration": 1.5, "trial_count": 63, "ts": "orientation", "trial_type": "intensity-60", "exp_stage": "adaptive_procedure", "decision_var": 1.872661875441469, "response": "right", "rt": 0.23457008600234985, "FB": 1, "quest_estimate": 5.625734126744515, "trial_time": 3.0154676020029}
{"FBDuration": 0.5, "FBonset": 0, "ITI": 0.572783454125825, "displayFB": true, "onset": 287.5949060662026, "punishment_amount": 0, "responseWindow": 1.5, "reward_amount": 1, "stim": {"motionDirection": "in", "oriBase": -60, "oriDirection": -1, "oriStrength": 0.775, "speedDirection": -1, "speedStrength": 0.775, "speed_start": 0.12, "speed_end": 0.11917610546224955, "ori_start": -60, "ori_end": -62.642602873879476, "motion_direction": "in"}, "stimResponseInterval": 0.14190110632251662, "stimulusDuration": 1.5, "trial_count": 64, "ts": "orientation", "trial_type": "intensity-70", "exp_stage": "adaptive_procedure", "decision_var": 2.642602873879475, "response": "right", "rt": 0.44249972100078594, "FB": 0, "quest_estimate": 5.625999790987567, "trial_time": 2.614899141000933}
