{"FBDuration": 0.5, "FBonset": 0, "ITI": 0.354568997526167, "displayFB": true, "onset": 2, "punishment_amount": 0, "responseWindow": 1.5, "reward_amount": 1, "stim": {"motionDirection": "in", "oriBase": 30, "oriDirection": 1, "oriStrength": 0.775, "speedDirection": 1, "speedStrength": 0.775, "speed_start": 0.12, "speed_end": 0.18, "ori_start": 30, "ori_end": 60, "motion_direction": "in"}, "stimResponseInterval": 0.7858328518420401, "stimulusDuration": 1.5, "trial_count": 1, "ts": "motion", "trial_type": "threshold_estimation", "exp_stage": "adaptive_procedure", "decision_var": 0.06, "response": "up", "rt": 0.3751174520002678, "FB": 1, "quest_estimate": 0.05405249303064265, "trial_time": 3.195036971999798}
{"FBDuration": 0.5, "FBonset": 0, "ITI": 0.8542797458609752, "displayFB": true, "onset": 6.640401849368207, "punishment_amount": 0, "responseWindow": 1.5, "reward_amount": 1, "stim": {"motionDirection": "out", "oriBase": -60, "oriDirection": 1, "oriStrength": 0.775, "speedDirection": -1, "speedStrength": 0.775, "speed_start": 0.12, "speed_end": 0.05203764160274668, "ori_start": -60, "ori_end": -30, "motion_direction": "out"}, "stimResponseInterval": 0.6360158759694858, "stimulusDuration": 1.5, "trial_count": 2, "ts": "motion", "trial_type": "threshold_estimation", "exp_stage": "adaptive_procedure", "decision_var": 0.06796235839725331, "response": "down", "rt": 0.30557025899906876, "FB": 1, "quest_estimate": 0.04824131887873747, "trial_time": 2.9710515339975245}
{"FBDuration": 0.5, "FBonset": 0, "ITI": 0.4237131696941232, "displayFB": true, "onset": 11.630697471198667, "punishment_amount": 0, "responseWindow": 1.5, "reward_amount": 1, "stim": {"motionDirection": "out", "oriBase": 30, "oriDirection": -1, "oriStrength": 0.775, "speedDirection": -1, "speedStrength": 0.775, "speed_start": 0.12, "speed_end": 0.06006316550538868, "ori_start": 30, "ori_end": 0, "motion_direction": "out"}, "stimResponseInterval": 0.3730547829053975, "stimulusDuration": 1.5, "trial_count": 3, "ts": "motion", "trial_type": "threshold_estimation", "exp_stage": "adaptive_procedure", "decision_var": 0.05993683449461132, "response": "down", "rt": 0.3103581640025368, "FB": 1, "quest_estimate": 0.042536406297425625, "trial_time": 2.724376903002849}
{"FBDuration": 0.5, "FBonset": 0, "ITI": 0.09744311820958518, "displayFB": true, "onset": 15.92746542379819, "punishment_amount": 0, "responseWindow": 1.5, "reward_amount": 1, "stim": {"motionDirection": "out", "oriBase": -60, "oriDirection": -1, "oriStrength": 0.775, "speedDirection": -1, "speedStrength": 0.775, "speed_start": 0.12, "speed_end": 0.06794826294689951, "ori_start": -60, "ori_end": -90, "motion_direction": "out"}, "stimResponseInterval": 0.9265811597425038, "stimulusDuration": 1.5, "trial_count": 4, "ts": "motion", "trial_type": "threshold_estimation", "exp_stage": "adaptive_procedure", "decision_var": 0.052051737053100476, "response": "down", "rt": 0.2950351719991886, "FB": 1, "quest_estimate": 0.03699576720046285, "trial_time": 3.2511425800039433}
{"FBDuration": 0.5, "FBonset": 0, "ITI": 0.312106263653922, "displayFB": true, "onset": 20.45148970175028, "punishment_amount": 0, "responseWindow": 1.5, "reward_amount": 1, "stim": {"motionDirection": "in", "oriBase": 30, "oriDirection": 1, "oriStrength": 0.775, "speedDirection": -1, "speedStrength": 0.775, "speed_start": 0.12, "speed_end": 0.0755497216461298, "ori_start": 30, "ori_end": 60, "motion_direction": "in"}, "stimResponseInterval": 0.9353465936161407, "stimulusDuration": 1.5, "trial_count": 5, "ts": "motion", "trial_type": "threshold_estimation", "exp_stage": "adaptive_procedure", "decision_var": 0.04445027835387019, "response": "down", "rt": 0.5266150839961483, "FB": 1, "quest_estimate": 0.031669184532726005, "trial_time": 3.5036692310022772}
{"FBDuration": 0.5, "FBonset": 0, "ITI": 0.17427913329488598, "displayFB": true, "onset": 25.19894255902034, "punishment_amount": 0, "responseWindow": 1.5, "reward_amount": 1, "stim": {"motionDirection": "out", "oriBase": 30, "oriDirection": 1, "oriStrength": 0.775, "speedDirection": -1, "speedStrength": 0.775, "speed_start": 0.12, "speed_end": 0.0827543216990982, "ori_start": 30, "ori_end": 60, "motion_direction": "out"}, "stimResponseInterval": 0.4850310321105933, "stimulusDuration": 1.5, "trial_count": 6, "ts": "motion", "trial_type": "threshold_estimation", "exp_stage": "adaptive_procedure", "decision_var": 0.037245678300901794, "response": "down", "rt": 0.3142155099994852, "FB": 1, "quest_estimate": 0.026597707351469685, "trial_time": 2.8274979639973026}
{"FBDuration": 0.5, "FBonset": 0, "ITI": 0.2670565772254315, "displayFB": true, "onset": 29.35825272442582, "punishment_amount": 0, "responseWindow": 1.5, "reward_amount": 1, "stim": {"motionDirection": "out", "oriBase": -60, "oriDirection": -1, "oriStrength": 0.775, "speedDirection": -1, "speedStrength": 0.775, "speed_start": 0.12, "speed_end": 0.08948131194024257, "ori_start": -60, "ori_end": -90, "motion_direction": "out"}, "stimResponseInterval": 0.520168105487814, "stimulusDuration": 1.5, "trial_count": 7, "ts": "motion", "trial_type": "threshold_estimation", "exp_stage": "adaptive_procedure", "decision_var": 0.030518688059757423, "response": "down", "rt": 0.2942167410001275, "FB": 1, "quest_estimate": 0.021809159012736452, "trial_time": 2.8525459630036494}
{"FBDuration": 0.5, "FBonset": 0, "ITI": 0.8913663505883878, "displayFB": true, "onset": 33.64547740713907, "punishment_amount": 0, "responseWindow": 1.5, "reward_amount": 1, "stim": {"motionDirection": "in", "oriBase": 30, "oriDirection": -1, "oriStrength": 0.775, "speedDirection": 1, "speedStrength": 0.775, "speed_start": 0.12, "speed_end": 0.1443128020124263, "ori_start": 30, "ori_end": 0, "motion_direction": "in"}, "stimResponseInterval": 0.24870650714729448, "stimulusDuration": 1.5, "trial_count": 8, "ts": "motion", "trial_type": "threshold_estimation", "exp_stage": "adaptive_procedure", "decision_var": 0.024312802012426298, "response": "up", "rt": 0.31263596099597635, "FB": 1, "quest_estimate": 0.01732042674616959, "trial_time": 2.597060297994176}
{"FBDuration": 0.5, "FBonset": 0, "ITI": 0.44400719144222633, "displayFB": true, "onset": 38.28555026487475, "punishment_amount": 0, "responseWindow": 1.5, "reward_amount": 1, "stim": {"motionDirection": "out", "oriBase": 30, "oriDirection": 1, "oriStrength": 0.775, "speedDirection": 1, "speedStrength": 0.775, "speed_start": 0.12, "speed_end": 0.13864194704971433, "ori_start": 30, "ori_end": 60, "motion_direction": "out"}, "stimResponseInterval": 0.28997184127990083, "stimulusDuration": 1.5, "trial_count": 9, "ts": "motion", "trial_type": "threshold_estimation", "exp_stage": "adaptive_procedure", "decision_var": 0.018641947049714336, "response": "up", "rt": 0.3158307709963992, "FB": 1, "quest_estimate": 0.013138232706875239, "trial_time": 2.6367142390008667}
{"FBDuration": 0.5, "FBonset": 0, "ITI": 0.7400069195727337, "displayFB": true, "onset": 42.519529297596875, "punishment_amount": 0, "responseWindow": 1.5, "reward_amount": 1, "stim": {"motionDirection": "out", "oriBase": 30, "oriDirection": -1, "oriStrength": 0.775, "speedDirection": 1, "speedStrength": 0.775, "speed_start": 0.12, "speed_end": 0.13349674180889706, "ori_start": 30, "ori_end": 0, "motion_direction": "out"}, "stimResponseInterval": 0.5760037904682778, "stimulusDuration": 1.5, "trial_count": 10, "ts": "motion", "trial_type": "threshold_estimation", "exp_stage": "adaptive_procedure", "decision_var": 0.013496741808897074, "response": "up", "rt": 0.2739126390006277, "FB": 1, "quest_estimate": 0.009260883662818194, "trial_time": 2.8827387530036503}
{"FBDuration": 0.5, "FBonset": 0, "ITI": 0.9552080565329162, "displayFB": true, "onset": 47.33554000763789, "punishment_amount": 0, "responseWindow": 1.5, "reward_amount": 1, "stim": {"motionDirection": "out", "oriBase": 30, "oriDirection": 1, "oriStrength": 0.775, "speedDirection": 1, "speedStrength": 0.775, "speed_start": 0.12, "speed_end": 0.12885169982556802, "ori_start": 30, "ori_end": 60, "motion_direction": "out"}, "stimResponseInterval": 0.7450707877433529, "stimulusDuration": 1.5, "trial_count": 11, "ts": "motion", "trial_type": "threshold_estimation", "exp_stage": "adaptive_procedure", "decision_var": 0.008851699825568014, "response": "down", "rt": 0.27047462399787037, "FB": 0, "quest_estimate": 0.021773422727749438, "trial_time": 3.052263771998696}
{"FBDuration": 0.5, "FBonset": 0, "ITI": 0.025505051500053444, "displayFB": true, "onset": 52.53581885191416, "punishment_amount": 0, "responseWindow": 1.5, "reward_amount": 1, "stim": {"motionDirection": "in", "oriBase": 30, "oriDirection": -1, "oriStrength": 0.775, "speedDirection": 1, "speedStrength": 0.775, "speed_start": 0.12, "speed_end": 0.14464126529349713, "ori_start": 30, "ori_end": 0, "motion_direction": "in"}, "stimResponseInterval": 0.39263183799765256, "stimulusDuration": 1.5, "trial_count": 12, "ts": "motion", "trial_type": "threshold_estimation", "exp_stage": "adaptive_procedure", "decision_var": 0.024641265293497153, "response": "up", "rt": 0.30064913100068225, "FB": 1, "quest_estimate": 0.017520512914766098, "trial_time": 2.7310065749989008}
{"FBDuration": 0.5, "FBonset": 0, "ITI": 0.6595304528182173, "displayFB": true, "onset": 56.45395574141186, "punishment_amount": 0, "responseWindow": 1.5, "reward_amount": 1, "stim": {"motionDirection": "out", "oriBase": 30, "oriDirection": 1, "oriStrength": 0.775, "speedDirection": 1, "speedStrength": 0.775, "speed_start": 0.12, "speed_end": 0.13939370231902792, "ori_start": 30, "ori_end": 60, "motion_direction": "out"}, "stimResponseInterval": 0.7913930325378629, "stimulusDuration": 1.5, "trial_count": 13, "ts": "motion", "trial_type": "threshold_estimation", "exp_stage": "adaptive_procedure", "decision_var": 0.019393702319027928, "response": "up", "rt": 0.27887972699681995, "FB": 1, "quest_estimate": 0.01354509917797074, "trial_time": 3.108828670003277}
{"FBDuration": 0.5, "FBonset": 0, "ITI": 0.18663260776624424, "displayFB": true, "onset": 61.40487922676794, "punishment_amount": 0, "responseWindow": 1.5, "reward_amount": 1, "stim": {"motionDirection": "in", "oriBase": 30, "oriDirection": -1, "oriStrength": 0.775, "speedDirection": 1, "speedStrength": 0.775, "speed_start": 0.12, "speed_end": 0.1345895010984896, "ori_start": 30, "ori_end": 0, "motion_direction": "in"}, "stimResponseInterval": 0.530546072261723, "stimulusDuration": 1.5, "trial_count": 14, "ts": "motion", "trial_type": "threshold_estimation", "exp_stage": "adaptive_procedure", "decision_var": 0.014589501098489603, "response": "down", "rt": 0.3477487580021261, "FB": 0, "quest_estimate": 0.02661715765118726, "trial_time": 2.9180942909952137}
{"FBDuration": 0.5, "FBonset": 0, "ITI": 0.15634757019326462, "displayFB": true, "onset": 65.6220579067959, "punishment_amount": 0, "responseWindow": 1.5, "reward_amount": 1, "stim": {"motionDirection": "out", "oriBase": -60, "oriDirection": -1, "oriStrength": 0.775, "speedDirection": 1, "speedStrength": 0.775, "speed_start": 0.12, "speed_end": 0.15093191946207207, "ori_start": -60, "ori_end": -90, "motion_direction": "out"}, "stimResponseInterval": 0.10786594432102914, "stimulusDuration": 1.5, "trial_count": 15, "ts": "motion", "trial_type": "threshold_estimation", "exp_stage": "adaptive_procedure", "decision_var": 0.030931919462072063, "response": "up", "rt": 0.4166519909995259, "FB": 1, "quest_estimate": 0.022326311252165602, "trial_time": 2.564773817997775}
{"FBDuration": 0.5, "FBonset": 0, "ITI": 0.30815243478085763, "displayFB": true, "onset": 69.3862714213102, "punishment_amount": 0, "responseWindow": 1.5, "reward_amount": 1, "stim": {"motionDirection": "in", "oriBase": 30, "oriDirection": -1, "oriStrength": 0.775, "speedDirection": -1, "speedStrength": 0.775, "speed_start": 0.12, "speed_end": 0.0943361624087574, "ori_start": 30, "ori_end": 0, "motion_direction": "in"}, "stimResponseInterval": 0.6579823517096637, "stimulusDuration": 1.5, "trial_count": 16, "ts": "motion", "trial_type": "threshold_estimation", "exp_stage": "adaptive_procedure", "decision_var": 0.02566383759124259, "response": "down", "rt": 0.3306374260064331, "FB": 1, "quest_estimate": 0.01828106227590095, "trial_time": 3.019143317003909}
{"FBDuration": 0.5, "FBonset": 0, "ITI": 0.23138665480810028, "displayFB": true, "onset": 73.85240620780073, "punishment_amount": 0, "responseWindow": 1.5, "reward_amount": 1, "stim": {"motionDirection": "out", "oriBase": -60, "oriDirection": -1, "oriStrength": 0.775, "speedDirection": 1, "speedStrength": 0.775, "speed_start": 0.12, "speed_end": 0.14077620487601178, "ori_start": -60, "ori_end": -90, "motion_direction": "out"}, "stimResponseInterval": 0.0606041193784882, "stimulusDuration": 1.5, "trial_count": 17, "ts": "motion", "trial_type": "threshold_estimation", "exp_stage": "adaptive_procedure", "decision_var": 0.020776204876011783, "response": "up", "rt": 0.4350673029985046, "FB": 1, "quest_estimate": 0.014484541626114032, "trial_time": 2.526728254997579}
{"FBDuration": 0.5, "FBonset": 0, "ITI": 0.23303921909413328, "displayFB": true, "onset": 77.64439698198731, "punishment_amount": 0, "responseWindow": 1.5, "reward_amount": 1, "stim": {"motionDirection": "in", "oriBase": -60, "oriDirection": -1, "oriStrength": 0.775, "speedDirection": -1, "speedStrength": 0.775, "speed_start": 0.12, "speed_end": 0.10373921387364635, "ori_start": -60, "ori_end": -90, "motion_direction": "in"}, "stimResponseInterval": 0.9745659128496946, "stimulusDuration": 1.5, "trial_count": 18, "ts": "motion", "trial_type": "threshold_estimation", "exp_stage": "adaptive_procedure", "decision_var": 0.016260786126353656, "response": "down", "rt": 0.27875903599488083, "FB": 1, "quest_estimate": 0.0109347765823756, "trial_time": 3.29449589199794}
{"FBDuration": 0.5, "FBonset": 0, "ITI": 0.8901783089153459, "displayFB": true, "onset": 82.35200211393114, "punishment_amount": 0, "responseWindow": 1.5, "reward_amount": 1, "stim": {"motionDirection": "in", "oriBase": 30, "oriDirection": -1, "oriStrength": 0.775, "speedDirection": 1, "speedStrength": 0.775, "speed_start": 0.12, "speed_end": 0.1321027251717592, "ori_start": 30, "ori_end": 0, "motion_direction": "in"}, "stimResponseInterval": 0.8666430157674117, "stimulusDuration": 1.5, "trial_count": 19, "ts": "motion", "trial_type": "threshold_estimation", "exp_stage": "adaptive_procedure", "decision_var": 0.012102725171759192, "response": "up", "rt": 0.30086407900671475, "FB": 1, "quest_estimate": 0.0076255486818510715, "trial_time": 3.203407196997432}
{"FBDuration": 0.5, "FBonset": 0, "ITI": 0.6012305758012244, "displayFB": true, "onset": 87.6088234386139, "punishment_amount": 0, "responseWindow": 1.5, "reward_amount": 1, "stim": {"motionDirection": "in", "oriBase": -60, "oriDirection": 1, "oriStrength": 0.775, "speedDirection": 1, "speedStrength": 0.775, "speed_start": 0.12, "speed_end": 0.1282821895359798, "ori_start": -60, "ori_end": -30, "motion_direction": "in"}, "stimResponseInterval": 0.9751025049081639, "stimulusDuration": 1.5, "trial_count": 20, "ts": "motion", "trial_type": "threshold_estimation", "exp_stage": "adaptive_procedure", "decision_var": 0.008282189535979798, "response": "up", "rt": 0.36390640799800167, "FB": 1, "quest_estimate": 0.004547982699914438, "trial_time": 3.3702697999979137}
{"FBDuration": 0.5, "FBonset": 0, "ITI": 0.7815847885542684, "displayFB": true, "onset": 92.68515651932329, "punishment_amount": 0, "responseWindow": 1.5, "reward_amount": 1, "stim": {"motionDirection": "in", "oriBase": 30, "oriDirection": 1, "oriStrength": 0.775, "speedDirection": 1, "speedStrength": 0.775, "speed_start": 0.12, "speed_end": 0.12477688113216424, "ori_start": 30, "ori_end": 60, "motion_direction": "in"}, "stimResponseInterval": 0.5413302230615904, "stimulusDuration": 1.5, "trial_count": 21, "ts": "motion", "trial_type": "threshold_estimation", "exp_stage": "adaptive_procedure", "decision_var": 0.0047768811321642485, "response": "up", "rt": 0.31225122600153554, "FB": 1, "quest_estimate": 0.0016905592914594411, "trial_time": 2.8938111320021562}
{"FBDuration": 0.5, "FBonset": 0, "ITI": 0.07742393415165194, "displayFB": true, "onset": 97.50807153093915, "punishment_amount": 0, "responseWindow": 1.5, "reward_amount": 1, "stim": {"motionDirection": "out", "oriBase": -60, "oriDirection": 1, "oriStrength": 0.775, "speedDirection": 1, "speedStrength": 0.775, "speed_start": 0.12, "speed_end": 0.12156337002921315, "ori_start": -60, "ori_end": -30, "motion_direction": "out"}, "stimResponseInterval": 0.9173166823733601, "stimulusDuration": 1.5, "trial_count": 22, "ts": "motion", "trial_type": "threshold_estimation", "exp_stage": "adaptive_procedure", "decision_var": 0.0015633700292131542, "response": "down", "rt": 0.252806167001836, "FB": 0, "quest_estimate": 0.010931148928225956, "trial_time": 3.2067981810032506}
{"FBDuration": 0.5, "FBonset": 0, "ITI": 0.41207235214918336, "displayFB": true, "onset": 102.00281214746416, "punishment_amount": 0, "responseWindow": 1.5, "reward_amount": 1, "stim": {"motionDirection": "out", "oriBase": 30, "oriDirection": -1, "oriStrength": 0.775, "speedDirection": 1, "speedStrength": 0.775, "speed_start": 0.12, "speed_end": 0.13251899644357057, "ori_start": 30, "ori_end": 0, "motion_direction": "out"}, "stimResponseInterval": 0.8139172561247703, "stimulusDuration": 1.5, "trial_count": 23, "ts": "motion", "trial_type": "threshold_estimation", "exp_stage": "adaptive_procedure", "decision_var": 0.012518996443570574, "response": "down", "rt": 0.3666031600005226, "FB": 0, "quest_estimate": 0.022084522993745304, "trial_time": 3.2244093469998916}
{"FBDuration": 0.5, "FBonset": 0, "ITI": 0.747280287825882, "displayFB": true, "onset": 106.7288017557381, "punishment_amount": 0, "responseWindow": 1.5, "reward_amount": 1, "stim": {"motionDirection": "in", "oriBase": -60, "oriDirection": -1, "oriStrength": 0.775, "speedDirection": -1, "speedStrength": 0.775, "speed_start": 0.12, "speed_end": 0.09418463459523224, "ori_start": -60, "ori_end": -90, "motion_direction": "in"}, "stimResponseInterval": 0.6489929257240203, "stimulusDuration": 1.5, "trial_count": 24, "ts": "motion", "trial_type": "threshold_estimation", "exp_stage": "adaptive_procedure", "decision_var": 0.025815365404767747, "response": "down", "rt": 0.31665070300368825, "FB": 1, "quest_estimate": 0.01844664010621013, "trial_time": 3.002305410998815}
{"FBDuration": 0.5, "FBonset": 0, "ITI": 0.2850233339996878, "displayFB": true, "onset": 111.62507496928801, "punishment_amount": 0, "responseWindow": 1.5, "reward_amount": 1, "stim": {"motionDirection": "in", "oriBase": 30, "oriDirection": 1, "oriStrength": 0.775, "speedDirection": 1, "speedStrength": 0.775, "speed_start": 0.12, "speed_end": 0.14158074971181775, "ori_start": 30, "ori_end": 60, "motion_direction": "in"}, "stimResponseInterval": 0.005705393809010362, "stimulusDuration": 1.5, "trial_count": 25, "ts": "motion", "trial_type": "threshold_estimation", "exp_stage": "adaptive_procedure", "decision_var": 0.02158074971181776, "response": "up", "rt": 0.5622245960039436, "FB": 1, "quest_estimate": 0.01501378299738789, "trial_time": 2.6180575670005055}
{"FBDuration": 0.5, "FBonset": 0, "ITI": 0.26728662299158723, "displayFB": true, "onset": 115.4158036970967, "punishment_amount": 0, "responseWindow": 1.5, "reward_amount": 1, "stim": {"motionDirection": "out", "oriBase": 30, "oriDirection": -1, "oriStrength": 0.775, "speedDirection": -1, "speedStrength": 0.775, "speed_start": 0.12, "speed_end": 0.10237803313883986, "ori_start": 30, "ori_end": 0, "motion_direction": "out"}, "stimResponseInterval": 0.584614465792864, "stimulusDuration": 1.5, "trial_count": 26, "ts": "motion", "trial_type": "threshold_estimation", "exp_stage": "adaptive_procedure", "decision_var": 0.017621966861160125, "response": "down", "rt": 0.3739366559966584, "FB": 1, "quest_estimate": 0.01178309702896374, "trial_time": 2.995522097997309}
{"FBDuration": 0.5, "FBonset": 0, "ITI": 0.9320968680592001, "displayFB": true, "onset": 119.76770478588116, "punishment_amount": 0, "responseWindow": 1.5, "reward_amount": 1, "stim": {"motionDirection": "out", "oriBase": -60, "oriDirection": 1, "oriStrength": 0.775, "speedDirection": -1, "speedStrength": 0.775, "speed_start": 0.12, "speed_end": 0.10607214370628755, "ori_start": -60, "ori_end": -30, "motion_direction": "out"}, "stimResponseInterval": 0.34780890736640413, "stimulusDuration": 1.5, "trial_count": 27, "ts": "motion", "trial_type": "threshold_estimation", "exp_stage": "adaptive_procedure", "decision_var": 0.013927856293712446, "response": "up", "rt": 0.46696267899824306, "FB": 0, "quest_estimate": 0.02254777745283005, "trial_time": 2.8514326570002595}
{"FBDuration": 0.5, "FBonset": 0, "ITI": 0.35130576027989513, "displayFB": true, "onset": 124.54761056130677, "punishment_amount": 0, "responseWindow": 1.5, "reward_amount": 1, "stim": {"motionDirection": "in", "oriBase": -60, "oriDirection": 1, "oriStrength": 0.775, "speedDirection": -1, "speedStrength": 0.775, "speed_start": 0.12, "speed_end": 0.0934601893382202, "ori_start": -60, "ori_end": -30, "motion_direction": "in"}, "stimResponseInterval": 0.09028390576890444, "stimulusDuration": 1.5, "trial_count": 28, "ts": "motion", "trial_type": "threshold_estimation", "exp_stage": "adaptive_procedure", "decision_var": 0.026539810661779788, "response": "down", "rt": 0.44289014400419546, "FB": 1, "quest_estimate": 0.019084323080139853, "trial_time": 2.5756688849942293}
{"FBDuration": 0.5, "FBonset": 0, "ITI": 0.3526714046189944, "displayFB": true, "onset": 128.48920022735558, "punishment_amount": 0, "responseWindow": 1.5, "reward_amount": 1, "stim": {"motionDirection": "in", "oriBase": 30, "oriDirection": 1, "oriStrength": 0.775, "speedDirection": -1, "speedStrength": 0.775, "speed_start": 0.12, "speed_end": 0.09742714356071874, "ori_start": 30, "ori_end": 60, "motion_direction": "in"}, "stimResponseInterval": 0.3796051561357847, "stimulusDuration": 1.5, "trial_count": 29, "ts": "motion", "trial_type": "threshold_estimation", "exp_stage": "adaptive_procedure", "decision_var": 0.02257285643928126, "response": "down", "rt": 0.45021883099980187, "FB": 1, "quest_estimate": 0.015805138431709685, "trial_time": 2.865982310002437}
{"FBDuration": 0.5, "FBonset": 0, "ITI": 0.9683703584539387, "displayFB": true, "onset": 132.72147678811035, "punishment_amount": 0, "responseWindow": 1.5, "reward_amount": 1, "stim": {"motionDirection": "out", "oriBase": -60, "oriDirection": 1, "oriStrength": 0.775, "speedDirection": 1, "speedStrength": 0.775, "speed_start": 0.12, "speed_end": 0.13884250439185045, "ori_start": -60, "ori_end": -30, "motion_direction": "out"}, "stimResponseInterval": 0.6463705914729159, "stimulusDuration": 1.5, "trial_count": 30, "ts": "motion", "trial_type": "threshold_estimation", "exp_stage": "adaptive_procedure", "decision_var": 0.018842504391850444, "response": "up", "rt": 0.29189497999323066, "FB": 1, "quest_estimate": 0.012707545729813974, "trial_time": 2.9778204359972733}
{"FBDuration": 0.5, "FBonset": 0, "ITI": 0.6980655341180431, "displayFB": true, "onset": 137.8362177380372, "punishment_amount": 0, "responseWindow": 1.5, "reward_amount": 1, "stim": {"motionDirection": "out", "oriBase": -60, "oriDirection": -1, "oriStrength": 0.775, "speedDirection": 1, "speedStrength": 0.775, "speed_start": 0.12, "speed_end": 0.13533981984294813, "ori_start": -60, "ori_end": -90, "motion_direction": "out"}, "stimResponseInterval": 0.6912890135209757, "stimulusDuration": 1.5, "trial_count": 31, "ts": "motion", "trial_type": "threshold_estimation", "exp_stage": "adaptive_procedure", "decision_var": 0.015339819842948146, "response": "up", "rt": 0.2963350510035525, "FB": 1, "quest_estimate": 0.00978691545494461, "trial_time": 3.031014462998428}
{"FBDuration": 0.5, "FBonset": 0, "ITI": 0.799424722186024, "displayFB": true, "onset": 142.7255722856762, "punishment_amount": 0, "responseWindow": 1.5, "reward_amount": 1, "stim": {"motionDirection": "in", "oriBase": 30, "oriDirection": -1, "oriStrength": 0.775, "speedDirection": -1, "speedStrength": 0.775, "speed_start": 0.12, "speed_end": 0.10794583050022949, "ori_start": 30, "ori_end": 0, "motion_direction": "in"}, "stimResponseInterval": 0.6319898435364324, "stimulusDuration": 1.5, "trial_count": 32, "ts": "motion", "trial_type": "threshold_estimation", "exp_stage": "adaptive_procedure", "decision_var": 0.012054169499770506, "response": "down", "rt": 0.30947671700414503, "FB": 1, "quest_estimate": 0.007037192842544643, "trial_time": 2.9816509790034615}
{"FBDuration": 0.5, "FBonset": 0, "ITI": 0.5280901034367065, "displayFB": true, "onset": 147.65698685139867, "punishment_amount": 0, "responseWindow": 1.5, "reward_amount": 1, "stim": {"motionDirection": "out", "oriBase": -60, "oriDirection": -1, "oriStrength": 0.775, "speedDirection": 1, "speedStrength": 0.775, "speed_start": 0.12, "speed_end": 0.12897414808408164, "ori_start": -60, "ori_end": -90, "motion_direction": "out"}, "stimResponseInterval": 0.3584643907763809, "stimulusDuration": 1.5, "trial_count": 33, "ts": "motion", "trial_type": "threshold_estimation", "exp_stage": "adaptive_procedure", "decision_var": 0.008974148084081632, "response": "up", "rt": 0.319915307998599, "FB": 1, "quest_estimate": 0.004451146035955561, "trial_time": 2.7227106869977433}
{"FBDuration": 0.5, "FBonset": 0, "ITI": 0.33853810942561025, "displayFB": true, "onset": 152.04354134561174, "punishment_amount": 0, "responseWindow": 1.5, "reward_amount": 1, "stim": {"motionDirection": "out", "oriBase": -60, "oriDirection": -1, "oriStrength": 0.775, "speedDirection": -1, "speedStrength": 0.775, "speed_start": 0.12, "speed_end": 0.11391120857501222, "ori_start": -60, "ori_end": -90, "motion_direction": "out"}, "stimResponseInterval": 0.3435354912435228, "stimulusDuration": 1.5, "trial_count": 34, "ts": "motion", "trial_type": "threshold_estimation", "exp_stage": "adaptive_procedure", "decision_var": 0.006088791424987777, "response": "down", "rt": 0.3647606839949731, "FB": 1, "quest_estimate": 0.002021054265997954, "trial_time": 2.7517734030043357}
{"FBDuration": 0.5, "FBonset": 0, "ITI": 0.7220849588918381, "displayFB": true, "onset": 156.22561494628087, "punishment_amount": 0, "responseWindow": 1.5, "reward_amount": 1, "stim": {"motionDirection": "in", "oriBase": -60, "oriDirection": 1, "oriStrength": 0.775, "speedDirection": 1, "speedStrength": 0.775, "speed_start": 0.12, "speed_end": 0.12338633421863437, "ori_start": -60, "ori_end": -30, "motion_direction": "in"}, "stimResponseInterval": 0.09282896266831975, "stimulusDuration": 1.5, "trial_count": 35, "ts": "motion", "trial_type": "threshold_estimation", "exp_stage": "adaptive_procedure", "decision_var": 0.0033863342186343792, "response": "up", "rt": 0.35987048099923413, "FB": 1, "quest_estimate": -0.00026131951427702665, "trial_time": 2.4816894690011395}
{"FBDuration": 0.5, "FBonset": 0, "ITI": 0.8929104780947443, "displayFB": true, "onset": 160.54052886784103, "punishment_amount": 0, "responseWindow": 1.5, "reward_amount": 1, "stim": {"motionDirection": "out", "oriBase": 30, "oriDirection": 1, "oriStrength": 0.775, "speedDirection": -1, "speedStrength": 0.775, "speed_start": 0.12, "speed_end": 0.1191443897879927, "ori_start": 30, "ori_end": 60, "motion_direction": "out"}, "stimResponseInterval": 0.030436095309942623, "stimulusDuration": 1.5, "trial_count": 36, "ts": "motion", "trial_type": "threshold_estimation", "exp_stage": "adaptive_procedure", "decision_var": 0.0008556102120072934, "response": "down", "rt": 0.4080345909969765, "FB": 1, "quest_estimate": -0.002404361395312249, "trial_time": 2.4707000739945215}
{"FBDuration": 0.5, "FBonset": 0, "ITI": 0.4010126254675699, "displayFB": true, "onset": 164.96387544124573, "punishment_amount": 0, "responseWindow": 1.5, "reward_amount": 1, "stim": {"motionDirection": "in", "oriBase": -60, "oriDirection": -1, "oriStrength": 0.775, "speedDirection": 1, "speedStrength": 0.775, "speed_start": 0.12, "speed_end": 0.12000999999999999, "ori_start": -60, "ori_end": -90, "motion_direction": "in"}, "stimResponseInterval": 0.8551868994652096, "stimulusDuration": 1.5, "trial_count": 37, "ts": "motion", "trial_type": "threshold_estimation", "exp_stage": "adaptive_procedure", "decision_var": 1e-05, "response": "up", "rt": 0.2997134830002324, "FB": 1, "quest_estimate": -0.004416892507907735, "trial_time": 3.1833236579986988}
{"FBDuration": 0.5, "FBonset": 0, "ITI": 0.5627055253081665, "displayFB": true, "onset": 169.72007496617852, "punishment_amount": 0, "responseWindow": 1.5, "reward_amount": 1, "stim": {"motionDirection": "in", "oriBase": 30, "oriDirection": 1, "oriStrength": 0.775, "speedDirection": 1, "speedStrength": 0.775, "speed_start": 0.12, "speed_end": 0.12000999999999999, "ori_start": 30, "ori_end": 60, "motion_direction": "in"}, "stimResponseInterval": 0.6005579578617057, "stimulusDuration": 1.5, "trial_count": 38, "ts": "motion", "trial_type": "threshold_estimation", "exp_stage": "adaptive_procedure", "decision_var": 1e-05, "response": "up", "rt": 0.2968525709948153, "FB": 1, "quest_estimate": -0.006306726321863659, "trial_time": 2.9394505500022206}
{"FBDuration": 0.5, "FBonset": 0, "ITI": 0.5889890375606326, "displayFB": true, "onset": 174.3833384493484, "punishment_amount": 0, "responseWindow": 1.5, "reward_amount": 1, "stim": {"motionDirection": "out", "oriBase": 30, "oriDirection": -1, "oriStrength": 0.775, "speedDirection": 1, "speedStrength": 0.775, "speed_start": 0.12, "speed_end": 0.12000999999999999, "ori_start": 30, "ori_end": 0, "motion_direction": "out"}, "stimResponseInterval": 0.47799244562201093, "stimulusDuration": 1.5, "trial_count": 39, "ts": "motion", "trial_type": "threshold_estimation", "exp_stage": "adaptive_procedure", "decision_var": 1e-05, "response": "down", "rt": 0.3519731070045964, "FB": 0, "quest_estimate": 0.0001860403998620308, "trial_time": 2.860286637005629}
{"FBDuration": 0.5, "FBonset": 0, "ITI": 0.2168511186872878, "displayFB": true, "onset": 178.95031993253104, "punishment_amount": 0, "responseWindow": 1.5, "reward_amount": 1, "stim": {"motionDirection": "out", "oriBase": 30, "oriDirection": -1, "oriStrength": 0.775, "speedDirection": -1, "speedStrength": 0.775, "speed_start": 0.12, "speed_end": 0.11834513014217557, "ori_start": 30, "ori_end": 0, "motion_direction": "out"}, "stimResponseInterval": 0.4882182130867969, "stimulusDuration": 1.5, "trial_count": 40, "ts": "motion", "trial_type": "threshold_estimation", "exp_stage": "adaptive_procedure", "decision_var": 0.0016548698578244259, "response": "down", "rt": 0.341165682002611, "FB": 1, "quest_estimate": -0.0018955138291178522, "trial_time": 2.8610039129998768}
{"FBDuration": 0.5, "FBonset": 0, "ITI": 0.8156582184449639, "displayFB": true, "onset": 183.15538926430514, "punishment_amount": 0, "responseWindow": 1.5, "reward_amount": 1, "stim": {"motionDirection": "in", "oriBase": -60, "oriDirection": -1, "oriStrength": 0.775, "speedDirection": -1, "speedStrength": 0.775, "speed_start": 0.12, "speed_end": 0.11999, "ori_start": -60, "ori_end": -90, "motion_direction": "in"}, "stimResponseInterval": 0.9846654933477899, "stimulusDuration": 1.5, "trial_count": 41, "ts": "motion", "trial_type": "threshold_estimation", "exp_stage": "adaptive_procedure", "decision_var": 1e-05, "response": "up", "rt": 0.3460553999975673, "FB": 0, "quest_estimate": 0.005025976881954823, "trial_time": 3.35991597300017}
{"FBDuration": 0.5, "FBonset": 0, "ITI": 0.10606913245273408, "displayFB": true, "onset": 188.45571297609789, "punishment_amount": 0, "responseWindow": 1.5, "reward_amount": 1, "stim": {"motionDirection": "in", "oriBase": 30, "oriDirection": 1, "oriStrength": 0.775, "speedDirection": -1, "speedStrength": 0.775, "speed_start": 0.12, "speed_end": 0.11272512542347393, "ori_start": 30, "ori_end": 60, "motion_direction": "in"}, "stimResponseInterval": 0.8576997838359484, "stimulusDuration": 1.5, "trial_count": 42, "ts": "motion", "trial_type": "threshold_estimation", "exp_stage": "adaptive_procedure", "decision_var": 0.007274874576526057, "response": "down", "rt": 0.7306221340040793, "FB": 1, "quest_estimate": 0.002764168090918291, "trial_time": 3.619729947997257}
{"FBDuration": 0.5, "FBonset": 0, "ITI": 0.6340688218430812, "displayFB": true, "onset": 192.91948189238656, "punishment_amount": 0, "responseWindow": 1.5, "reward_amount": 1, "stim": {"motionDirection": "in", "oriBase": 30, "oriDirection": -1, "oriStrength": 0.775, "speedDirection": -1, "speedStrength": 0.775, "speed_start": 0.12, "speed_end": 0.11522212616870227, "ori_start": 30, "ori_end": 0, "motion_direction": "in"}, "stimResponseInterval": 0.6876892001118526, "stimulusDuration": 1.5, "trial_count": 43, "ts": "motion", "trial_type": "threshold_estimation", "exp_stage": "adaptive_procedure", "decision_var": 0.004777873831297727, "response": "down", "rt": 0.27251757200428983, "FB": 1, "quest_estimate": 0.0006264502905549627, "trial_time": 2.9968385069951182}
{"FBDuration": 0.5, "FBonset": 0, "ITI": 0.2161272655391847, "displayFB": true, "onset": 197.7412399143415, "punishment_amount": 0, "responseWindow": 1.5, "reward_amount": 1, "stim": {"motionDirection": "out", "oriBase": 30, "oriDirection": 1, "oriStrength": 0.775, "speedDirection": -1, "speedStrength": 0.775, "speed_start": 0.12, "speed_end": 0.11758163380134146, "ori_start": 30, "ori_end": 60, "motion_direction": "out"}, "stimResponseInterval": 0.3861024354789445, "stimulusDuration": 1.5, "trial_count": 44, "ts": "motion", "trial_type": "threshold_estimation", "exp_stage": "adaptive_procedure", "decision_var": 0.002418366198658546, "response": "up", "rt": 0.2752926219982328, "FB": 0, "quest_estimate": 0.0077526882669866695, "trial_time": 2.694318268004281}
{"FBDuration": 0.5, "FBonset": 0, "ITI": 0.5805895083577874, "displayFB": true, "onset": 201.84346961535962, "punishment_amount": 0, "responseWindow": 1.5, "reward_amount": 1, "stim": {"motionDirection": "out", "oriBase": 30, "oriDirection": -1, "oriStrength": 0.775, "speedDirection": -1, "speedStrength": 0.775, "speed_start": 0.12, "speed_end": 0.10949115173317073, "ori_start": 30, "ori_end": 0, "motion_direction": "out"}, "stimResponseInterval": 0.6951401491176585, "stimulusDuration": 1.5, "trial_count": 45, "ts": "motion", "trial_type": "threshold_estimation", "exp_stage": "adaptive_procedure", "decision_var": 0.010508848266829275, "response": "down", "rt": 0.5204543389991159, "FB": 1, "quest_estimate": 0.0054476896162137176, "trial_time": 3.2483679160068277}
{"FBDuration": 0.5, "FBonset": 0, "ITI": 0.8825379414423276, "displayFB": true, "onset": 206.61919927283506, "punishment_amount": 0, "responseWindow": 1.5, "reward_amount": 1, "stim": {"motionDirection": "in", "oriBase": -60, "oriDirection": -1, "oriStrength": 0.775, "speedDirection": -1, "speedStrength": 0.775, "speed_start": 0.12, "speed_end": 0.11202428095441705, "ori_start": -60, "ori_end": -90, "motion_direction": "in"}, "stimResponseInterval": 0.4861488526084765, "stimulusDuration": 1.5, "trial_count": 46, "ts": "motion", "trial_type": "threshold_estimation", "exp_stage": "adaptive_procedure", "decision_var": 0.007975719045582953, "response": "down", "rt": 0.2879209259990603, "FB": 1, "quest_estimate": 0.0032617233997727646, "trial_time": 2.817287387995748}
{"FBDuration": 0.5, "FBonset": 0, "ITI": 0.7276908372403108, "displayFB": true, "onset": 211.48788606688586, "punishment_amount": 0, "responseWindow": 1.5, "reward_amount": 1, "stim": {"motionDirection": "out", "oriBase": -60, "oriDirection": -1, "oriStrength": 0.775, "speedDirection": -1, "speedStrength": 0.775, "speed_start": 0.12, "speed_end": 0.1144278550664573, "ori_start": -60, "ori_end": -90, "motion_direction": "out"}, "stimResponseInterval": 0.9665824148977111, "stimulusDuration": 1.5, "trial_count": 47, "ts": "motion", "trial_type": "threshold_estimation", "exp_stage": "adaptive_procedure", "decision_var": 0.005572144933542689, "response": "down", "rt": 0.2818316349948873, "FB": 1, "quest_estimate": 0.0011892110994227156, "trial_time": 3.29185520199826}
{"FBDuration": 0.5, "FBonset": 0, "ITI": 0.05015139070156527, "displayFB": true, "onset": 216.6821593190239, "punishment_amount": 0, "responseWindow": 1.5, "reward_amount": 1, "stim": {"motionDirection": "out", "oriBase": -60, "oriDirection": 1, "oriStrength": 0.775, "speedDirection": 1, "speedStrength": 0.775, "speed_start": 0.12, "speed_end": 0.12329156851421469, "ori_start": -60, "ori_end": -30, "motion_direction": "out"}, "stimResponseInterval": 0.17157689348234406, "stimulusDuration": 1.5, "trial_count": 48, "ts": "motion", "trial_type": "threshold_estimation", "exp_stage": "adaptive_procedure", "decision_var": 0.0032915685142146933, "response": "down", "rt": 0.6922192359998007, "FB": 0, "quest_estimate": 0.008131274980327341, "trial_time": 2.8977137510009925}
{"FBDuration": 0.5, "FBonset": 0, "ITI": 0.8878460695563226, "displayFB": true, "onset": 220.4038876032078, "punishment_amount": 0, "responseWindow": 1.5, "reward_amount": 1, "stim": {"motionDirection": "in", "oriBase": -60, "oriDirection": 1, "oriStrength": 0.775, "speedDirection": -1, "speedStrength": 0.775, "speed_start": 0.12, "speed_end": 0.10888405321244499, "ori_start": -60, "ori_end": -30, "motion_direction": "in"}, "stimResponseInterval": 0.403385967725145, "stimulusDuration": 1.5, "trial_count": 49, "ts": "motion", "trial_type": "threshold_estimation", "exp_stage": "adaptive_procedure", "decision_var": 0.011115946787555016, "response": "down", "rt": 0.2859972360020038, "FB": 1, "quest_estimate": 0.005907728302976395, "trial_time": 2.7200838870048756}
{"FBDuration": 0.5, "FBonset": 0, "ITI": 0.8304927844028884, "displayFB": true, "onset": 225.19511964048928, "punishment_amount": 0, "responseWindow": 1.5, "reward_amount": 1, "stim": {"motionDirection": "out", "oriBase": -60, "oriDirection": 1, "oriStrength": 0.775, "speedDirection": -1, "speedStrength": 0.775, "speed_start": 0.12, "speed_end": 0.11131517702849458, "ori_start": -60, "ori_end": -30, "motion_direction": "out"}, "stimResponseInterval": 0.27470744790594304, "stimulusDuration": 1.5, "trial_count": 50, "ts": "motion", "trial_type": "threshold_estimation", "exp_stage": "adaptive_procedure", "decision_var": 0.008684822971505413, "response": "down", "rt": 0.4043449230011902, "FB": 1, "quest_estimate": 0.0037928596123580904, "trial_time": 2.7210877729958156}
{"FBDuration": 0.5, "FBonset": 0, "ITI": 0.9103625951660907, "displayFB": true, "onset": 229.80031987279813, "punishment_amount": 0, "responseWindow": 1.5, "reward_amount": 1, "stim": {"motionDirection": "in", "oriBase": -60, "oriDirection": 1, "oriStrength": 0.775, "speedDirection": -1, "speedStrength": 0.775, "speed_start": 0.12, "speed_end": 0.11363036120649156, "ori_start": -60, "ori_end": -30, "motion_direction": "in"}, "stimResponseInterval": 0.9250076084260297, "stimulusDuration": 1.5, "trial_count": 51, "ts": "motion", "trial_type": "threshold_estimation", "exp_stage": "adaptive_procedure", "decision_var": 0.006369638793508443, "response": "down", "rt": 0.3031969299991033, "FB": 1, "quest_estimate": 0.001781815586632339, "trial_time": 3.2680389750021277}
{"FBDuration": 0.5, "FBonset": 0, "ITI": 0.2577968306017928, "displayFB": true, "onset": 235.13569007639023, "punishment_amount": 0, "responseWindow": 1.5, "reward_amount": 1, "stim": {"motionDirection": "in", "oriBase": -60, "oriDirection": -1, "oriStrength": 0.775, "speedDirection": 1, "speedStrength": 0.775, "speed_start": 0.12, "speed_end": 0.1241646765825146, "ori_start": -60, "ori_end": -90, "motion_direction": "in"}, "stimResponseInterval": 0.07637069845588551, "stimulusDuration": 1.5, "trial_count": 52, "ts": "motion", "trial_type": "threshold_estimation", "exp_stage": "adaptive_procedure", "decision_var": 0.004164676582514591, "response": "up", "rt": 0.38496904599742265, "FB": 1, "quest_estimate": -0.00013025492363730184, "trial_time": 2.4996490010016714}
{"FBDuration": 0.5, "FBonset": 0, "ITI": 0.8472613466321002, "displayFB": true, "onset": 238.9698576054479, "punishment_amount": 0, "responseWindow": 1.5, "reward_amount": 1, "stim": {"motionDirection": "in", "oriBase": -60, "oriDirection": 1, "oriStrength": 0.775, "speedDirection": 1, "speedStrength": 0.775, "speed_start": 0.12, "speed_end": 0.12206498363351906, "ori_start": -60, "ori_end": -30, "motion_direction": "in"}, "stimResponseInterval": 0.493806130321378, "stimulusDuration": 1.5, "trial_count": 53, "ts": "motion", "trial_type": "threshold_estimation", "exp_stage": "adaptive_procedure", "decision_var": 0.00206498363351907, "response": "up", "rt": 0.2679444879977382, "FB": 1, "quest_estimate": -0.0019481180615619278, "trial_time": 2.802012687003298}
{"FBDuration": 0.5, "FBonset": 0, "ITI": 0.24534963545872268, "displayFB": true, "onset": 243.81092508240138, "punishment_amount": 0, "responseWindow": 1.5, "reward_amount": 1, "stim": {"motionDirection": "out", "oriBase": 30, "oriDirection": 1, "oriStrength": 0.775, "speedDirection": 1, "speedStrength": 0.775, "speed_start": 0.12, "speed_end": 0.12006532224721214, "ori_start": 30, "ori_end": 60, "motion_direction": "out"}, "stimResponseInterval": 0.07592212090872841, "stimulusDuration": 1.5, "trial_count": 54, "ts": "motion", "trial_type": "threshold_estimation", "exp_stage": "adaptive_procedure", "decision_var": 6.532224721213925e-05, "response": "down", "rt": 0.46664630199666135, "FB": 0, "quest_estimate": 0.004147572087854434, "trial_time": 2.577358775997709}
{"FBDuration": 0.5, "FBonset": 0, "ITI": 0.5457698439796188, "displayFB": true, "onset": 247.63219683876883, "punishment_amount": 0, "responseWindow": 1.5, "reward_amount": 1, "stim": {"motionDirection": "in", "oriBase": 30, "oriDirection": -1, "oriStrength": 0.775, "speedDirection": -1, "speedStrength": 0.775, "speed_start": 0.12, "speed_end": 0.11306884389999436, "ori_start": 30, "ori_end": 0, "motion_direction": "in"}, "stimResponseInterval": 0.8024407353092418, "stimulusDuration": 1.5, "trial_count": 55, "ts": "motion", "trial_type": "threshold_estimation", "exp_stage": "adaptive_procedure", "decision_var": 0.0069311561000056365, "response": "down", "rt": 0.3283119829939096, "FB": 1, "quest_estimate": 0.002199309130725337, "trial_time": 3.1634951140003977}
{"FBDuration": 0.5, "FBonset": 0, "ITI": 0.416514219305416, "displayFB": true, "onset": 252.4804074180577, "punishment_amount": 0, "responseWindow": 1.5, "reward_amount": 1, "stim": {"motionDirection": "in", "oriBase": -60, "oriDirection": -1, "oriStrength": 0.775, "speedDirection": 1, "speedStrength": 0.775, "speed_start": 0.12, "speed_end": 0.12480282752668298, "ori_start": -60, "ori_end": -90, "motion_direction": "in"}, "stimResponseInterval": 0.3454249587914717, "stimulusDuration": 1.5, "trial_count": 56, "ts": "motion", "trial_type": "threshold_estimation", "exp_stage": "adaptive_procedure", "decision_var": 0.0048028275266829915, "response": "up", "rt": 0.3502847070049029, "FB": 1, "quest_estimate": 0.0003420203392775073, "trial_time": 2.7319364340000902}
{"FBDuration": 0.5, "FBonset": 0, "ITI": 0.009103697543437872, "displayFB": true, "onset": 256.74234659615456, "punishment_amount": 0, "responseWindow": 1.5, "reward_amount": 1, "stim": {"motionDirection": "out", "oriBase": -60, "oriDirection": 1, "oriStrength": 0.775, "speedDirection": 1, "speedStrength": 0.775, "speed_start": 0.12, "speed_end": 0.1227695238538418, "ori_start": -60, "ori_end": -30, "motion_direction": "out"}, "stimResponseInterval": 0.028375405883672045, "stimulusDuration": 1.5, "trial_count": 57, "ts": "motion", "trial_type": "threshold_estimation", "exp_stage": "adaptive_procedure", "decision_var": 0.002769523853841792, "response": "up", "rt": 0.7670295979987714, "FB": 1, "quest_estimate": -0.0014284615133347278, "trial_time": 2.837291413998173}
{"FBDuration": 0.5, "FBonset": 0, "ITI": 0.05034965785890744, "displayFB": true, "onset": 260.2798256995817, "punishment_amount": 0, "responseWindow": 1.5, "reward_amount": 1, "stim": {"motionDirection": "out", "oriBase": 30, "oriDirection": 1, "oriStrength": 0.775, "speedDirection": -1, "speedStrength": 0.775, "speed_start": 0.12, "speed_end": 0.1191728652282481, "ori_start": 30, "ori_end": 60, "motion_direction": "out"}, "stimResponseInterval": 0.8406925401689553, "stimulusDuration": 1.5, "trial_count": 58, "ts": "motion", "trial_type": "threshold_estimation", "exp_stage": "adaptive_procedure", "decision_var": 0.0008271347717518848, "response": "up", "rt": 0.4028990849983529, "FB": 0, "quest_estimate": 0.004536780473251206, "trial_time": 3.284165111006587}
{"FBDuration": 0.5, "FBonset": 0, "ITI": 0.02222820945071602, "displayFB": true, "onset": 264.6708678976096, "punishment_amount": 0, "responseWindow": 1.5, "reward_amount": 1, "stim": {"motionDirection": "in", "oriBase": 30, "oriDirection": 1, "oriStrength": 0.775, "speedDirection": -1, "speedStrength": 0.775, "speed_start": 0.12, "speed_end": 0.11249415517075856, "ori_start": 30, "ori_end": 60, "motion_direction": "in"}, "stimResponseInterval": 0.5558669454551692, "stimulusDuration": 1.5, "trial_count": 59, "ts": "motion", "trial_type": "threshold_estimation", "exp_stage": "adaptive_procedure", "decision_var": 0.007505844829241437, "response": "up", "rt": 0.28688548400532454, "FB": 0, "quest_estimate": 0.011261755130600813, "trial_time": 2.8774410280020675}
{"FBDuration": 0.5, "FBonset": 0, "ITI": 0.12499831104501924, "displayFB": true, "onset": 268.7489630525155, "punishment_amount": 0, "responseWindow": 1.5, "reward_amount": 1, "stim": {"motionDirection": "out", "oriBase": 30, "oriDirection": -1, "oriStrength": 0.775, "speedDirection": 1, "speedStrength": 0.775, "speed_start": 0.12, "speed_end": 0.1348985099901101, "ori_start": 30, "ori_end": 0, "motion_direction": "out"}, "stimResponseInterval": 0.2986170185914161, "stimulusDuration": 1.5, "trial_count": 60, "ts": "motion", "trial_type": "threshold_estimation", "exp_stage": "adaptive_procedure", "decision_var": 0.01489850999011011, "response": "up", "rt": 0.2752396770010819, "FB": 1, "quest_estimate": 0.009172500864360798, "trial_time": 2.615449996999814}
{"FBDuration": 0.5, "FBonset": 0, "ITI": 0.5498757369818215, "displayFB": true, "onset": 272.6725783821519, "punishment_amount": 0, "responseWindow": 1.5, "reward_amount": 1, "stim": {"motionDirection": "in", "oriBase": -60, "oriDirection": -1, "oriStrength": 0.775, "speedDirection": 1, "speedStrength": 0.775, "speed_start": 0.12, "speed_end": 0.13265299472372666, "ori_start": -60, "ori_end": -90, "motion_direction": "in"}, "stimResponseInterval": 0.28118276881510007, "stimulusDuration": 1.5, "trial_count": 61, "ts": "motion", "trial_type": "threshold_estimation", "exp_stage": "adaptive_procedure", "decision_var": 0.012652994723726656, "response": "up", "rt": 0.3341000680011348, "FB": 1, "quest_estimate": 0.007169878803958411, "trial_time": 2.651803992994246}
{"FBDuration": 0.5, "FBonset": 0, "ITI": 0.24930934421420237, "displayFB": true, "onset": 277.00363688794886, "punishment_amount": 0, "responseWindow": 1.5, "reward_amount": 1, "stim": {"motionDirection": "in", "oriBase": -60, "oriDirection": 1, "oriStrength": 0.775, "speedDirection": 1, "speedStrength": 0.775, "speed_start": 0.12, "speed_end": 0.1304954884922919, "ori_start": -60, "ori_end": -30, "motion_direction": "in"}, "stimResponseInterval": 0.6933682108913524, "stimulusDuration": 1.5, "trial_count": 62, "ts": "motion", "trial_type": "threshold_estimation", "exp_stage": "adaptive_procedure", "decision_var": 0.010495488492291899, "response": "down", "rt": 0.5224882889961009, "FB": 0, "quest_estimate": 0.014020733634332705, "trial_time": 3.256270947000303}
{"FBDuration": 0.5, "FBonset": 0, "ITI": 0.33263532055806644, "displayFB": true, "onset": 281.4463144430544, "punishment_amount": 0, "responseWindow": 1.5, "reward_amount": 1, "stim": {"motionDirection": "in", "oriBase": -60, "oriDirection": 1, "oriStrength": 0.775, "speedDirection": -1, "speedStrength": 0.775, "speed_start": 0.12, "speed_end": 0.1020625503286412, "ori_start": -60, "ori_end": -30, "motion_direction": "in"}, "stimResponseInterval": 0.5455968889622138, "stimulusDuration": 1.5, "trial_count": 63, "ts": "motion", "trial_type": "threshold_estimation", "exp_stage": "adaptive_procedure", "decision_var": 0.01793744967135879, "response": "down", "rt": 0.6105498480028473, "FB": 1, "quest_estimate": 0.01191758976675375, "trial_time": 3.1905490630015265}
{"FBDuration": 0.5, "FBonset": 0, "ITI": 0.21728333648356846, "displayFB": true, "onset": 285.82454665257467, "punishment_amount": 0, "responseWindow": 1.5, "reward_amount": 1, "stim": {"motionDirection": "out", "oriBase": -60, "oriDirection": 1, "oriStrength": 0.775, "speedDirection": -1, "speedStrength": 0.775, "speed_start": 0.12, "speed_end": 0.10430546117285605, "ori_start": -60, "ori_end": -30, "motion_direction": "out"}, "stimResponseInterval": 0.5079315782472913, "stimulusDuration": 1.5, "trial_count": 64, "ts": "motion", "trial_type": "threshold_estimation", "exp_stage": "adaptive_procedure", "decision_var": 0.015694538827143938, "response": "down", "rt": 0.3184756729970104, "FB": 1, "quest_estimate": 0.009896357056976578, "trial_time": 2.867515113997797}
