{"FBDuration": 0.5, "FBonset": 0, "ITI": 0.7026561664810542, "displayFB": true, "onset": 2, "punishment_amount": 0, "responseWindow": 1.5, "reward_amount": 1, "stim": {"motionDirection": "in", "oriBase": 30, "oriDirection": -1, "oriStrength": 0.775, "speedDirection": 1, "speedStrength": 0.775, "speed_start": 0.12, "speed_end": 0.13353427128792006, "ori_start": 30, "ori_end": 0, "motion_direction": "in"}, "stimResponseInterval": 0.4211529534751215, "stimulusDuration": 1.5, "trial_count": 1, "ts": "motion", "trial_type": "threshold_estimation", "exp_stage": "adaptive_procedure", "decision_var": 0.01353427128792007, "response": "up", "rt": 0.3025291110025137, "FB": 1, "quest_estimate": 0.007954093322970514, "trial_time": 2.7541974979976658}
{"FBDuration": 0.5, "FBonset": 0, "ITI": 0.7817045013342034, "displayFB": true, "onset": 6.623809119956175, "punishment_amount": 0, "responseWindow": 1.5, "reward_amount": 1, "stim": {"motionDirection": "in", "oriBase": -60, "oriDirection": 1, "oriStrength": 0.775, "speedDirection": -1, "speedStrength": 0.775, "speed_start": 0.12, "speed_end": 0.10854681187071208, "ori_start": -60, "ori_end": -30, "motion_direction": "in"}, "stimResponseInterval": 0.3502171006843213, "stimulusDuration": 1.5, "trial_count": 2, "ts": "motion", "trial_type": "threshold_estimation", "exp_stage": "adaptive_procedure", "decision_var": 0.011453188129287924, "response": "down", "rt": 0.6016562880031415, "FB": 1, "quest_estimate": 0.0060878742293968, "trial_time": 2.993791455999599}
{"FBDuration": 0.5, "FBonset": 0, "ITI": 0.8046330130583612, "displayFB": true, "onset": 11.2557307219747, "punishment_amount": 0, "responseWindow": 1.5, "reward_amount": 1, "stim": {"motionDirection": "out", "oriBase": 30, "oriDirection": 1, "oriStrength": 0.775, "speedDirection": -1, "speedStrength": 0.775, "speed_start": 0.12, "speed_end": 0.110552005151349, "ori_start": 30, "ori_end": 60, "motion_direction": "out"}, "stimResponseInterval": 0.2385814899634484, "stimulusDuration": 1.5, "trial_count": 3, "ts": "motion", "trial_type": "threshold_estimation", "exp_stage": "adaptive_procedure", "decision_var": 0.009447994848650991, "response": "down", "rt": 0.30246295399410883, "FB": 1, "quest_estimate": 0.004294901481093773, "trial_time": 2.570655474999512}
{"FBDuration": 0.5, "FBonset": 0, "ITI": 0.7639833583736539, "displayFB": true, "onset": 15.79894522499651, "punishment_amount": 0, "responseWindow": 1.5, "reward_amount": 1, "stim": {"motionDirection": "in", "oriBase": -60, "oriDirection": -1, "oriStrength": 0.775, "speedDirection": 1, "speedStrength": 0.775, "speed_start": 0.12, "speed_end": 0.12751586962596007, "ori_start": -60, "ori_end": -90, "motion_direction": "in"}, "stimResponseInterval": 0.4395895111633408, "stimulusDuration": 1.5, "trial_count": 4, "ts": "motion", "trial_type": "threshold_estimation", "exp_stage": "adaptive_procedure", "decision_var": 0.007515869625960084, "response": "down", "rt": 0.8539146999974037, "FB": 0, "quest_estimate": 0.010433710551657073, "trial_time": 3.3319137540020165}
{"FBDuration": 0.5, "FBonset": 0, "ITI": 0.08963441318221144, "displayFB": true, "onset": 20.502518094533507, "punishment_amount": 0, "responseWindow": 1.5, "reward_amount": 1, "stim": {"motionDirection": "out", "oriBase": 30, "oriDirection": 1, "oriStrength": 0.775, "speedDirection": -1, "speedStrength": 0.775, "speed_start": 0.12, "speed_end": 0.10581517574492078, "ori_start": 30, "ori_end": 60, "motion_direction": "out"}, "stimResponseInterval": 0.2303939446244806, "stimulusDuration": 1.5, "trial_count": 5, "ts": "motion", "trial_type": "threshold_estimation", "exp_stage": "adaptive_procedure", "decision_var": 0.014184824255079227, "response": "down", "rt": 0.4245540039992193, "FB": 1, "quest_estimate": 0.008552104373700721, "trial_time": 2.698931150996941}
{"FBDuration": 0.5, "FBonset": 0, "ITI": 0.8154266576603333, "displayFB": true, "onset": 24.322546452340198, "punishment_amount": 0, "responseWindow": 1.5, "reward_amount": 1, "stim": {"motionDirection": "out", "oriBase": 30, "oriDirection": 1, "oriStrength": 0.775, "speedDirection": 1, "speedStrength": 0.775, "speed_start": 0.12, "speed_end": 0.13217847496583002, "ori_start": 30, "ori_end": 60, "motion_direction": "out"}, "stimResponseInterval": 0.8248600489566265, "stimulusDuration": 1.5, "trial_count": 6, "ts": "motion", "trial_type": "threshold_estimation", "exp_stage": "adaptive_procedure", "decision_var": 0.012178474965830022, "response": "up", "rt": 0.28353185699961614, "FB": 1, "quest_estimate": 0.006740211640181452, "trial_time": 3.1445917770033702}
{"FBDuration": 0.5, "FBonset": 0, "ITI": 0.15574723412579294, "displayFB": true, "onset": 29.46283315895716, "punishment_amount": 0, "responseWindow": 1.5, "reward_amount": 1, "stim": {"motionDirection": "in", "oriBase": -60, "oriDirection": 1, "oriStrength": 0.775, "speedDirection": 1, "speedStrength": 0.775, "speed_start": 0.12, "speed_end": 0.1302410690754029, "ori_start": -60, "ori_end": -30, "motion_direction": "in"}, "stimResponseInterval": 0.38209738406871774, "stimulusDuration": 1.5, "trial_count": 7, "ts": "motion", "trial_type": "threshold_estimation", "exp_stage": "adaptive_procedure", "decision_var": 0.010241069075402912, "response": "up", "rt": 0.26304844999685884, "FB": 1, "quest_estimate": 0.0049955052660454954, "trial_time": 2.6757318309973925}
{"FBDuration": 0.5, "FBonset": 0, "ITI": 0.637037355548911, "displayFB": true, "onset": 33.50067777715167, "punishment_amount": 0, "responseWindow": 1.5, "reward_amount": 1, "stim": {"motionDirection": "out", "oriBase": 30, "oriDirection": -1, "oriStrength": 0.775, "speedDirection": 1, "speedStrength": 0.775, "speed_start": 0.12, "speed_end": 0.12836980159991934, "ori_start": 30, "ori_end": 0, "motion_direction": "out"}, "stimResponseInterval": 0.22033346556187072, "stimulusDuration": 1.5, "trial_count": 8, "ts": "motion", "trial_type": "threshold_estimation", "exp_stage": "adaptive_procedure", "decision_var": 0.008369801599919333, "response": "down", "rt": 0.2777245760007645, "FB": 0, "quest_estimate": 0.010986695327763876, "trial_time": 2.5265821530047106}
{"FBDuration": 0.5, "FBonset": 0, "ITI": 0.9969535234892626, "displayFB": true, "onset": 37.85804859826246, "punishment_amount": 0, "responseWindow": 1.5, "reward_amount": 1, "stim": {"motionDirection": "in", "oriBase": -60, "oriDirection": 1, "oriStrength": 0.775, "speedDirection": 1, "speedStrength": 0.775, "speed_start": 0.12, "speed_end": 0.13483215510403093, "ori_start": -60, "ori_end": -30, "motion_direction": "in"}, "stimResponseInterval": 0.398840856100399, "stimulusDuration": 1.5, "trial_count": 9, "ts": "motion", "trial_type": "threshold_estimation", "exp_stage": "adaptive_procedure", "decision_var": 0.014832155104030943, "response": "up", "rt": 0.2986772669974016, "FB": 1, "quest_estimate": 0.00916304009233572, "trial_time": 2.735685637999268}
{"FBDuration": 0.5, "FBonset": 0, "ITI": 0.4696496359000135, "displayFB": true, "onset": 42.753842977852116, "punishment_amount": 0, "responseWindow": 1.5, "reward_amount": 1, "stim": {"motionDirection": "in", "oriBase": -60, "oriDirection": -1, "oriStrength": 0.775, "speedDirection": -1, "speedStrength": 0.775, "speed_start": 0.12, "speed_end": 0.10710312302136124, "ori_start": -60, "ori_end": -90, "motion_direction": "in"}, "stimResponseInterval": 0.04099965784099069, "stimulusDuration": 1.5, "trial_count": 10, "ts": "motion", "trial_type": "threshold_estimation", "exp_stage": "adaptive_procedure", "decision_var": 0.012896876978638755, "response": "down", "rt": 0.36342471999523696, "FB": 1, "quest_estimate": 0.007403286798731708, "trial_time": 2.432622911997896}
{"FBDuration": 0.5, "FBonset": 0, "ITI": 0.2885550957209617, "displayFB": true, "onset": 46.76449227159312, "punishment_amount": 0, "responseWindow": 1.5, "reward_amount": 1, "stim": {"motionDirection": "in", "oriBase": 30, "oriDirection": 1, "oriStrength": 0.775, "speedDirection": -1, "speedStrength": 0.775, "speed_start": 0.12, "speed_end": 0.10897593383907915, "ori_start": 30, "ori_end": 60, "motion_direction": "in"}, "stimResponseInterval": 0.5927376402934157, "stimulusDuration": 1.5, "trial_count": 11, "ts": "motion", "trial_type": "threshold_estimation", "exp_stage": "adaptive_procedure", "decision_var": 0.011024066160920845, "response": "down", "rt": 0.240282021004532, "FB": 1, "quest_estimate": 0.005705192768460099, "trial_time": 2.86995300000126}
{"FBDuration": 0.5, "FBonset": 0, "ITI": 0.3068698349661372, "displayFB": true, "onset": 51.1457850076075, "punishment_amount": 0, "responseWindow": 1.5, "reward_amount": 1, "stim": {"motionDirection": "in", "oriBase": 30, "oriDirection": 1, "oriStrength": 0.775, "speedDirection": 1, "speedStrength": 0.775, "speed_start": 0.12, "speed_end": 0.1292113289902837, "ori_start": 30, "ori_end": 60, "motion_direction": "in"}, "stimResponseInterval": 0.9529062732264264, "stimulusDuration": 1.5, "trial_count": 12, "ts": "motion", "trial_type": "threshold_estimation", "exp_stage": "adaptive_procedure", "decision_var": 0.009211328990283693, "response": "up", "rt": 0.1266203549967031, "FB": 1, "quest_estimate": 0.004066585906256977, "trial_time": 3.1207039899964}
{"FBDuration": 0.5, "FBonset": 0, "ITI": 0.18985715778792445, "displayFB": true, "onset": 55.90556111580006, "punishment_amount": 0, "responseWindow": 1.5, "reward_amount": 1, "stim": {"motionDirection": "in", "oriBase": -60, "oriDirection": -1, "oriStrength": 0.775, "speedDirection": 1, "speedStrength": 0.775, "speed_start": 0.12, "speed_end": 0.1274566640287737, "ori_start": -60, "ori_end": -90, "motion_direction": "in"}, "stimResponseInterval": 0.5898807920294324, "stimulusDuration": 1.5, "trial_count": 13, "ts": "motion", "trial_type": "threshold_estimation", "exp_stage": "adaptive_procedure", "decision_var": 0.007456664028773707, "response": "up", "rt": 0.29783806599880336, "FB": 1, "quest_estimate": 0.002485369833829673, "trial_time": 2.921613491998869}
{"FBDuration": 0.5, "FBonset": 0, "ITI": 0.4350279531855451, "displayFB": true, "onset": 60.185299065617414, "punishment_amount": 0, "responseWindow": 1.5, "reward_amount": 1, "stim": {"motionDirection": "in", "oriBase": 30, "oriDirection": 1, "oriStrength": 0.775, "speedDirection": 1, "speedStrength": 0.775, "speed_start": 0.12, "speed_end": 0.12575777051937181, "ori_start": 30, "ori_end": 60, "motion_direction": "in"}, "stimResponseInterval": 0.7838148140538905, "stimulusDuration": 1.5, "trial_count": 14, "ts": "motion", "trial_type": "threshold_estimation", "exp_stage": "adaptive_procedure", "decision_var": 0.005757770519371833, "response": "down", "rt": 0.30632261999562616, "FB": 0, "quest_estimate": 0.007914782906095486, "trial_time": 3.1295960990028107}
{"FBDuration": 0.5, "FBonset": 0, "ITI": 0.7019789908538594, "displayFB": true, "onset": 64.90414183285685, "punishment_amount": 0, "responseWindow": 1.5, "reward_amount": 1, "stim": {"motionDirection": "out", "oriBase": -60, "oriDirection": -1, "oriStrength": 0.775, "speedDirection": 1, "speedStrength": 0.775, "speed_start": 0.12, "speed_end": 0.13162270550779445, "ori_start": -60, "ori_end": -90, "motion_direction": "out"}, "stimResponseInterval": 0.0885385942238559, "stimulusDuration": 1.5, "trial_count": 15, "ts": "motion", "trial_type": "threshold_estimation", "exp_stage": "adaptive_procedure", "decision_var": 0.011622705507794456, "response": "up", "rt": 0.33134072700340766, "FB": 1, "quest_estimate": 0.006263655295334999, "trial_time": 2.4584784830003628}
{"FBDuration": 0.5, "FBonset": 0, "ITI": 0.024440887722217974, "displayFB": true, "onset": 69.19465941793456, "punishment_amount": 0, "responseWindow": 1.5, "reward_amount": 1, "stim": {"motionDirection": "in", "oriBase": 30, "oriDirection": -1, "oriStrength": 0.775, "speedDirection": 1, "speedStrength": 0.775, "speed_start": 0.12, "speed_end": 0.12986762410050984, "ori_start": 30, "ori_end": 0, "motion_direction": "in"}, "stimResponseInterval": 0.7519064350767657, "stimulusDuration": 1.5, "trial_count": 16, "ts": "motion", "trial_type": "threshold_estimation", "exp_stage": "adaptive_procedure", "decision_var": 0.009867624100509835, "response": "down", "rt": 0.4144339110061992, "FB": 0, "quest_estimate": 0.011957897597895874, "trial_time": 3.2001057749948814}
{"FBDuration": 0.5, "FBonset": 0, "ITI": 0.2970952518668193, "displayFB": true, "onset": 73.47100674073354, "punishment_amount": 0, "responseWindow": 1.5, "reward_amount": 1, "stim": {"motionDirection": "out", "oriBase": -60, "oriDirection": 1, "oriStrength": 0.775, "speedDirection": -1, "speedStrength": 0.775, "speed_start": 0.12, "speed_end": 0.10406881428561436, "ori_start": -60, "ori_end": -30, "motion_direction": "out"}, "stimResponseInterval": 0.6013624773369302, "stimulusDuration": 1.5, "trial_count": 17, "ts": "motion", "trial_type": "threshold_estimation", "exp_stage": "adaptive_procedure", "decision_var": 0.015931185714385634, "response": "down", "rt": 0.3677504779989249, "FB": 1, "quest_estimate": 0.01024408009340421, "trial_time": 3.012053913997079}
{"FBDuration": 0.5, "FBonset": 0, "ITI": 0.004363473978845622, "displayFB": true, "onset": 77.8694644699373, "punishment_amount": 0, "responseWindow": 1.5, "reward_amount": 1, "stim": {"motionDirection": "out", "oriBase": -60, "oriDirection": -1, "oriStrength": 0.775, "speedDirection": 1, "speedStrength": 0.775, "speed_start": 0.12, "speed_end": 0.13412767682076415, "ori_start": -60, "ori_end": -90, "motion_direction": "out"}, "stimResponseInterval": 0.28790022538288806, "stimulusDuration": 1.5, "trial_count": 18, "ts": "motion", "trial_type": "threshold_estimation", "exp_stage": "adaptive_procedure", "decision_var": 0.01412767682076415, "response": "up", "rt": 0.36810835499636596, "FB": 1, "quest_estimate": 0.00858418815978819, "trial_time": 2.684939420003502}
{"FBDuration": 0.5, "FBonset": 0, "ITI": 0.8270877341555773, "displayFB": true, "onset": 81.66172816929904, "punishment_amount": 0, "responseWindow": 1.5, "reward_amount": 1, "stim": {"motionDirection": "out", "oriBase": 30, "oriDirection": -1, "oriStrength": 0.775, "speedDirection": -1, "speedStrength": 0.775, "speed_start": 0.12, "speed_end": 0.10762374639476824, "ori_start": 30, "ori_end": 0, "motion_direction": "out"}, "stimResponseInterval": 0.459651982432129, "stimulusDuration": 1.5, "trial_count": 19, "ts": "motion", "trial_type": "threshold_estimation", "exp_stage": "adaptive_procedure", "decision_var": 0.01237625360523175, "response": "down", "rt": 0.29820652199850883, "FB": 1, "quest_estimate": 0.006976551981030456, "trial_time": 2.797392728003615}
{"FBDuration": 0.5, "FBonset": 0, "ITI": 0.5759231059849979, "displayFB": true, "onset": 86.44846788588674, "punishment_amount": 0, "responseWindow": 1.5, "reward_amount": 1, "stim": {"motionDirection": "in", "oriBase": 30, "oriDirection": -1, "oriStrength": 0.775, "speedDirection": -1, "speedStrength": 0.775, "speed_start": 0.12, "speed_end": 0.10932497800292965, "ori_start": 30, "ori_end": 0, "motion_direction": "in"}, "stimResponseInterval": 0.4985552933058254, "stimulusDuration": 1.5, "trial_count": 20, "ts": "motion", "trial_type": "threshold_estimation", "exp_stage": "adaptive_procedure", "decision_var": 0.010675021997070343, "response": "down", "rt": 0.26611912000225857, "FB": 1, "quest_estimate": 0.005419352008065419, "trial_time": 2.8033365730007063}
{"FBDuration": 0.5, "FBonset": 0, "ITI": 0.3478572353309439, "displayFB": true, "onset": 91.02294628517757, "punishment_amount": 0, "responseWindow": 1.5, "reward_amount": 1, "stim": {"motionDirection": "in", "oriBase": -60, "oriDirection": 1, "oriStrength": 0.775, "speedDirection": -1, "speedStrength": 0.775, "speed_start": 0.12, "speed_end": 0.1109778723321081, "ori_start": -60, "ori_end": -30, "motion_direction": "in"}, "stimResponseInterval": 0.6534113179214702, "stimulusDuration": 1.5, "trial_count": 21, "ts": "motion", "trial_type": "threshold_estimation", "exp_stage": "adaptive_procedure", "decision_var": 0.0090221276678919, "response": "down", "rt": 0.23046284000156447, "FB": 1, "quest_estimate": 0.003911049758416489, "trial_time": 2.9169240150004043}
{"FBDuration": 0.5, "FBonset": 0, "ITI": 0.444779860848421, "displayFB": true, "onset": 95.52421483842998, "punishment_amount": 0, "responseWindow": 1.5, "reward_amount": 1, "stim": {"motionDirection": "out", "oriBase": -60, "oriDirection": 1, "oriStrength": 0.775, "speedDirection": -1, "speedStrength": 0.775, "speed_start": 0.12, "speed_end": 0.11258384284831462, "ori_start": -60, "ori_end": -30, "motion_direction": "out"}, "stimResponseInterval": 0.7876196279970749, "stimulusDuration": 1.5, "trial_count": 22, "ts": "motion", "trial_type": "threshold_estimation", "exp_stage": "adaptive_procedure", "decision_var": 0.007416157151685379, "response": "down", "rt": 0.23404320699773962, "FB": 1, "quest_estimate": 0.002450083771612037, "trial_time": 3.0548733979958342}
{"FBDuration": 0.5, "FBonset": 0, "ITI": 0.10052957677063756, "displayFB": true, "onset": 100.25661432727549, "punishment_amount": 0, "responseWindow": 1.5, "reward_amount": 1, "stim": {"motionDirection": "in", "oriBase": -60, "oriDirection": -1, "oriStrength": 0.775, "speedDirection": -1, "speedStrength": 0.775, "speed_start": 0.12, "speed_end": 0.11414440902102282, "ori_start": -60, "ori_end": -90, "motion_direction": "in"}, "stimResponseInterval": 0.6523553022098034, "stimulusDuration": 1.5, "trial_count": 23, "ts": "motion", "trial_type": "threshold_estimation", "exp_stage": "adaptive_procedure", "decision_var": 0.005855590978977164, "response": "up", "rt": 0.23337114400055725, "FB": 0, "quest_estimate": 0.007484725476049621, "trial_time": 2.922374359004607}
{"FBDuration": 0.5, "FBonset": 0, "ITI": 0.620148364621516, "displayFB": true, "onset": 104.50949920625592, "punishment_amount": 0, "responseWindow": 1.5, "reward_amount": 1, "stim": {"motionDirection": "in", "oriBase": -60, "oriDirection": -1, "oriStrength": 0.775, "speedDirection": 1, "speedStrength": 0.775, "speed_start": 0.12, "speed_end": 0.131246001819287, "ori_start": -60, "ori_end": -90, "motion_direction": "in"}, "stimResponseInterval": 0.7392489185170039, "stimulusDuration": 1.5, "trial_count": 24, "ts": "motion", "trial_type": "threshold_estimation", "exp_stage": "adaptive_procedure", "decision_var": 0.011246001819286998, "response": "up", "rt": 0.23096092700143345, "FB": 1, "quest_estimate": 0.005967783617716424, "trial_time": 3.0059871499979636}
{"FBDuration": 0.5, "FBonset": 0, "ITI": 0.9534418847601311, "displayFB": true, "onset": 109.36889648939444, "punishment_amount": 0, "responseWindow": 1.5, "reward_amount": 1, "stim": {"motionDirection": "in", "oriBase": -60, "oriDirection": 1, "oriStrength": 0.775, "speedDirection": 1, "speedStrength": 0.775, "speed_start": 0.12, "speed_end": 0.12964212730954539, "ori_start": -60, "ori_end": -30, "motion_direction": "in"}, "stimResponseInterval": 0.3401084288775743, "stimulusDuration": 1.5, "trial_count": 25, "ts": "motion", "trial_type": "threshold_estimation", "exp_stage": "adaptive_procedure", "decision_var": 0.009642127309545404, "response": "down", "rt": 0.3858530419965973, "FB": 0, "quest_estimate": 0.011215862715655826, "trial_time": 2.754830386998947}
{"FBDuration": 0.5, "FBonset": 0, "ITI": 0.7616194874429767, "displayFB": true, "onset": 114.16244680303215, "punishment_amount": 0, "responseWindow": 1.5, "reward_amount": 1, "stim": {"motionDirection": "out", "oriBase": 30, "oriDirection": -1, "oriStrength": 0.775, "speedDirection": -1, "speedStrength": 0.775, "speed_start": 0.12, "speed_end": 0.10481284343825156, "ori_start": 30, "ori_end": 0, "motion_direction": "out"}, "stimResponseInterval": 0.3120077209173463, "stimulusDuration": 1.5, "trial_count": 26, "ts": "motion", "trial_type": "threshold_estimation", "exp_stage": "adaptive_procedure", "decision_var": 0.015187156561748426, "response": "down", "rt": 0.2833187740034191, "FB": 1, "quest_estimate": 0.009648991138031651, "trial_time": 2.6330053249985212}
{"FBDuration": 0.5, "FBonset": 0, "ITI": 0.3047302705100059, "displayFB": true, "onset": 118.73607401139247, "punishment_amount": 0, "responseWindow": 1.5, "reward_amount": 1, "stim": {"motionDirection": "out", "oriBase": -60, "oriDirection": -1, "oriStrength": 0.775, "speedDirection": -1, "speedStrength": 0.775, "speed_start": 0.12, "speed_end": 0.1064539108143395, "ori_start": -60, "ori_end": -90, "motion_direction": "out"}, "stimResponseInterval": 0.6427812083278575, "stimulusDuration": 1.5, "trial_count": 27, "ts": "motion", "trial_type": "threshold_estimation", "exp_stage": "adaptive_procedure", "decision_var": 0.013546089185660491, "response": "down", "rt": 0.3274896410002839, "FB": 1, "quest_estimate": 0.008126604993777604, "trial_time": 3.002823974005878}
{"FBDuration": 0.5, "FBonset": 0, "ITI": 0.3608550704412514, "displayFB": true, "onset": 123.18358549023034, "punishment_amount": 0, "responseWindow": 1.5, "reward_amount": 1, "stim": {"motionDirection": "in", "oriBase": 30, "oriDirection": 1, "oriStrength": 0.775, "speedDirection": -1, "speedStrength": 0.775, "speed_start": 0.12, "speed_end": 0.1080525753825807, "ori_start": 30, "ori_end": 60, "motion_direction": "in"}, "stimResponseInterval": 0.13547223349486193, "stimulusDuration": 1.5, "trial_count": 28, "ts": "motion", "trial_type": "threshold_estimation", "exp_stage": "adaptive_procedure", "decision_var": 0.011947424617419301, "response": "down", "rt": 0.5197695530005149, "FB": 1, "quest_estimate": 0.006647324368310538, "trial_time": 2.6912743329958175}
{"FBDuration": 0.5, "FBonset": 0, "ITI": 0.09352169849424652, "displayFB": true, "onset": 127.17991279416646, "punishment_amount": 0, "responseWindow": 1.5, "reward_amount": 1, "stim": {"motionDirection": "out", "oriBase": 30, "oriDirection": -1, "oriStrength": 0.775, "speedDirection": 1, "speedStrength": 0.775, "speed_start": 0.12, "speed_end": 0.1303898299195361, "ori_start": 30, "ori_end": 0, "motion_direction": "out"}, "stimResponseInterval": 0.8154116464317527, "stimulusDuration": 1.5, "trial_count": 29, "ts": "motion", "trial_type": "threshold_estimation", "exp_stage": "adaptive_procedure", "decision_var": 0.010389829919536103, "response": "up", "rt": 0.29376645300362725, "FB": 1, "quest_estimate": 0.005209839232399573, "trial_time": 3.1512292760016862}
{"FBDuration": 0.5, "FBonset": 0, "ITI": 0.8977270499650252, "displayFB": true, "onset": 131.58884613909245, "punishment_amount": 0, "responseWindow": 1.5, "reward_amount": 1, "stim": {"motionDirection": "out", "oriBase": -60, "oriDirection": 1, "oriStrength": 0.775, "speedDirection": 1, "speedStrength": 0.775, "speed_start": 0.12, "speed_end": 0.128871834771089, "ori_start": -60, "ori_end": -30, "motion_direction": "out"}, "stimResponseInterval": 0.39270065703653656, "stimulusDuration": 1.5, "trial_count": 30, "ts": "motion", "trial_type": "threshold_estimation", "exp_stage": "adaptive_procedure", "decision_var": 0.008871834771088986, "response": "up", "rt": 0.434737709001638, "FB": 1, "quest_estimate": 0.0038130166598648527, "trial_time": 2.8623338809993584}
{"FBDuration": 0.5, "FBonset": 0, "ITI": 0.2954773091929188, "displayFB": true, "onset": 136.379273846094, "punishment_amount": 0, "responseWindow": 1.5, "reward_amount": 1, "stim": {"motionDirection": "in", "oriBase": 30, "oriDirection": 1, "oriStrength": 0.775, "speedDirection": -1, "speedStrength": 0.775, "speed_start": 0.12, "speed_end": 0.1126076469127956, "ori_start": 30, "ori_end": 60, "motion_direction": "in"}, "stimResponseInterval": 0.969056104686276, "stimulusDuration": 1.5, "trial_count": 31, "ts": "motion", "trial_type": "threshold_estimation", "exp_stage": "adaptive_procedure", "decision_var": 0.007392353087204408, "response": "up", "rt": 0.2961760370017146, "FB": 0, "quest_estimate": 0.008651298180141168, "trial_time": 3.2962375360002625}
{"FBDuration": 0.5, "FBonset": 0, "ITI": 0.14391229886973633, "displayFB": true, "onset": 141.14380725997322, "punishment_amount": 0, "responseWindow": 1.5, "reward_amount": 1, "stim": {"motionDirection": "out", "oriBase": 30, "oriDirection": 1, "oriStrength": 0.775, "speedDirection": 1, "speedStrength": 0.775, "speed_start": 0.12, "speed_end": 0.13251242845792208, "ori_start": 30, "ori_end": 60, "motion_direction": "out"}, "stimResponseInterval": 0.9062653618263896, "stimulusDuration": 1.5, "trial_count": 32, "ts": "motion", "trial_type": "threshold_estimation", "exp_stage": "adaptive_procedure", "decision_var": 0.012512428457922074, "response": "up", "rt": 0.3660435779966065, "FB": 1, "quest_estimate": 0.007209488325518369, "trial_time": 3.307502914001816}
{"FBDuration": 0.5, "FBonset": 0, "ITI": 0.0680264868200966, "displayFB": true, "onset": 145.69398492066935, "punishment_amount": 0, "responseWindow": 1.5, "reward_amount": 1, "stim": {"motionDirection": "in", "oriBase": -60, "oriDirection": -1, "oriStrength": 0.775, "speedDirection": -1, "speedStrength": 0.775, "speed_start": 0.12, "speed_end": 0.10900028992182215, "ori_start": -60, "ori_end": -90, "motion_direction": "in"}, "stimResponseInterval": 0.5261942545228147, "stimulusDuration": 1.5, "trial_count": 33, "ts": "motion", "trial_type": "threshold_estimation", "exp_stage": "adaptive_procedure", "decision_var": 0.010999710078177856, "response": "down", "rt": 0.3302298869966762, "FB": 1, "quest_estimate": 0.00580652130002076, "trial_time": 2.8930957020056667}
{"FBDuration": 0.5, "FBonset": 0, "ITI": 0.07991828315648564, "displayFB": true, "onset": 149.78820566201227, "punishment_amount": 0, "responseWindow": 1.5, "reward_amount": 1, "stim": {"motionDirection": "out", "oriBase": -60, "oriDirection": -1, "oriStrength": 0.775, "speedDirection": -1, "speedStrength": 0.775, "speed_start": 0.12, "speed_end": 0.11047638682415005, "ori_start": -60, "ori_end": -90, "motion_direction": "out"}, "stimResponseInterval": 0.34082503242415274, "stimulusDuration": 1.5, "trial_count": 34, "ts": "motion", "trial_type": "threshold_estimation", "exp_stage": "adaptive_procedure", "decision_var": 0.009523613175849946, "response": "down", "rt": 0.3819292459957069, "FB": 1, "quest_estimate": 0.004441168697173974, "trial_time": 2.766834702997585}
{"FBDuration": 0.5, "FBonset": 0, "ITI": 0.1692613423317234, "displayFB": true, "onset": 153.7089489775929, "punishment_amount": 0, "responseWindow": 1.5, "reward_amount": 1, "stim": {"motionDirection": "out", "oriBase": -60, "oriDirection": 1, "oriStrength": 0.775, "speedDirection": -1, "speedStrength": 0.775, "speed_start": 0.12, "speed_end": 0.11191680369605267, "ori_start": -60, "ori_end": -30, "motion_direction": "out"}, "stimResponseInterval": 0.4181324556566569, "stimulusDuration": 1.5, "trial_count": 35, "ts": "motion", "trial_type": "threshold_estimation", "exp_stage": "adaptive_procedure", "decision_var": 0.008083196303947326, "response": "up", "rt": 0.3136989869963145, "FB": 0, "quest_estimate": 0.009183479825977933, "trial_time": 2.7746954380054376}
{"FBDuration": 0.5, "FBonset": 0, "ITI": 0.9831121839321191, "displayFB": true, "onset": 157.79634277558128, "punishment_amount": 0, "responseWindow": 1.5, "reward_amount": 1, "stim": {"motionDirection": "out", "oriBase": -60, "oriDirection": 1, "oriStrength": 0.775, "speedDirection": 1, "speedStrength": 0.775, "speed_start": 0.12, "speed_end": 0.1330756734118017, "ori_start": -60, "ori_end": -30, "motion_direction": "out"}, "stimResponseInterval": 0.8363295189661355, "stimulusDuration": 1.5, "trial_count": 36, "ts": "motion", "trial_type": "threshold_estimation", "exp_stage": "adaptive_procedure", "decision_var": 0.013075673411801728, "response": "up", "rt": 0.2502102740036207, "FB": 1, "quest_estimate": 0.007777774707157022, "trial_time": 3.127559268003097}
{"FBDuration": 0.5, "FBonset": 0, "ITI": 0.4391001005038906, "displayFB": true, "onset": 163.11578447847953, "punishment_amount": 0, "responseWindow": 1.5, "reward_amount": 1, "stim": {"motionDirection": "in", "oriBase": 30, "oriDirection": -1, "oriStrength": 0.775, "speedDirection": 1, "speedStrength": 0.775, "speed_start": 0.12, "speed_end": 0.13160578560286465, "ori_start": 30, "ori_end": 0, "motion_direction": "in"}, "stimResponseInterval": 0.7203681723905389, "stimulusDuration": 1.5, "trial_count": 37, "ts": "motion", "trial_type": "threshold_estimation", "exp_stage": "adaptive_procedure", "decision_var": 0.011605785602864647, "response": "up", "rt": 0.338383629998134, "FB": 1, "quest_estimate": 0.0064081055849892835, "trial_time": 3.103528557003301}
{"FBDuration": 0.5, "FBonset": 0, "ITI": 0.4466423802721762, "displayFB": true, "onset": 167.77525275137396, "punishment_amount": 0, "responseWindow": 1.5, "reward_amount": 1, "stim": {"motionDirection": "in", "oriBase": -60, "oriDirection": 1, "oriStrength": 0.775, "speedDirection": -1, "speedStrength": 0.775, "speed_start": 0.12, "speed_end": 0.10983002302424184, "ori_start": -60, "ori_end": -30, "motion_direction": "in"}, "stimResponseInterval": 0.5211954276416506, "stimulusDuration": 1.5, "trial_count": 38, "ts": "motion", "trial_type": "threshold_estimation", "exp_stage": "adaptive_procedure", "decision_var": 0.010169976975758152, "response": "down", "rt": 0.29089189099613577, "FB": 1, "quest_estimate": 0.005073347340138534, "trial_time": 2.8448680660003447}
{"FBDuration": 0.5, "FBonset": 0, "ITI": 0.39479593234481836, "displayFB": true, "onset": 172.2430905592878, "punishment_amount": 0, "responseWindow": 1.5, "reward_amount": 1, "stim": {"motionDirection": "in", "oriBase": 30, "oriDirection": 1, "oriStrength": 0.775, "speedDirection": 1, "speedStrength": 0.775, "speed_start": 0.12, "speed_end": 0.12876699384242257, "ori_start": 30, "ori_end": 60, "motion_direction": "in"}, "stimResponseInterval": 0.18261423746787342, "stimulusDuration": 1.5, "trial_count": 39, "ts": "motion", "trial_type": "threshold_estimation", "exp_stage": "adaptive_procedure", "decision_var": 0.008766993842422577, "response": "up", "rt": 0.4485299370062421, "FB": 1, "quest_estimate": 0.00377265408658415, "trial_time": 2.6642663050006377}
{"FBDuration": 0.5, "FBonset": 0, "ITI": 0.8326745981884667, "displayFB": true, "onset": 176.32050072910047, "punishment_amount": 0, "responseWindow": 1.5, "reward_amount": 1, "stim": {"motionDirection": "out", "oriBase": -60, "oriDirection": -1, "oriStrength": 0.775, "speedDirection": 1, "speedStrength": 0.775, "speed_start": 0.12, "speed_end": 0.12739608367893598, "ori_start": -60, "ori_end": -90, "motion_direction": "out"}, "stimResponseInterval": 0.005057371162235036, "stimulusDuration": 1.5, "trial_count": 40, "ts": "motion", "trial_type": "threshold_estimation", "exp_stage": "adaptive_procedure", "decision_var": 0.0073960836789359816, "response": "up", "rt": 0.3884279420017265, "FB": 1, "quest_estimate": 0.0025051282968992644, "trial_time": 2.443022033003217}
{"FBDuration": 0.5, "FBonset": 0, "ITI": 0.9498252781441199, "displayFB": true, "onset": 180.65823269845117, "punishment_amount": 0, "responseWindow": 1.5, "reward_amount": 1, "stim": {"motionDirection": "in", "oriBase": -60, "oriDirection": -1, "oriStrength": 0.775, "speedDirection": 1, "speedStrength": 0.775, "speed_start": 0.12, "speed_end": 0.12605639660675655, "ori_start": -60, "ori_end": -90, "motion_direction": "in"}, "stimResponseInterval": 0.8778615474015887, "stimulusDuration": 1.5, "trial_count": 41, "ts": "motion", "trial_type": "threshold_estimation", "exp_stage": "adaptive_procedure", "decision_var": 0.0060563966067565395, "response": "up", "rt": 0.26807369800371816, "FB": 1, "quest_estimate": 0.0012699191516005806, "trial_time": 3.1852762089984026}
{"FBDuration": 0.5, "FBonset": 0, "ITI": 0.22784604535337716, "displayFB": true, "onset": 185.98591952399687, "punishment_amount": 0, "responseWindow": 1.5, "reward_amount": 1, "stim": {"motionDirection": "out", "oriBase": 30, "oriDirection": -1, "oriStrength": 0.775, "speedDirection": -1, "speedStrength": 0.775, "speed_start": 0.12, "speed_end": 0.11525289152892416, "ori_start": 30, "ori_end": 0, "motion_direction": "out"}, "stimResponseInterval": 0.2058982665166471, "stimulusDuration": 1.5, "trial_count": 42, "ts": "motion", "trial_type": "threshold_estimation", "exp_stage": "adaptive_procedure", "decision_var": 0.004747108471075831, "response": "down", "rt": 0.31810709300043527, "FB": 1, "quest_estimate": 6.621877038884977e-05, "trial_time": 2.554136156999448}
{"FBDuration": 0.5, "FBonset": 0, "ITI": 0.9691538957942165, "displayFB": true, "onset": 189.91966383586688, "punishment_amount": 0, "responseWindow": 1.5, "reward_amount": 1, "stim": {"motionDirection": "out", "oriBase": 30, "oriDirection": 1, "oriStrength": 0.775, "speedDirection": -1, "speedStrength": 0.775, "speed_start": 0.12, "speed_end": 0.11653258297041048, "ori_start": 30, "ori_end": 60, "motion_direction": "out"}, "stimResponseInterval": 0.13892739290017997, "stimulusDuration": 1.5, "trial_count": 43, "ts": "motion", "trial_type": "threshold_estimation", "exp_stage": "adaptive_procedure", "decision_var": 0.003467417029589512, "response": "down", "rt": 0.26579974799824413, "FB": 1, "quest_estimate": -0.00110665013015427, "trial_time": 2.435657190006168}
{"FBDuration": 0.5, "FBonset": 0, "ITI": 0.02923738261429054, "displayFB": true, "onset": 194.52774512456128, "punishment_amount": 0, "responseWindow": 1.5, "reward_amount": 1, "stim": {"motionDirection": "out", "oriBase": -60, "oriDirection": 1, "oriStrength": 0.775, "speedDirection": 1, "speedStrength": 0.775, "speed_start": 0.12, "speed_end": 0.12221666097620666, "ori_start": -60, "ori_end": -30, "motion_direction": "out"}, "stimResponseInterval": 0.47080547626190594, "stimulusDuration": 1.5, "trial_count": 44, "ts": "motion", "trial_type": "threshold_estimation", "exp_stage": "adaptive_procedure", "decision_var": 0.0022166609762066664, "response": "up", "rt": 0.2826920580046135, "FB": 1, "quest_estimate": -0.002249504307533838, "trial_time": 2.795694470994931}
{"FBDuration": 0.5, "FBonset": 0, "ITI": 0.5758427938569688, "displayFB": true, "onset": 198.52778798343746, "punishment_amount": 0, "responseWindow": 1.5, "reward_amount": 1, "stim": {"motionDirection": "out", "oriBase": 30, "oriDirection": -1, "oriStrength": 0.775, "speedDirection": 1, "speedStrength": 0.775, "speed_start": 0.12, "speed_end": 0.12099442066114224, "ori_start": 30, "ori_end": 0, "motion_direction": "out"}, "stimResponseInterval": 0.1590115347542327, "stimulusDuration": 1.5, "trial_count": 45, "ts": "motion", "trial_type": "threshold_estimation", "exp_stage": "adaptive_procedure", "decision_var": 0.000994420661142248, "response": "up", "rt": 0.473072411994508, "FB": 1, "quest_estimate": -0.003363046763286248, "trial_time": 2.675351963000139}
{"FBDuration": 0.5, "FBonset": 0, "ITI": 0.3821627474259983, "displayFB": true, "onset": 202.76264231204865, "punishment_amount": 0, "responseWindow": 1.5, "reward_amount": 1, "stim": {"motionDirection": "in", "oriBase": 30, "oriDirection": 1, "oriStrength": 0.775, "speedDirection": 1, "speedStrength": 0.775, "speed_start": 0.12, "speed_end": 0.12000999999999999, "ori_start": 30, "ori_end": 60, "motion_direction": "in"}, "stimResponseInterval": 0.1521746244767993, "stimulusDuration": 1.5, "trial_count": 46, "ts": "motion", "trial_type": "threshold_estimation", "exp_stage": "adaptive_procedure", "decision_var": 1e-05, "response": "up", "rt": 0.30921507900347933, "FB": 1, "quest_estimate": -0.004447797226581757, "trial_time": 2.4884639540032367}
{"FBDuration": 0.5, "FBonset": 0, "ITI": 0.6906386123028079, "displayFB": true, "onset": 206.79697968395146, "punishment_amount": 0, "responseWindow": 1.5, "reward_amount": 1, "stim": {"motionDirection": "in", "oriBase": -60, "oriDirection": 1, "oriStrength": 0.775, "speedDirection": -1, "speedStrength": 0.775, "speed_start": 0.12, "speed_end": 0.11999, "ori_start": -60, "ori_end": -30, "motion_direction": "in"}, "stimResponseInterval": 0.6096234719577136, "stimulusDuration": 1.5, "trial_count": 47, "ts": "motion", "trial_type": "threshold_estimation", "exp_stage": "adaptive_procedure", "decision_var": 1e-05, "response": "up", "rt": 0.40013662700221175, "FB": 0, "quest_estimate": -0.0006561199522530786, "trial_time": 3.038768128004449}
{"FBDuration": 0.5, "FBonset": 0, "ITI": 0.017409449738276073, "displayFB": true, "onset": 211.59724176821197, "punishment_amount": 0, "responseWindow": 1.5, "reward_amount": 1, "stim": {"motionDirection": "out", "oriBase": -60, "oriDirection": 1, "oriStrength": 0.775, "speedDirection": 1, "speedStrength": 0.775, "speed_start": 0.12, "speed_end": 0.1227182580614126, "ori_start": -60, "ori_end": -30, "motion_direction": "out"}, "stimResponseInterval": 0.40584579892927086, "stimulusDuration": 1.5, "trial_count": 48, "ts": "motion", "trial_type": "threshold_estimation", "exp_stage": "adaptive_procedure", "decision_var": 0.0027182580614125984, "response": "down", "rt": 0.36982781799451914, "FB": 0, "quest_estimate": 0.003339312465208119, "trial_time": 2.806919442002254}
{"FBDuration": 0.5, "FBonset": 0, "ITI": 0.41246380151605333, "displayFB": true, "onset": 215.52049701687952, "punishment_amount": 0, "responseWindow": 1.5, "reward_amount": 1, "stim": {"motionDirection": "in", "oriBase": 30, "oriDirection": -1, "oriStrength": 0.775, "speedDirection": -1, "speedStrength": 0.775, "speed_start": 0.12, "speed_end": 0.11304234283110658, "ori_start": 30, "ori_end": 0, "motion_direction": "in"}, "stimResponseInterval": 0.13883563840039959, "stimulusDuration": 1.5, "trial_count": 49, "ts": "motion", "trial_type": "threshold_estimation", "exp_stage": "adaptive_procedure", "decision_var": 0.006957657168893419, "response": "down", "rt": 0.7419941979969735, "FB": 1, "quest_estimate": 0.0021540143550866225, "trial_time": 2.923253635999572}
{"FBDuration": 0.5, "FBonset": 0, "ITI": 0.5981019676250194, "displayFB": true, "onset": 219.57179645679597, "punishment_amount": 0, "responseWindow": 1.5, "reward_amount": 1, "stim": {"motionDirection": "in", "oriBase": -60, "oriDirection": 1, "oriStrength": 0.775, "speedDirection": 1, "speedStrength": 0.775, "speed_start": 0.12, "speed_end": 0.12570918012503193, "ori_start": -60, "ori_end": -30, "motion_direction": "in"}, "stimResponseInterval": 0.5912027418243084, "stimulusDuration": 1.5, "trial_count": 50, "ts": "motion", "trial_type": "threshold_estimation", "exp_stage": "adaptive_procedure", "decision_var": 0.005709180125031944, "response": "up", "rt": 0.3174153590007336, "FB": 1, "quest_estimate": 0.0009963794216891336, "trial_time": 2.952445456998248}
{"FBDuration": 0.5, "FBonset": 0, "ITI": 0.09347972192331078, "displayFB": true, "onset": 224.26110116624528, "punishment_amount": 0, "responseWindow": 1.5, "reward_amount": 1, "stim": {"motionDirection": "in", "oriBase": 30, "oriDirection": -1, "oriStrength": 0.775, "speedDirection": -1, "speedStrength": 0.775, "speed_start": 0.12, "speed_end": 0.1155132700065904, "ori_start": 30, "ori_end": 0, "motion_direction": "in"}, "stimResponseInterval": 0.3009645108672748, "stimulusDuration": 1.5, "trial_count": 51, "ts": "motion", "trial_type": "threshold_estimation", "exp_stage": "adaptive_procedure", "decision_var": 0.004486729993409606, "response": "down", "rt": 0.2825927129961201, "FB": 1, "quest_estimate": -0.00013422129264436394, "trial_time": 2.622922863003623}
{"FBDuration": 0.5, "FBonset": 0, "ITI": 0.3587460989687372, "displayFB": true, "onset": 228.15554539903587, "punishment_amount": 0, "responseWindow": 1.5, "reward_amount": 1, "stim": {"motionDirection": "in", "oriBase": 30, "oriDirection": -1, "oriStrength": 0.775, "speedDirection": -1, "speedStrength": 0.775, "speed_start": 0.12, "speed_end": 0.11671064420897499, "ori_start": 30, "ori_end": 0, "motion_direction": "in"}, "stimResponseInterval": 0.7605570085559648, "stimulusDuration": 1.5, "trial_count": 52, "ts": "motion", "trial_type": "threshold_estimation", "exp_stage": "adaptive_procedure", "decision_var": 0.003289355791025003, "response": "down", "rt": 0.2815881249989616, "FB": 1, "quest_estimate": -0.0012382921347511497, "trial_time": 3.0720233309984906}
{"FBDuration": 0.5, "FBonset": 0, "ITI": 0.4531382695552254, "displayFB": true, "onset": 232.77484850656057, "punishment_amount": 0, "responseWindow": 1.5, "reward_amount": 1, "stim": {"motionDirection": "out", "oriBase": 30, "oriDirection": -1, "oriStrength": 0.775, "speedDirection": 1, "speedStrength": 0.775, "speed_start": 0.12, "speed_end": 0.12211699949064153, "ori_start": 30, "ori_end": 0, "motion_direction": "out"}, "stimResponseInterval": 0.5237493452667024, "stimulusDuration": 1.5, "trial_count": 53, "ts": "motion", "trial_type": "threshold_estimation", "exp_stage": "adaptive_procedure", "decision_var": 0.0021169994906415426, "response": "down", "rt": 0.2595288650045404, "FB": 0, "quest_estimate": 0.002597843447968172, "trial_time": 2.8130637830035994}
{"FBDuration": 0.5, "FBonset": 0, "ITI": 0.6523859880713001, "displayFB": true, "onset": 237.2517361213825, "punishment_amount": 0, "responseWindow": 1.5, "reward_amount": 1, "stim": {"motionDirection": "out", "oriBase": 30, "oriDirection": 1, "oriStrength": 0.775, "speedDirection": 1, "speedStrength": 0.775, "speed_start": 0.12, "speed_end": 0.1261822646681981, "ori_start": 30, "ori_end": 60, "motion_direction": "out"}, "stimResponseInterval": 0.7729724734861669, "stimulusDuration": 1.5, "trial_count": 54, "ts": "motion", "trial_type": "threshold_estimation", "exp_stage": "adaptive_procedure", "decision_var": 0.006182264668198087, "response": "up", "rt": 0.31698642000264954, "FB": 1, "quest_estimate": 0.0014625638492133733, "trial_time": 3.1282726080025895}
{"FBDuration": 0.5, "FBonset": 0, "ITI": 0.47131178148612285, "displayFB": true, "onset": 242.17709458293996, "punishment_amount": 0, "responseWindow": 1.5, "reward_amount": 1, "stim": {"motionDirection": "out", "oriBase": 30, "oriDirection": -1, "oriStrength": 0.775, "speedDirection": -1, "speedStrength": 0.775, "speed_start": 0.12, "speed_end": 0.11501287853297643, "ori_start": 30, "ori_end": 0, "motion_direction": "out"}, "stimResponseInterval": 0.8565790981710806, "stimulusDuration": 1.5, "trial_count": 55, "ts": "motion", "trial_type": "threshold_estimation", "exp_stage": "adaptive_procedure", "decision_var": 0.004987121467023577, "response": "down", "rt": 0.3621228140036692, "FB": 1, "quest_estimate": 0.00035265136763185795, "trial_time": 3.251138480998634}
{"FBDuration": 0.5, "FBonset": 0, "ITI": 0.35068701343171826, "displayFB": true, "onset": 247.00498546259715, "punishment_amount": 0, "responseWindow": 1.5, "reward_amount": 1, "stim": {"motionDirection": "out", "oriBase": -60, "oriDirection": -1, "oriStrength": 0.775, "speedDirection": -1, "speedStrength": 0.775, "speed_start": 0.12, "speed_end": 0.11618440961796389, "ori_start": -60, "ori_end": -90, "motion_direction": "out"}, "stimResponseInterval": 0.5488915566129169, "stimulusDuration": 1.5, "trial_count": 56, "ts": "motion", "trial_type": "threshold_estimation", "exp_stage": "adaptive_procedure", "decision_var": 0.0038155903820361117, "response": "down", "rt": 0.35410352799954126, "FB": 1, "quest_estimate": -0.0007323404364606989, "trial_time": 2.942766505999316}
{"FBDuration": 0.5, "FBonset": 0, "ITI": 0.09280658525670227, "displayFB": true, "onset": 251.4045640326418, "punishment_amount": 0, "responseWindow": 1.5, "reward_amount": 1, "stim": {"motionDirection": "out", "oriBase": 30, "oriDirection": 1, "oriStrength": 0.775, "speedDirection": 1, "speedStrength": 0.775, "speed_start": 0.12, "speed_end": 0.1226674309288549, "ori_start": 30, "ori_end": 60, "motion_direction": "out"}, "stimResponseInterval": 0.6597483293132071, "stimulusDuration": 1.5, "trial_count": 57, "ts": "motion", "trial_type": "threshold_estimation", "exp_stage": "adaptive_procedure", "decision_var": 0.002667430928854901, "response": "up", "rt": 0.2734399850014597, "FB": 1, "quest_estimate": -0.0017929214314447717, "trial_time": 2.975769953998679}
{"FBDuration": 0.5, "FBonset": 0, "ITI": 0.2849793111771095, "displayFB": true, "onset": 255.6571189472117, "punishment_amount": 0, "responseWindow": 1.5, "reward_amount": 1, "stim": {"motionDirection": "in", "oriBase": 30, "oriDirection": 1, "oriStrength": 0.775, "speedDirection": -1, "speedStrength": 0.775, "speed_start": 0.12, "speed_end": 0.1184580144493446, "ori_start": 30, "ori_end": 60, "motion_direction": "in"}, "stimResponseInterval": 0.792637307917758, "stimulusDuration": 1.5, "trial_count": 58, "ts": "motion", "trial_type": "threshold_estimation", "exp_stage": "adaptive_procedure", "decision_var": 0.001541985550655392, "response": "up", "rt": 0.29692495099880034, "FB": 0, "quest_estimate": 0.001887643642025108, "trial_time": 3.1307811299993773}
{"FBDuration": 0.5, "FBonset": 0, "ITI": 0.9724962227171716, "displayFB": true, "onset": 260.23473556630654, "punishment_amount": 0, "responseWindow": 1.5, "reward_amount": 1, "stim": {"motionDirection": "in", "oriBase": -60, "oriDirection": -1, "oriStrength": 0.775, "speedDirection": -1, "speedStrength": 0.775, "speed_start": 0.12, "speed_end": 0.11456220175732051, "ori_start": -60, "ori_end": -90, "motion_direction": "in"}, "stimResponseInterval": 0.6349604248791707, "stimulusDuration": 1.5, "trial_count": 59, "ts": "motion", "trial_type": "threshold_estimation", "exp_stage": "adaptive_procedure", "decision_var": 0.005437798242679481, "response": "down", "rt": 0.2776278009987436, "FB": 1, "quest_estimate": 0.0007983917559463774, "trial_time": 2.9472114149975823}
{"FBDuration": 0.5, "FBonset": 0, "ITI": 0.5378589856441476, "displayFB": true, "onset": 265.3421922139029, "punishment_amount": 0, "responseWindow": 1.5, "reward_amount": 1, "stim": {"motionDirection": "out", "oriBase": -60, "oriDirection": 1, "oriStrength": 0.775, "speedDirection": -1, "speedStrength": 0.775, "speed_start": 0.12, "speed_end": 0.11570828460439432, "ori_start": -60, "ori_end": -30, "motion_direction": "out"}, "stimResponseInterval": 0.6474779234092287, "stimulusDuration": 1.5, "trial_count": 60, "ts": "motion", "trial_type": "threshold_estimation", "exp_stage": "adaptive_procedure", "decision_var": 0.004291715395605675, "response": "up", "rt": 0.3059211379950284, "FB": 0, "quest_estimate": 0.004594348769954737, "trial_time": 2.9979788569980883}
{"FBDuration": 0.5, "FBonset": 0, "ITI": 0.3962872057631791, "displayFB": true, "onset": 270.02752912295625, "punishment_amount": 0, "responseWindow": 1.5, "reward_amount": 1, "stim": {"motionDirection": "out", "oriBase": -60, "oriDirection": -1, "oriStrength": 0.775, "speedDirection": 1, "speedStrength": 0.775, "speed_start": 0.12, "speed_end": 0.1282687882606368, "ori_start": -60, "ori_end": -90, "motion_direction": "out"}, "stimResponseInterval": 0.5764437889111991, "stimulusDuration": 1.5, "trial_count": 61, "ts": "motion", "trial_type": "threshold_estimation", "exp_stage": "adaptive_procedure", "decision_var": 0.00826878826063683, "response": "up", "rt": 0.3079649170031189, "FB": 1, "quest_estimate": 0.003479293021844021, "trial_time": 2.9283430659997975}
{"FBDuration": 0.5, "FBonset": 0, "ITI": 0.19102809106446172, "displayFB": true, "onset": 274.5002601176306, "punishment_amount": 0, "responseWindow": 1.5, "reward_amount": 1, "stim": {"motionDirection": "out", "oriBase": -60, "oriDirection": -1, "oriStrength": 0.775, "speedDirection": -1, "speedStrength": 0.775, "speed_start": 0.12, "speed_end": 0.11289561878867094, "ori_start": -60, "ori_end": -90, "motion_direction": "out"}, "stimResponseInterval": 0.9291370752915697, "stimulusDuration": 1.5, "trial_count": 62, "ts": "motion", "trial_type": "threshold_estimation", "exp_stage": "adaptive_procedure", "decision_var": 0.007104381211329051, "response": "down", "rt": 0.2693108990060864, "FB": 1, "quest_estimate": 0.00238719138346858, "trial_time": 3.2394878129998688}
{"FBDuration": 0.5, "FBonset": 0, "ITI": 0.8879357599716775, "displayFB": true, "onset": 279.1204252839866, "punishment_amount": 0, "responseWindow": 1.5, "reward_amount": 1, "stim": {"motionDirection": "out", "oriBase": 30, "oriDirection": 1, "oriStrength": 0.775, "speedDirection": -1, "speedStrength": 0.775, "speed_start": 0.12, "speed_end": 0.11403850367563091, "ori_start": 30, "ori_end": 60, "motion_direction": "out"}, "stimResponseInterval": 0.0694512714611576, "stimulusDuration": 1.5, "trial_count": 63, "ts": "motion", "trial_type": "threshold_estimation", "exp_stage": "adaptive_procedure", "decision_var": 0.005961496324369084, "response": "down", "rt": 0.5036084419989493, "FB": 1, "quest_estimate": 0.0013175678841799085, "trial_time": 2.6112395919990377}
{"FBDuration": 0.5, "FBonset": 0, "ITI": 0.4590965340435259, "displayFB": true, "onset": 283.57781231541946, "punishment_amount": 0, "responseWindow": 1.5, "reward_amount": 1, "stim": {"motionDirection": "in", "oriBase": 30, "oriDirection": -1, "oriStrength": 0.775, "speedDirection": 1, "speedStrength": 0.775, "speed_start": 0.12, "speed_end": 0.12483957693170299, "ori_start": 30, "ori_end": 0, "motion_direction": "in"}, "stimResponseInterval": 0.41508593179297104, "stimulusDuration": 1.5, "trial_count": 64, "ts": "motion", "trial_type": "threshold_estimation", "exp_stage": "adaptive_procedure", "decision_var": 0.004839576931702991, "response": "up", "rt": 0.2979277279955568, "FB": 1, "quest_estimate": 0.0002699734364566275, "trial_time": 2.7468878219951876}
