{"FBDuration": 0.5, "FBonset": 0, "ITI": 0.7555473981083045, "displayFB": true, "onset": 2, "punishment_amount": 0, "responseWindow": 1.5, "reward_amount": 1, "stim": {"motionDirection": "in", "oriBase": 30, "oriDirection": 1, "oriStrength": 0.775, "speedDirection": 1, "speedStrength": 0.775, "speed_start": 0.12, "speed_end": 0.1281415556932568, "ori_start": 30, "ori_end": 32.91441165001076, "motion_direction": "in"}, "stimResponseInterval": 0.16349158269026232, "stimulusDuration": 1.5, "trial_count": 1, "ts": "orientation", "trial_type": "intensity-70", "exp_stage": "adaptive_procedure", "decision_var": 2.914411650010764, "response": "left", "rt": 0.37914923499920405, "FB": 0, "quest_estimate": 8.55418865442002, "trial_time": 2.578065449008136}
{"FBDuration": 0.5, "FBonset": 0, "ITI": 0.4249628590647222, "displayFB": true, "onset": 6.419038980798566, "punishment_amount": 0, "responseWindow": 1.5, "reward_amount": 1, "stim": {"motionDirection": "in", "oriBase": 30, "oriDirection": 1, "oriStrength": 0.775, "speedDirection": 1, "speedStrength": 0.775, "speed_start": 0.12, "speed_end": 0.1281415556932568, "ori_start": 30, "ori_end": 32.91441165001076, "motion_direction": "in"}, "stimResponseInterval": 0.6266976832117732, "stimulusDuration": 1.5, "trial_count": 2, "ts": "orientation", "trial_type": "intensity-70", "exp_stage": "adaptive_procedure", "decision_var": 2.914411650010764, "response": "left", "rt": 0.2982541620003758, "FB": 0, "quest_estimate": 8.554188770289194, "trial_time": 2.957162894992507}
{"FBDuration": 0.5, "FBonset": 0, "ITI": 0.5063143716297629, "displayFB": true, "onset": 10.970699523075062, "punishment_amount": 0, "responseWindow": 1.5, "reward_amount": 1, "stim": {"motionDirection": "out", "oriBase": -60, "oriDirection": 1, "oriStrength": 0.775, "speedDirection": 1, "speedStrength": 0.775, "speed_start": 0.12, "speed_end": 0.1281415556932568, "ori_start": -60, "ori_end": -55.89908629315001, "motion_direction": "out"}, "stimResponseInterval": 0.3801130360822339, "stimulusDuration": 1.5, "trial_count": 3, "ts": "orientation", "trial_type": "intensity-91", "exp_stage": "adaptive_procedure", "decision_var": 4.100913706849989, "response": "right", "rt": 0.24535973399179056, "FB": 1, "quest_estimate": 8.554182012096657, "trial_time": 2.654429859991069}
{"FBDuration": 0.5, "FBonset": 0, "ITI": 0.9263602246461575, "displayFB": true, "onset": 15.357126930787059, "punishment_amount": 0, "responseWindow": 1.5, "reward_amount": 1, "stim": {"motionDirection": "in", "oriBase": -60, "oriDirection": 1, "oriStrength": 0.775, "speedDirection": -1, "speedStrength": 0.775, "speed_start": 0.12, "speed_end": 0.11185844430674317, "ori_start": -60, "ori_end": -57.46548636596065, "motion_direction": "in"}, "stimResponseInterval": 0.8875097712754338, "stimulusDuration": 1.5, "trial_count": 4, "ts": "orientation", "trial_type": "intensity-60", "exp_stage": "adaptive_procedure", "decision_var": 2.534513634039347, "response": "right", "rt": 0.23359734100813512, "FB": 1, "quest_estimate": 8.554182003378013, "trial_time": 3.145811839000089}
{"FBDuration": 0.5, "FBonset": 0, "ITI": 0.5442353953798325, "displayFB": true, "onset": 20.67099692670865, "punishment_amount": 0, "responseWindow": 1.5, "reward_amount": 1, "stim": {"motionDirection": "in", "oriBase": -60, "oriDirection": -1, "oriStrength": 0.775, "speedDirection": -1, "speedStrength": 0.775, "speed_start": 0.12, "speed_end": 0.11185844430674317, "ori_start": -60, "ori_end": -63.448081843401575, "motion_direction": "in"}, "stimResponseInterval": 0.5364650531270136, "stimulusDuration": 1.5, "trial_count": 5, "ts": "orientation", "trial_type": "intensity-85", "exp_stage": "adaptive_procedure", "decision_var": 3.4480818434015754, "response": "left", "rt": 0.32471630499640014, "FB": 1, "quest_estimate": 8.554175937991019, "trial_time": 2.8865271609975025}
{"FBDuration": 0.5, "FBonset": 0, "ITI": 0.04602672488840287, "displayFB": true, "onset": 25.251697375215496, "punishment_amount": 0, "responseWindow": 1.5, "reward_amount": 1, "stim": {"motionDirection": "out", "oriBase": 30, "oriDirection": -1, "oriStrength": 0.775, "speedDirection": -1, "speedStrength": 0.775, "speed_start": 0.12, "speed_end": 0.11185844430674317, "ori_start": 30, "ori_end": 26.551918156598425, "motion_direction": "out"}, "stimResponseInterval": 0.1303066842795545, "stimulusDuration": 1.5, "trial_count": 6, "ts": "orientation", "trial_type": "intensity-85", "exp_stage": "adaptive_procedure", "decision_var": 3.4480818434015754, "response": "left", "rt": 0.7178097339929081, "FB": 1, "quest_estimate": 8.554166045955938, "trial_time": 2.873836475991993}
{"FBDuration": 0.5, "FBonset": 0, "ITI": 0.8019073881425212, "displayFB": true, "onset": 28.928030784383452, "punishment_amount": 0, "responseWindow": 1.5, "reward_amount": 1, "stim": {"motionDirection": "out", "oriBase": -60, "oriDirection": 1, "oriStrength": 0.775, "speedDirection": -1, "speedStrength": 0.775, "speed_start": 0.12, "speed_end": 0.11185844430674317, "ori_start": -60, "ori_end": -57.08558834998924, "motion_direction": "out"}, "stimResponseInterval": 0.04482233028485272, "stimulusDuration": 1.5, "trial_count": 7, "ts": "orientation", "trial_type": "intensity-70", "exp_stage": "adaptive_procedure", "decision_var": 2.914411650010764, "response": "right", "rt": 0.5596763299981831, "FB": 1, "quest_estimate": 8.554165395839004, "trial_time": 2.6359551980131073}
{"FBDuration": 0.5, "FBonset": 0, "ITI": 0.5055213354858923, "displayFB": true, "onset": 33.27476050281083, "punishment_amount": 0, "responseWindow": 1.5, "reward_amount": 1, "stim": {"motionDirection": "in", "oriBase": -60, "oriDirection": -1, "oriStrength": 0.775, "speedDirection": -1, "speedStrength": 0.775, "speed_start": 0.12, "speed_end": 0.11185844430674317, "ori_start": -60, "ori_end": -63.448081843401575, "motion_direction": "in"}, "stimResponseInterval": 0.784148294901744, "stimulusDuration": 1.5, "trial_count": 8, "ts": "orientation", "trial_type": "intensity-85", "exp_stage": "adaptive_procedure", "decision_var": 3.4480818434015754, "response": "right", "rt": 0.3490844119951362, "FB": 0, "quest_estimate": 8.554182421729159, "trial_time": 3.1674108229926787}
{"FBDuration": 0.5, "FBonset": 0, "ITI": 0.3115433827387504, "displayFB": true, "onset": 38.064430133198464, "punishment_amount": 0, "responseWindow": 1.5, "reward_amount": 1, "stim": {"motionDirection": "out", "oriBase": -60, "oriDirection": -1, "oriStrength": 0.775, "speedDirection": -1, "speedStrength": 0.775, "speed_start": 0.12, "speed_end": 0.11185844430674317, "ori_start": -60, "ori_end": -64.10091370685, "motion_direction": "out"}, "stimResponseInterval": 0.08981281185452916, "stimulusDuration": 1.5, "trial_count": 9, "ts": "orientation", "trial_type": "intensity-91", "exp_stage": "adaptive_procedure", "decision_var": 4.100913706849989, "response": "left", "rt": 0.5227996519970475, "FB": 1, "quest_estimate": 8.554169420237422, "trial_time": 2.6379834319959627}
{"FBDuration": 0.5, "FBonset": 0, "ITI": 0.24200735068271728, "displayFB": true, "onset": 41.96578632779174, "punishment_amount": 0, "responseWindow": 1.5, "reward_amount": 1, "stim": {"motionDirection": "out", "oriBase": -60, "oriDirection": 1, "oriStrength": 0.775, "speedDirection": -1, "speedStrength": 0.775, "speed_start": 0.12, "speed_end": 0.11185844430674317, "ori_start": -60, "ori_end": -57.08558834998924, "motion_direction": "out"}, "stimResponseInterval": 0.4243653240049864, "stimulusDuration": 1.5, "trial_count": 10, "ts": "orientation", "trial_type": "intensity-70", "exp_stage": "adaptive_procedure", "decision_var": 2.914411650010764, "response": "right", "rt": 0.26747508499829564, "FB": 1, "quest_estimate": 8.554169143239744, "trial_time": 2.7314251430070726}
{"FBDuration": 0.5, "FBonset": 0, "ITI": 0.7536047659145129, "displayFB": true, "onset": 46.13215900247944, "punishment_amount": 0, "responseWindow": 1.5, "reward_amount": 1, "stim": {"motionDirection": "out", "oriBase": -60, "oriDirection": -1, "oriStrength": 0.775, "speedDirection": 1, "speedStrength": 0.775, "speed_start": 0.12, "speed_end": 0.1281415556932568, "ori_start": -60, "ori_end": -63.448081843401575, "motion_direction": "out"}, "stimResponseInterval": 0.9904124682679019, "stimulusDuration": 1.5, "trial_count": 11, "ts": "orientation", "trial_type": "intensity-85", "exp_stage": "adaptive_procedure", "decision_var": 3.4480818434015754, "response": "right", "rt": 0.3820910650101723, "FB": 0, "quest_estimate": 8.554179213531224, "trial_time": 3.4119482090027304}
{"FBDuration": 0.5, "FBonset": 0, "ITI": 0.7656242000650106, "displayFB": true, "onset": 51.376176236661856, "punishment_amount": 0, "responseWindow": 1.5, "reward_amount": 1, "stim": {"motionDirection": "out", "oriBase": 30, "oriDirection": 1, "oriStrength": 0.775, "speedDirection": 1, "speedStrength": 0.775, "speed_start": 0.12, "speed_end": 0.1281415556932568, "ori_start": 30, "ori_end": 34.10091370684999, "motion_direction": "out"}, "stimResponseInterval": 0.4382857790329827, "stimulusDuration": 1.5, "trial_count": 12, "ts": "orientation", "trial_type": "intensity-91", "exp_stage": "adaptive_procedure", "decision_var": 4.100913706849989, "response": "right", "rt": 0.295997677007108, "FB": 1, "quest_estimate": 8.55416309581608, "trial_time": 2.7604188550030813}
{"FBDuration": 0.5, "FBonset": 0, "ITI": 0.1546333629434825, "displayFB": true, "onset": 56.08008621575985, "punishment_amount": 0, "responseWindow": 1.5, "reward_amount": 1, "stim": {"motionDirection": "out", "oriBase": -60, "oriDirection": 1, "oriStrength": 0.775, "speedDirection": -1, "speedStrength": 0.775, "speed_start": 0.12, "speed_end": 0.11185844430674317, "ori_start": -60, "ori_end": -56.551918156598425, "motion_direction": "out"}, "stimResponseInterval": 0.06288457591866725, "stimulusDuration": 1.5, "trial_count": 13, "ts": "orientation", "trial_type": "intensity-85", "exp_stage": "adaptive_procedure", "decision_var": 3.4480818434015754, "response": "left", "rt": 1.0137878449895652, "FB": 0, "quest_estimate": 8.554172389486425, "trial_time": 3.1306081670045387}
{"FBDuration": 0.5, "FBonset": 0, "ITI": 0.8156295182164315, "displayFB": true, "onset": 59.797604154622, "punishment_amount": 0, "responseWindow": 1.5, "reward_amount": 1, "stim": {"motionDirection": "out", "oriBase": -60, "oriDirection": -1, "oriStrength": 0.775, "speedDirection": -1, "speedStrength": 0.775, "speed_start": 0.12, "speed_end": 0.11185844430674317, "ori_start": -60, "ori_end": -62.53451363403935, "motion_direction": "out"}, "stimResponseInterval": 0.02272289241020986, "stimulusDuration": 1.5, "trial_count": 14, "ts": "orientation", "trial_type": "intensity-60", "exp_stage": "adaptive_procedure", "decision_var": 2.534513634039347, "response": "left", "rt": 0.7130383649928262, "FB": 1, "quest_estimate": 8.554172384662113, "trial_time": 2.7952390770078637}
{"FBDuration": 0.5, "FBonset": 0, "ITI": 0.6117376306906992, "displayFB": true, "onset": 64.13595656524865, "punishment_amount": 0, "responseWindow": 1.5, "reward_amount": 1, "stim": {"motionDirection": "in", "oriBase": 30, "oriDirection": -1, "oriStrength": 0.775, "speedDirection": 1, "speedStrength": 0.775, "speed_start": 0.12, "speed_end": 0.1281415556932568, "ori_start": 30, "ori_end": 27.085588349989237, "motion_direction": "in"}, "stimResponseInterval": 0.46418384864327855, "stimulusDuration": 1.5, "trial_count": 15, "ts": "orientation", "trial_type": "intensity-70", "exp_stage": "adaptive_procedure", "decision_var": 2.914411650010764, "response": "left", "rt": 0.2615063999983249, "FB": 1, "quest_estimate": 8.554172264001071, "trial_time": 2.7886527740047313}
{"FBDuration": 0.5, "FBonset": 0, "ITI": 0.751762442200576, "displayFB": true, "onset": 68.71187804458262, "punishment_amount": 0, "responseWindow": 1.5, "reward_amount": 1, "stim": {"motionDirection": "out", "oriBase": 30, "oriDirection": -1, "oriStrength": 0.775, "speedDirection": 1, "speedStrength": 0.775, "speed_start": 0.12, "speed_end": 0.1281415556932568, "ori_start": 30, "ori_end": 27.465486365960654, "motion_direction": "out"}, "stimResponseInterval": 0.9651118768721652, "stimulusDuration": 1.5, "trial_count": 16, "ts": "orientation", "trial_type": "intensity-60", "exp_stage": "adaptive_procedure", "decision_var": 2.534513634039347, "response": "left", "rt": 0.2814568690082524, "FB": 1, "quest_estimate": 8.554172259128482, "trial_time": 3.3275394740048796}
{"FBDuration": 0.5, "FBonset": 0, "ITI": 0.8970391786296683, "displayFB": true, "onset": 73.92875236365536, "punishment_amount": 0, "responseWindow": 1.5, "reward_amount": 1, "stim": {"motionDirection": "out", "oriBase": -60, "oriDirection": 1, "oriStrength": 0.775, "speedDirection": 1, "speedStrength": 0.775, "speed_start": 0.12, "speed_end": 0.1281415556932568, "ori_start": -60, "ori_end": -57.46548636596065, "motion_direction": "out"}, "stimResponseInterval": 0.988747830467529, "stimulusDuration": 1.5, "trial_count": 17, "ts": "orientation", "trial_type": "intensity-60", "exp_stage": "adaptive_procedure", "decision_var": 2.534513634039347, "response": "right", "rt": 0.2929838100099005, "FB": 1, "quest_estimate": 8.55417225425402, "trial_time": 3.3421227390062995}
{"FBDuration": 0.5, "FBonset": 0, "ITI": 0.42148900154543956, "displayFB": true, "onset": 79.31453937275256, "punishment_amount": 0, "responseWindow": 1.5, "reward_amount": 1, "stim": {"motionDirection": "in", "oriBase": 30, "oriDirection": -1, "oriStrength": 0.775, "speedDirection": 1, "speedStrength": 0.775, "speed_start": 0.12, "speed_end": 0.1281415556932568, "ori_start": 30, "ori_end": 26.551918156598425, "motion_direction": "in"}, "stimResponseInterval": 0.7184307019628386, "stimulusDuration": 1.5, "trial_count": 18, "ts": "orientation", "trial_type": "intensity-85", "exp_stage": "adaptive_procedure", "decision_var": 3.4480818434015754, "response": "left", "rt": 0.24890561500797048, "FB": 1, "quest_estimate": 8.554166859115828, "trial_time": 3.037875645997701}
{"FBDuration": 0.5, "FBonset": 0, "ITI": 0.4894433841021695, "displayFB": true, "onset": 83.95445907626085, "punishment_amount": 0, "responseWindow": 1.5, "reward_amount": 1, "stim": {"motionDirection": "out", "oriBase": -60, "oriDirection": -1, "oriStrength": 0.775, "speedDirection": -1, "speedStrength": 0.775, "speed_start": 0.12, "speed_end": 0.11185844430674317, "ori_start": -60, "ori_end": -63.448081843401575, "motion_direction": "out"}, "stimResponseInterval": 0.2238670018078548, "stimulusDuration": 1.5, "trial_count": 19, "ts": "orientation", "trial_type": "intensity-85", "exp_stage": "adaptive_procedure", "decision_var": 3.4480818434015754, "response": "right", "rt": 0.32596102099341806, "FB": 0, "quest_estimate": 8.554174167701984, "trial_time": 2.6130880010023247}
{"FBDuration": 0.5, "FBonset": 0, "ITI": 0.5711188693696037, "displayFB": true, "onset": 88.16776946217087, "punishment_amount": 0, "responseWindow": 1.5, "reward_amount": 1, "stim": {"motionDirection": "in", "oriBase": -60, "oriDirection": -1, "oriStrength": 0.775, "speedDirection": 1, "speedStrength": 0.775, "speed_start": 0.12, "speed_end": 0.1281415556932568, "ori_start": -60, "ori_end": -64.10091370685, "motion_direction": "in"}, "stimResponseInterval": 0.6636375037295648, "stimulusDuration": 1.5, "trial_count": 20, "ts": "orientation", "trial_type": "intensity-91", "exp_stage": "adaptive_procedure", "decision_var": 4.100913706849989, "response": "left", "rt": 0.2559179499949096, "FB": 1, "quest_estimate": 8.554153144548646, "trial_time": 2.981290113006253}
{"FBDuration": 0.5, "FBonset": 0, "ITI": 0.9386274609538678, "displayFB": true, "onset": 92.90252583527004, "punishment_amount": 0, "responseWindow": 1.5, "reward_amount": 1, "stim": {"motionDirection": "out", "oriBase": -60, "oriDirection": 1, "oriStrength": 0.775, "speedDirection": -1, "speedStrength": 0.775, "speed_start": 0.12, "speed_end": 0.11185844430674317, "ori_start": -60, "ori_end": -57.08558834998924, "motion_direction": "out"}, "stimResponseInterval": 0.5218414786225409, "stimulusDuration": 1.5, "trial_count": 21, "ts": "orientation", "trial_type": "intensity-70", "exp_stage": "adaptive_procedure", "decision_var": 2.914411650010764, "response": "right", "rt": 0.27221881999867037, "FB": 1, "quest_estimate": 8.554152946065734, "trial_time": 2.8617000709928107}
{"FBDuration": 0.5, "FBonset": 0, "ITI": 0.6436070366173108, "displayFB": true, "onset": 97.86299477484644, "punishment_amount": 0, "responseWindow": 1.5, "reward_amount": 1, "stim": {"motionDirection": "out", "oriBase": 30, "oriDirection": -1, "oriStrength": 0.775, "speedDirection": 1, "speedStrength": 0.775, "speed_start": 0.12, "speed_end": 0.1281415556932568, "ori_start": 30, "ori_end": 26.551918156598425, "motion_direction": "out"}, "stimResponseInterval": 0.7891706807216303, "stimulusDuration": 1.5, "trial_count": 22, "ts": "orientation", "trial_type": "intensity-85", "exp_stage": "adaptive_procedure", "decision_var": 3.4480818434015754, "response": "left", "rt": 0.22305356799915899, "FB": 1, "quest_estimate": 8.554143836408631, "trial_time": 3.082715014999849}
{"FBDuration": 0.5, "FBonset": 0, "ITI": 0.10666144050142368, "displayFB": true, "onset": 102.79577249218538, "punishment_amount": 0, "responseWindow": 1.5, "reward_amount": 1, "stim": {"motionDirection": "out", "oriBase": 30, "oriDirection": -1, "oriStrength": 0.775, "speedDirection": -1, "speedStrength": 0.775, "speed_start": 0.12, "speed_end": 0.11185844430674317, "ori_start": 30, "ori_end": 27.085588349989237, "motion_direction": "out"}, "stimResponseInterval": 0.8541844014996967, "stimulusDuration": 1.5, "trial_count": 23, "ts": "orientation", "trial_type": "intensity-70", "exp_stage": "adaptive_procedure", "decision_var": 2.914411650010764, "response": "left", "rt": 0.25432135300070513, "FB": 1, "quest_estimate": 8.554143566721045, "trial_time": 3.181488556001568}
{"FBDuration": 0.5, "FBonset": 0, "ITI": 0.5813978233950539, "displayFB": true, "onset": 107.2566183341865, "punishment_amount": 0, "responseWindow": 1.5, "reward_amount": 1, "stim": {"motionDirection": "in", "oriBase": 30, "oriDirection": -1, "oriStrength": 0.775, "speedDirection": -1, "speedStrength": 0.775, "speed_start": 0.12, "speed_end": 0.11185844430674317, "ori_start": 30, "ori_end": 27.465486365960654, "motion_direction": "in"}, "stimResponseInterval": 0.7615054337187339, "stimulusDuration": 1.5, "trial_count": 24, "ts": "orientation", "trial_type": "intensity-60", "exp_stage": "adaptive_procedure", "decision_var": 2.534513634039347, "response": "left", "rt": 0.2435702479997417, "FB": 1, "quest_estimate": 8.554143555839715, "trial_time": 3.0525477429910097}
{"FBDuration": 0.5, "FBonset": 0, "ITI": 0.5535154351018416, "displayFB": true, "onset": 112.09952159130029, "punishment_amount": 0, "responseWindow": 1.5, "reward_amount": 1, "stim": {"motionDirection": "in", "oriBase": -60, "oriDirection": -1, "oriStrength": 0.775, "speedDirection": -1, "speedStrength": 0.775, "speed_start": 0.12, "speed_end": 0.11185844430674317, "ori_start": -60, "ori_end": -62.53451363403935, "motion_direction": "in"}, "stimResponseInterval": 0.9342943065141633, "stimulusDuration": 1.5, "trial_count": 25, "ts": "orientation", "trial_type": "intensity-60", "exp_stage": "adaptive_procedure", "decision_var": 2.534513634039347, "response": "right", "rt": 0.245304527998087, "FB": 0, "quest_estimate": 8.554143566725003, "trial_time": 3.2410455479985103}
{"FBDuration": 0.5, "FBonset": 0, "ITI": 0.6830881568493423, "displayFB": true, "onset": 117.08733133291629, "punishment_amount": 0, "responseWindow": 1.5, "reward_amount": 1, "stim": {"motionDirection": "in", "oriBase": -60, "oriDirection": 1, "oriStrength": 0.775, "speedDirection": -1, "speedStrength": 0.775, "speed_start": 0.12, "speed_end": 0.11185844430674317, "ori_start": -60, "ori_end": -57.46548636596065, "motion_direction": "in"}, "stimResponseInterval": 0.9566029699762673, "stimulusDuration": 1.5, "trial_count": 26, "ts": "orientation", "trial_type": "intensity-60", "exp_stage": "adaptive_procedure", "decision_var": 2.534513634039347, "response": "right", "rt": 0.22907481899892446, "FB": 1, "quest_estimate": 8.55414355584367, "trial_time": 3.234756603007554}
{"FBDuration": 0.5, "FBonset": 0, "ITI": 0.3330558095337005, "displayFB": true, "onset": 122.2270224597419, "punishment_amount": 0, "responseWindow": 1.5, "reward_amount": 1, "stim": {"motionDirection": "out", "oriBase": -60, "oriDirection": 1, "oriStrength": 0.775, "speedDirection": 1, "speedStrength": 0.775, "speed_start": 0.12, "speed_end": 0.1281415556932568, "ori_start": -60, "ori_end": -57.46548636596065, "motion_direction": "out"}, "stimResponseInterval": 0.7150057998853017, "stimulusDuration": 1.5, "trial_count": 27, "ts": "orientation", "trial_type": "intensity-60", "exp_stage": "adaptive_procedure", "decision_var": 2.534513634039347, "response": "right", "rt": 0.26447540600202046, "FB": 1, "quest_estimate": 8.55414354495839, "trial_time": 3.059940203005681}
{"FBDuration": 0.5, "FBonset": 0, "ITI": 0.6405603838543419, "displayFB": true, "onset": 126.77508406916091, "punishment_amount": 0, "responseWindow": 1.5, "reward_amount": 1, "stim": {"motionDirection": "out", "oriBase": -60, "oriDirection": -1, "oriStrength": 0.775, "speedDirection": 1, "speedStrength": 0.775, "speed_start": 0.12, "speed_end": 0.1281415556932568, "ori_start": -60, "ori_end": -63.448081843401575, "motion_direction": "out"}, "stimResponseInterval": 0.8931990849308944, "stimulusDuration": 1.5, "trial_count": 28, "ts": "orientation", "trial_type": "intensity-85", "exp_stage": "adaptive_procedure", "decision_var": 3.4480818434015754, "response": "left", "rt": 0.22314110399747733, "FB": 1, "quest_estimate": 8.554131361776818, "trial_time": 3.1768817709962605}
{"FBDuration": 0.5, "FBonset": 0, "ITI": 0.8379722284533824, "displayFB": true, "onset": 131.80884353794616, "punishment_amount": 0, "responseWindow": 1.5, "reward_amount": 1, "stim": {"motionDirection": "in", "oriBase": -60, "oriDirection": -1, "oriStrength": 0.775, "speedDirection": -1, "speedStrength": 0.775, "speed_start": 0.12, "speed_end": 0.11185844430674317, "ori_start": -60, "ori_end": -64.10091370685, "motion_direction": "in"}, "stimResponseInterval": 0.36746200739438606, "stimulusDuration": 1.5, "trial_count": 29, "ts": "orientation", "trial_type": "intensity-91", "exp_stage": "adaptive_procedure", "decision_var": 4.100913706849989, "response": "right", "rt": 0.315848650992848, "FB": 0, "quest_estimate": 8.55419461892933, "trial_time": 2.757930142994155}
{"FBDuration": 0.5, "FBonset": 0, "ITI": 0.15776799484963777, "displayFB": true, "onset": 136.51427777379394, "punishment_amount": 0, "responseWindow": 1.5, "reward_amount": 1, "stim": {"motionDirection": "in", "oriBase": 30, "oriDirection": 1, "oriStrength": 0.775, "speedDirection": 1, "speedStrength": 0.775, "speed_start": 0.12, "speed_end": 0.1281415556932568, "ori_start": 30, "ori_end": 32.91441165001076, "motion_direction": "in"}, "stimResponseInterval": 0.21134680511569415, "stimulusDuration": 1.5, "trial_count": 30, "ts": "orientation", "trial_type": "intensity-70", "exp_stage": "adaptive_procedure", "decision_var": 2.914411650010764, "response": "left", "rt": 0.346974025000236, "FB": 0, "quest_estimate": 8.554194622689888, "trial_time": 2.601035696003237}
{"FBDuration": 0.5, "FBonset": 0, "ITI": 0.996501880949509, "displayFB": true, "onset": 140.38339257375927, "punishment_amount": 0, "responseWindow": 1.5, "reward_amount": 1, "stim": {"motionDirection": "out", "oriBase": 30, "oriDirection": 1, "oriStrength": 0.775, "speedDirection": -1, "speedStrength": 0.775, "speed_start": 0.12, "speed_end": 0.11185844430674317, "ori_start": 30, "ori_end": 32.53451363403935, "motion_direction": "out"}, "stimResponseInterval": 0.7316924098978672, "stimulusDuration": 1.5, "trial_count": 31, "ts": "orientation", "trial_type": "intensity-60", "exp_stage": "adaptive_procedure", "decision_var": 2.534513634039347, "response": "left", "rt": 0.21437355600937735, "FB": 0, "quest_estimate": 8.55419462283885, "trial_time": 3.0303682859957917}
{"FBDuration": 0.5, "FBonset": 0, "ITI": 0.7931742547269229, "displayFB": true, "onset": 145.61158686460664, "punishment_amount": 0, "responseWindow": 1.5, "reward_amount": 1, "stim": {"motionDirection": "in", "oriBase": 30, "oriDirection": 1, "oriStrength": 0.775, "speedDirection": -1, "speedStrength": 0.775, "speed_start": 0.12, "speed_end": 0.11185844430674317, "ori_start": 30, "ori_end": 32.53451363403935, "motion_direction": "in"}, "stimResponseInterval": 0.10486013916542913, "stimulusDuration": 1.5, "trial_count": 32, "ts": "orientation", "trial_type": "intensity-60", "exp_stage": "adaptive_procedure", "decision_var": 2.534513634039347, "response": "right", "rt": 0.3503083789983066, "FB": 1, "quest_estimate": 8.554194622689945, "trial_time": 2.5338496180047514}
{"FBDuration": 0.5, "FBonset": 0, "ITI": 0.868176852095849, "displayFB": true, "onset": 150.00962125849898, "punishment_amount": 0, "responseWindow": 1.5, "reward_amount": 1, "stim": {"motionDirection": "in", "oriBase": -60, "oriDirection": -1, "oriStrength": 0.775, "speedDirection": 1, "speedStrength": 0.775, "speed_start": 0.12, "speed_end": 0.1281415556932568, "ori_start": -60, "ori_end": -62.91441165001076, "motion_direction": "in"}, "stimResponseInterval": 0.5930857723129379, "stimulusDuration": 1.5, "trial_count": 33, "ts": "orientation", "trial_type": "intensity-70", "exp_stage": "adaptive_procedure", "decision_var": 2.914411650010764, "response": "right", "rt": 0.23694859600800555, "FB": 0, "quest_estimate": 8.554194626413981, "trial_time": 2.884115623004618}
{"FBDuration": 0.5, "FBonset": 0, "ITI": 0.6105357822405411, "displayFB": true, "onset": 154.97088388290777, "punishment_amount": 0, "responseWindow": 1.5, "reward_amount": 1, "stim": {"motionDirection": "in", "oriBase": 30, "oriDirection": -1, "oriStrength": 0.775, "speedDirection": -1, "speedStrength": 0.775, "speed_start": 0.12, "speed_end": 0.11185844430674317, "ori_start": 30, "ori_end": 26.551918156598425, "motion_direction": "in"}, "stimResponseInterval": 0.10255523525500732, "stimulusDuration": 1.5, "trial_count": 34, "ts": "orientation", "trial_type": "intensity-85", "exp_stage": "adaptive_procedure", "decision_var": 3.4480818434015754, "response": "left", "rt": 0.6752845980081474, "FB": 1, "quest_estimate": 8.554194463625205, "trial_time": 2.8377787089993944}
{"FBDuration": 0.5, "FBonset": 0, "ITI": 0.764739520741198, "displayFB": true, "onset": 159.1839749004033, "punishment_amount": 0, "responseWindow": 1.5, "reward_amount": 1, "stim": {"motionDirection": "in", "oriBase": -60, "oriDirection": 1, "oriStrength": 0.775, "speedDirection": -1, "speedStrength": 0.775, "speed_start": 0.12, "speed_end": 0.11185844430674317, "ori_start": -60, "ori_end": -57.46548636596065, "motion_direction": "in"}, "stimResponseInterval": 0.2454466400055637, "stimulusDuration": 1.5, "trial_count": 35, "ts": "orientation", "trial_type": "intensity-60", "exp_stage": "adaptive_procedure", "decision_var": 2.534513634039347, "response": "right", "rt": 0.29815961098938715, "FB": 1, "quest_estimate": 8.554194463420416, "trial_time": 2.6065259110037005}
{"FBDuration": 0.5, "FBonset": 0, "ITI": 0.5877368790190043, "displayFB": true, "onset": 163.69416106115008, "punishment_amount": 0, "responseWindow": 1.5, "reward_amount": 1, "stim": {"motionDirection": "in", "oriBase": -60, "oriDirection": 1, "oriStrength": 0.775, "speedDirection": 1, "speedStrength": 0.775, "speed_start": 0.12, "speed_end": 0.1281415556932568, "ori_start": -60, "ori_end": -55.89908629315001, "motion_direction": "in"}, "stimResponseInterval": 0.5016805802724398, "stimulusDuration": 1.5, "trial_count": 36, "ts": "orientation", "trial_type": "intensity-91", "exp_stage": "adaptive_procedure", "decision_var": 4.100913706849989, "response": "right", "rt": 0.27647776500089094, "FB": 1, "quest_estimate": 8.554193448993608, "trial_time": 2.8446512060036184}
{"FBDuration": 0.5, "FBonset": 0, "ITI": 0.934264772977702, "displayFB": true, "onset": 168.28357852044152, "punishment_amount": 0, "responseWindow": 1.5, "reward_amount": 1, "stim": {"motionDirection": "out", "oriBase": -60, "oriDirection": 1, "oriStrength": 0.775, "speedDirection": 1, "speedStrength": 0.775, "speed_start": 0.12, "speed_end": 0.1281415556932568, "ori_start": -60, "ori_end": -57.08558834998924, "motion_direction": "out"}, "stimResponseInterval": 0.7211743784646711, "stimulusDuration": 1.5, "trial_count": 37, "ts": "orientation", "trial_type": "intensity-70", "exp_stage": "adaptive_procedure", "decision_var": 2.914411650010764, "response": "right", "rt": 0.27610308000294026, "FB": 1, "quest_estimate": 8.55419343881199, "trial_time": 3.053507267002715}
{"FBDuration": 0.5, "FBonset": 0, "ITI": 0.4704738417761717, "displayFB": true, "onset": 173.4390176718839, "punishment_amount": 0, "responseWindow": 1.5, "reward_amount": 1, "stim": {"motionDirection": "in", "oriBase": 30, "oriDirection": -1, "oriStrength": 0.775, "speedDirection": 1, "speedStrength": 0.775, "speed_start": 0.12, "speed_end": 0.1281415556932568, "ori_start": 30, "ori_end": 27.085588349989237, "motion_direction": "in"}, "stimResponseInterval": 0.7813379064002661, "stimulusDuration": 1.5, "trial_count": 38, "ts": "orientation", "trial_type": "intensity-70", "exp_stage": "adaptive_procedure", "decision_var": 2.914411650010764, "response": "left", "rt": 0.27507643299759366, "FB": 1, "quest_estimate": 8.554193428524421, "trial_time": 3.1295626770006493}
{"FBDuration": 0.5, "FBonset": 0, "ITI": 0.7991564835573635, "displayFB": true, "onset": 178.19082942006034, "punishment_amount": 0, "responseWindow": 1.5, "reward_amount": 1, "stim": {"motionDirection": "in", "oriBase": -60, "oriDirection": -1, "oriStrength": 0.775, "speedDirection": 1, "speedStrength": 0.775, "speed_start": 0.12, "speed_end": 0.1281415556932568, "ori_start": -60, "ori_end": -63.448081843401575, "motion_direction": "in"}, "stimResponseInterval": 0.3807654914013844, "stimulusDuration": 1.5, "trial_count": 39, "ts": "orientation", "trial_type": "intensity-85", "exp_stage": "adaptive_procedure", "decision_var": 3.4480818434015754, "response": "left", "rt": 0.46499338699504733, "FB": 1, "quest_estimate": 8.554192978899412, "trial_time": 2.9095261709881015}
{"FBDuration": 0.5, "FBonset": 0, "ITI": 0.7459180853723912, "displayFB": true, "onset": 182.87075139501908, "punishment_amount": 0, "responseWindow": 1.5, "reward_amount": 1, "stim": {"motionDirection": "out", "oriBase": 30, "oriDirection": 1, "oriStrength": 0.775, "speedDirection": -1, "speedStrength": 0.775, "speed_start": 0.12, "speed_end": 0.11185844430674317, "ori_start": 30, "ori_end": 34.10091370684999, "motion_direction": "out"}, "stimResponseInterval": 0.2817601145602904, "stimulusDuration": 1.5, "trial_count": 40, "ts": "orientation", "trial_type": "intensity-91", "exp_stage": "adaptive_procedure", "decision_var": 4.100913706849989, "response": "right", "rt": 0.35435041999153327, "FB": 1, "quest_estimate": 8.554190576075712, "trial_time": 2.711251237997203}
{"FBDuration": 0.5, "FBonset": 0, "ITI": 0.7107141852602425, "displayFB": true, "onset": 187.39842959495178, "punishment_amount": 0, "responseWindow": 1.5, "reward_amount": 1, "stim": {"motionDirection": "in", "oriBase": -60, "oriDirection": 1, "oriStrength": 0.775, "speedDirection": 1, "speedStrength": 0.775, "speed_start": 0.12, "speed_end": 0.1281415556932568, "ori_start": -60, "ori_end": -57.08558834998924, "motion_direction": "in"}, "stimResponseInterval": 0.4634057060733554, "stimulusDuration": 1.5, "trial_count": 41, "ts": "orientation", "trial_type": "intensity-70", "exp_stage": "adaptive_procedure", "decision_var": 2.914411650010764, "response": "right", "rt": 0.3128948359953938, "FB": 1, "quest_estimate": 8.554190546851402, "trial_time": 2.831915194998146}
{"FBDuration": 0.5, "FBonset": 0, "ITI": 0.06184904132950342, "displayFB": true, "onset": 192.07254948628537, "punishment_amount": 0, "responseWindow": 1.5, "reward_amount": 1, "stim": {"motionDirection": "out", "oriBase": 30, "oriDirection": -1, "oriStrength": 0.775, "speedDirection": 1, "speedStrength": 0.775, "speed_start": 0.12, "speed_end": 0.1281415556932568, "ori_start": 30, "ori_end": 26.551918156598425, "motion_direction": "out"}, "stimResponseInterval": 0.09801086677662585, "stimulusDuration": 1.5, "trial_count": 42, "ts": "orientation", "trial_type": "intensity-85", "exp_stage": "adaptive_procedure", "decision_var": 3.4480818434015754, "response": "left", "rt": 0.36196992799523287, "FB": 1, "quest_estimate": 8.554189293614218, "trial_time": 2.5227246759895934}
{"FBDuration": 0.5, "FBonset": 0, "ITI": 0.03287318516617399, "displayFB": true, "onset": 195.7324093943915, "punishment_amount": 0, "responseWindow": 1.5, "reward_amount": 1, "stim": {"motionDirection": "out", "oriBase": 30, "oriDirection": 1, "oriStrength": 0.775, "speedDirection": -1, "speedStrength": 0.775, "speed_start": 0.12, "speed_end": 0.11185844430674317, "ori_start": 30, "ori_end": 33.448081843401575, "motion_direction": "out"}, "stimResponseInterval": 0.42003018077886234, "stimulusDuration": 1.5, "trial_count": 43, "ts": "orientation", "trial_type": "intensity-85", "exp_stage": "adaptive_procedure", "decision_var": 3.4480818434015754, "response": "right", "rt": 0.20812614999886137, "FB": 1, "quest_estimate": 8.554187526126995, "trial_time": 2.6950301700126147}
{"FBDuration": 0.5, "FBonset": 0, "ITI": 0.6231003281962857, "displayFB": true, "onset": 199.68531276033656, "punishment_amount": 0, "responseWindow": 1.5, "reward_amount": 1, "stim": {"motionDirection": "out", "oriBase": 30, "oriDirection": -1, "oriStrength": 0.775, "speedDirection": 1, "speedStrength": 0.775, "speed_start": 0.12, "speed_end": 0.1281415556932568, "ori_start": 30, "ori_end": 25.899086293150013, "motion_direction": "out"}, "stimResponseInterval": 0.7150491752687784, "stimulusDuration": 1.5, "trial_count": 44, "ts": "orientation", "trial_type": "intensity-91", "exp_stage": "adaptive_procedure", "decision_var": 4.100913706849989, "response": "left", "rt": 0.23622068599797785, "FB": 1, "quest_estimate": 8.554179846636181, "trial_time": 3.0239093499985756}
{"FBDuration": 0.5, "FBonset": 0, "ITI": 0.39856569085802984, "displayFB": true, "onset": 204.52346226380163, "punishment_amount": 0, "responseWindow": 1.5, "reward_amount": 1, "stim": {"motionDirection": "in", "oriBase": 30, "oriDirection": -1, "oriStrength": 0.775, "speedDirection": -1, "speedStrength": 0.775, "speed_start": 0.12, "speed_end": 0.11185844430674317, "ori_start": 30, "ori_end": 26.551918156598425, "motion_direction": "in"}, "stimResponseInterval": 0.017201827093666577, "stimulusDuration": 1.5, "trial_count": 45, "ts": "orientation", "trial_type": "intensity-85", "exp_stage": "adaptive_procedure", "decision_var": 3.4480818434015754, "response": "left", "rt": 0.43478183100523893, "FB": 1, "quest_estimate": 8.554174810929403, "trial_time": 2.517543519003084}
{"FBDuration": 0.5, "FBonset": 0, "ITI": 0.1663332827467382, "displayFB": true, "onset": 208.43922978175334, "punishment_amount": 0, "responseWindow": 1.5, "reward_amount": 1, "stim": {"motionDirection": "in", "oriBase": 30, "oriDirection": -1, "oriStrength": 0.775, "speedDirection": -1, "speedStrength": 0.775, "speed_start": 0.12, "speed_end": 0.11185844430674317, "ori_start": 30, "ori_end": 27.465486365960654, "motion_direction": "in"}, "stimResponseInterval": 0.13837235133932335, "stimulusDuration": 1.5, "trial_count": 46, "ts": "orientation", "trial_type": "intensity-60", "exp_stage": "adaptive_procedure", "decision_var": 2.534513634039347, "response": "left", "rt": 0.2720045940077398, "FB": 1, "quest_estimate": 8.554174803601189, "trial_time": 2.483716179005569}
{"FBDuration": 0.5, "FBonset": 0, "ITI": 0.6237356669186407, "displayFB": true, "onset": 212.2439354158394, "punishment_amount": 0, "responseWindow": 1.5, "reward_amount": 1, "stim": {"motionDirection": "in", "oriBase": 30, "oriDirection": 1, "oriStrength": 0.775, "speedDirection": -1, "speedStrength": 0.775, "speed_start": 0.12, "speed_end": 0.11185844430674317, "ori_start": 30, "ori_end": 33.448081843401575, "motion_direction": "in"}, "stimResponseInterval": 0.24438998211892027, "stimulusDuration": 1.5, "trial_count": 47, "ts": "orientation", "trial_type": "intensity-85", "exp_stage": "adaptive_procedure", "decision_var": 3.4480818434015754, "response": "right", "rt": 0.288888359995326, "FB": 1, "quest_estimate": 8.554167481458595, "trial_time": 2.5941963070072234}
{"FBDuration": 0.5, "FBonset": 0, "ITI": 0.6843436632408402, "displayFB": true, "onset": 216.61206106487694, "punishment_amount": 0, "responseWindow": 1.5, "reward_amount": 1, "stim": {"motionDirection": "out", "oriBase": 30, "oriDirection": 1, "oriStrength": 0.775, "speedDirection": 1, "speedStrength": 0.775, "speed_start": 0.12, "speed_end": 0.1281415556932568, "ori_start": 30, "ori_end": 32.53451363403935, "motion_direction": "out"}, "stimResponseInterval": 0.9043247081895587, "stimulusDuration": 1.5, "trial_count": 48, "ts": "orientation", "trial_type": "intensity-60", "exp_stage": "adaptive_procedure", "decision_var": 2.534513634039347, "response": "right", "rt": 0.2630416600004537, "FB": 1, "quest_estimate": 8.554167470433551, "trial_time": 3.2409764000040013}
{"FBDuration": 0.5, "FBonset": 0, "ITI": 0.07595611465461061, "displayFB": true, "onset": 221.70072943630734, "punishment_amount": 0, "responseWindow": 1.5, "reward_amount": 1, "stim": {"motionDirection": "out", "oriBase": 30, "oriDirection": -1, "oriStrength": 0.775, "speedDirection": -1, "speedStrength": 0.775, "speed_start": 0.12, "speed_end": 0.11185844430674317, "ori_start": 30, "ori_end": 27.085588349989237, "motion_direction": "out"}, "stimResponseInterval": 0.3339691308665532, "stimulusDuration": 1.5, "trial_count": 49, "ts": "orientation", "trial_type": "intensity-70", "exp_stage": "adaptive_procedure", "decision_var": 2.914411650010764, "response": "left", "rt": 0.25608366800588556, "FB": 1, "quest_estimate": 8.554167195315294, "trial_time": 2.6507318950025365}
{"FBDuration": 0.5, "FBonset": 0, "ITI": 0.2407569440072197, "displayFB": true, "onset": 225.6106546818285, "punishment_amount": 0, "responseWindow": 1.5, "reward_amount": 1, "stim": {"motionDirection": "in", "oriBase": 30, "oriDirection": -1, "oriStrength": 0.775, "speedDirection": 1, "speedStrength": 0.775, "speed_start": 0.12, "speed_end": 0.1281415556932568, "ori_start": 30, "ori_end": 25.899086293150013, "motion_direction": "in"}, "stimResponseInterval": 0.36717396642200706, "stimulusDuration": 1.5, "trial_count": 50, "ts": "orientation", "trial_type": "intensity-91", "exp_stage": "adaptive_procedure", "decision_var": 4.100913706849989, "response": "left", "rt": 0.24061446999257896, "FB": 1, "quest_estimate": 8.55413957460733, "trial_time": 2.672751320002135}
{"FBDuration": 0.5, "FBonset": 0, "ITI": 0.689214030037963, "displayFB": true, "onset": 229.7185855922577, "punishment_amount": 0, "responseWindow": 1.5, "reward_amount": 1, "stim": {"motionDirection": "in", "oriBase": -60, "oriDirection": 1, "oriStrength": 0.775, "speedDirection": 1, "speedStrength": 0.775, "speed_start": 0.12, "speed_end": 0.1281415556932568, "ori_start": -60, "ori_end": -55.89908629315001, "motion_direction": "in"}, "stimResponseInterval": 0.15933978161919027, "stimulusDuration": 1.5, "trial_count": 51, "ts": "orientation", "trial_type": "intensity-91", "exp_stage": "adaptive_procedure", "decision_var": 4.100913706849989, "response": "right", "rt": 0.33695772499777377, "FB": 1, "quest_estimate": 8.554084896608654, "trial_time": 2.5633680280006956}
{"FBDuration": 0.5, "FBonset": 0, "ITI": 0.39858416022419685, "displayFB": true, "onset": 234.06713940391487, "punishment_amount": 0, "responseWindow": 1.5, "reward_amount": 1, "stim": {"motionDirection": "in", "oriBase": 30, "oriDirection": 1, "oriStrength": 0.775, "speedDirection": 1, "speedStrength": 0.775, "speed_start": 0.12, "speed_end": 0.1281415556932568, "ori_start": 30, "ori_end": 32.91441165001076, "motion_direction": "in"}, "stimResponseInterval": 0.005641485586903694, "stimulusDuration": 1.5, "trial_count": 52, "ts": "orientation", "trial_type": "intensity-70", "exp_stage": "adaptive_procedure", "decision_var": 2.914411650010764, "response": "right", "rt": 0.3416893190005794, "FB": 1, "quest_estimate": 8.554083791280444, "trial_time": 2.4133608539996203}
{"FBDuration": 0.5, "FBonset": 0, "ITI": 0.8948944036600297, "displayFB": true, "onset": 237.97136504972596, "punishment_amount": 0, "responseWindow": 1.5, "reward_amount": 1, "stim": {"motionDirection": "out", "oriBase": 30, "oriDirection": 1, "oriStrength": 0.775, "speedDirection": 1, "speedStrength": 0.775, "speed_start": 0.12, "speed_end": 0.1281415556932568, "ori_start": 30, "ori_end": 32.91441165001076, "motion_direction": "out"}, "stimResponseInterval": 0.044657212795929824, "stimulusDuration": 1.5, "trial_count": 53, "ts": "orientation", "trial_type": "intensity-70", "exp_stage": "adaptive_procedure", "decision_var": 2.914411650010764, "response": "right", "rt": 0.3902806870028144, "FB": 1, "quest_estimate": 8.554082669671097, "trial_time": 2.4910368050041143}
{"FBDuration": 0.5, "FBonset": 0, "ITI": 0.6367848693829146, "displayFB": true, "onset": 242.41091666618192, "punishment_amount": 0, "responseWindow": 1.5, "reward_amount": 1, "stim": {"motionDirection": "in", "oriBase": -60, "oriDirection": 1, "oriStrength": 0.775, "speedDirection": 1, "speedStrength": 0.775, "speed_start": 0.12, "speed_end": 0.1281415556932568, "ori_start": -60, "ori_end": -55.89908629315001, "motion_direction": "in"}, "stimResponseInterval": 0.44944275899981045, "stimulusDuration": 1.5, "trial_count": 54, "ts": "orientation", "trial_type": "intensity-91", "exp_stage": "adaptive_procedure", "decision_var": 4.100913706849989, "response": "right", "rt": 0.26950837900221813, "FB": 1, "quest_estimate": 8.553972115388643, "trial_time": 2.7997526210092474}
{"FBDuration": 0.5, "FBonset": 0, "ITI": 0.9818743955042106, "displayFB": true, "onset": 246.99714429456463, "punishment_amount": 0, "responseWindow": 1.5, "reward_amount": 1, "stim": {"motionDirection": "out", "oriBase": 30, "oriDirection": 1, "oriStrength": 0.775, "speedDirection": -1, "speedStrength": 0.775, "speed_start": 0.12, "speed_end": 0.11185844430674317, "ori_start": 30, "ori_end": 34.10091370684999, "motion_direction": "out"}, "stimResponseInterval": 0.04561994650787793, "stimulusDuration": 1.5, "trial_count": 55, "ts": "orientation", "trial_type": "intensity-91", "exp_stage": "adaptive_procedure", "decision_var": 4.100913706849989, "response": "right", "rt": 0.38737292400037404, "FB": 1, "quest_estimate": 8.55375286654753, "trial_time": 2.4953315619932255}
{"FBDuration": 0.5, "FBonset": 0, "ITI": 0.5714583160676385, "displayFB": true, "onset": 251.52463863657673, "punishment_amount": 0, "responseWindow": 1.5, "reward_amount": 1, "stim": {"motionDirection": "out", "oriBase": -60, "oriDirection": -1, "oriStrength": 0.775, "speedDirection": -1, "speedStrength": 0.775, "speed_start": 0.12, "speed_end": 0.11185844430674317, "ori_start": -60, "ori_end": -62.53451363403935, "motion_direction": "out"}, "stimResponseInterval": 0.8229727889351421, "stimulusDuration": 1.5, "trial_count": 56, "ts": "orientation", "trial_type": "intensity-60", "exp_stage": "adaptive_procedure", "decision_var": 2.534513634039347, "response": "left", "rt": 0.23857844198937528, "FB": 1, "quest_estimate": 8.55375268583133, "trial_time": 3.132616695991601}
{"FBDuration": 0.5, "FBonset": 0, "ITI": 0.008039166954946664, "displayFB": true, "onset": 256.4190697415795, "punishment_amount": 0, "responseWindow": 1.5, "reward_amount": 1, "stim": {"motionDirection": "out", "oriBase": -60, "oriDirection": -1, "oriStrength": 0.775, "speedDirection": 1, "speedStrength": 0.775, "speed_start": 0.12, "speed_end": 0.1281415556932568, "ori_start": -60, "ori_end": -62.53451363403935, "motion_direction": "out"}, "stimResponseInterval": 0.024600616642786344, "stimulusDuration": 1.5, "trial_count": 57, "ts": "orientation", "trial_type": "intensity-60", "exp_stage": "adaptive_procedure", "decision_var": 2.534513634039347, "response": "right", "rt": 0.398361521991319, "FB": 0, "quest_estimate": 8.553752866655692, "trial_time": 2.4865649480052525}
{"FBDuration": 0.5, "FBonset": 0, "ITI": 0.08245205881780349, "displayFB": true, "onset": 259.95170952517725, "punishment_amount": 0, "responseWindow": 1.5, "reward_amount": 1, "stim": {"motionDirection": "in", "oriBase": -60, "oriDirection": -1, "oriStrength": 0.775, "speedDirection": 1, "speedStrength": 0.775, "speed_start": 0.12, "speed_end": 0.1281415556932568, "ori_start": -60, "ori_end": -64.10091370685, "motion_direction": "in"}, "stimResponseInterval": 0.033075628776547905, "stimulusDuration": 1.5, "trial_count": 58, "ts": "orientation", "trial_type": "intensity-91", "exp_stage": "adaptive_procedure", "decision_var": 4.100913706849989, "response": "left", "rt": 0.3941505459952168, "FB": 1, "quest_estimate": 8.553317839652617, "trial_time": 2.485940672995639}
{"FBDuration": 0.5, "FBonset": 0, "ITI": 0.009404881935729748, "displayFB": true, "onset": 263.5672372127716, "punishment_amount": 0, "responseWindow": 1.5, "reward_amount": 1, "stim": {"motionDirection": "in", "oriBase": -60, "oriDirection": 1, "oriStrength": 0.775, "speedDirection": -1, "speedStrength": 0.775, "speed_start": 0.12, "speed_end": 0.11185844430674317, "ori_start": -60, "ori_end": -55.89908629315001, "motion_direction": "in"}, "stimResponseInterval": 0.2667566732169325, "stimulusDuration": 1.5, "trial_count": 59, "ts": "orientation", "trial_type": "intensity-91", "exp_stage": "adaptive_procedure", "decision_var": 4.100913706849989, "response": "right", "rt": 0.3343457019946072, "FB": 1, "quest_estimate": 8.552454405632613, "trial_time": 2.6692535710026277}
{"FBDuration": 0.5, "FBonset": 0, "ITI": 0.3121801613770213, "displayFB": true, "onset": 267.34339876792427, "punishment_amount": 0, "responseWindow": 1.5, "reward_amount": 1, "stim": {"motionDirection": "out", "oriBase": -60, "oriDirection": -1, "oriStrength": 0.775, "speedDirection": 1, "speedStrength": 0.775, "speed_start": 0.12, "speed_end": 0.1281415556932568, "ori_start": -60, "ori_end": -62.91441165001076, "motion_direction": "out"}, "stimResponseInterval": 0.5571711208396801, "stimulusDuration": 1.5, "trial_count": 60, "ts": "orientation", "trial_type": "intensity-70", "exp_stage": "adaptive_procedure", "decision_var": 2.914411650010764, "response": "right", "rt": 0.21858195700042415, "FB": 0, "quest_estimate": 8.552472241839538, "trial_time": 2.8416739179956494}
{"FBDuration": 0.5, "FBonset": 0, "ITI": 0.6292221111931031, "displayFB": true, "onset": 271.712750050141, "punishment_amount": 0, "responseWindow": 1.5, "reward_amount": 1, "stim": {"motionDirection": "in", "oriBase": 30, "oriDirection": 1, "oriStrength": 0.775, "speedDirection": -1, "speedStrength": 0.775, "speed_start": 0.12, "speed_end": 0.11185844430674317, "ori_start": 30, "ori_end": 34.10091370684999, "motion_direction": "in"}, "stimResponseInterval": 0.43007075028177777, "stimulusDuration": 1.5, "trial_count": 61, "ts": "orientation", "trial_type": "intensity-91", "exp_stage": "adaptive_procedure", "decision_var": 4.100913706849989, "response": "right", "rt": 0.23875133399269544, "FB": 1, "quest_estimate": 8.550775992403004, "trial_time": 2.7207711490045767}
{"FBDuration": 0.5, "FBonset": 0, "ITI": 0.8350100862154295, "displayFB": true, "onset": 276.27204291161587, "punishment_amount": 0, "responseWindow": 1.5, "reward_amount": 1, "stim": {"motionDirection": "out", "oriBase": 30, "oriDirection": 1, "oriStrength": 0.775, "speedDirection": 1, "speedStrength": 0.775, "speed_start": 0.12, "speed_end": 0.1281415556932568, "ori_start": 30, "ori_end": 32.53451363403935, "motion_direction": "out"}, "stimResponseInterval": 0.1379820171831223, "stimulusDuration": 1.5, "trial_count": 62, "ts": "orientation", "trial_type": "intensity-60", "exp_stage": "adaptive_procedure", "decision_var": 2.534513634039347, "response": "right", "rt": 0.32739109100657515, "FB": 1, "quest_estimate": 8.550774591198014, "trial_time": 2.526614663001965}
{"FBDuration": 0.5, "FBonset": 0, "ITI": 0.7472842946622269, "displayFB": true, "onset": 280.7450350150144, "punishment_amount": 0, "responseWindow": 1.5, "reward_amount": 1, "stim": {"motionDirection": "in", "oriBase": 30, "oriDirection": 1, "oriStrength": 0.775, "speedDirection": -1, "speedStrength": 0.775, "speed_start": 0.12, "speed_end": 0.11185844430674317, "ori_start": 30, "ori_end": 33.448081843401575, "motion_direction": "in"}, "stimResponseInterval": 0.19396599311446505, "stimulusDuration": 1.5, "trial_count": 63, "ts": "orientation", "trial_type": "intensity-85", "exp_stage": "adaptive_procedure", "decision_var": 3.4480818434015754, "response": "left", "rt": 0.3276479129999643, "FB": 0, "quest_estimate": 8.552143538903223, "trial_time": 2.5686983129999135}
{"FBDuration": 0.5, "FBonset": 0, "ITI": 0.8798781860623801, "displayFB": true, "onset": 285.18628530279113, "punishment_amount": 0, "responseWindow": 1.5, "reward_amount": 1, "stim": {"motionDirection": "out", "oriBase": 30, "oriDirection": -1, "oriStrength": 0.775, "speedDirection": -1, "speedStrength": 0.775, "speed_start": 0.12, "speed_end": 0.11185844430674317, "ori_start": 30, "ori_end": 25.899086293150013, "motion_direction": "out"}, "stimResponseInterval": 0.21691095176196662, "stimulusDuration": 1.5, "trial_count": 64, "ts": "orientation", "trial_type": "intensity-91", "exp_stage": "adaptive_procedure", "decision_var": 4.100913706849989, "response": "left", "rt": 0.4229751770035364, "FB": 1, "quest_estimate": 8.55012826185904, "trial_time": 2.709127123991493}
