{"FBDuration": 0.5, "FBonset": 0, "ITI": 0.40061961517707256, "displayFB": true, "onset": 2, "punishment_amount": 0, "responseWindow": 1.5, "reward_amount": 1, "stim": {"motionDirection": "in", "oriBase": 30, "oriDirection": 1, "oriStrength": 0.775, "speedDirection": -1, "speedStrength": 0.775, "speed_start": 0.12, "speed_end": 0.11346172716804265, "ori_start": 30, "ori_end": 38.55890378334356, "motion_direction": "in"}, "stimResponseInterval": 0.4119201924889092, "stimulusDuration": 1.5, "trial_count": 1, "ts": "orientation", "trial_type": "threshold_estimation", "exp_stage": "adaptive_procedure", "decision_var": 8.55890378334356, "response": "left", "rt": 0.27036553699872456, "FB": 0, "quest_estimate": 8.600151617549223, "trial_time": 2.7138573020056356}
{"FBDuration": 0.5, "FBonset": 0, "ITI": 0.5665989457762353, "displayFB": true, "onset": 6.312539807665981, "punishment_amount": 0, "responseWindow": 1.5, "reward_amount": 1, "stim": {"motionDirection": "out", "oriBase": 30, "oriDirection": -1, "oriStrength": 0.775, "speedDirection": 1, "speedStrength": 0.775, "speed_start": 0.12, "speed_end": 0.12653827283195734, "ori_start": 30, "ori_end": 21.440895174988963, "motion_direction": "out"}, "stimResponseInterval": 0.8752862762131661, "stimulusDuration": 1.5, "trial_count": 2, "ts": "orientation", "trial_type": "threshold_estimation", "exp_stage": "adaptive_procedure", "decision_var": 8.559104825011037, "response": "left", "rt": 0.2661403450038051, "FB": 1, "quest_estimate": 8.600060191634864, "trial_time": 3.1758848059980664}
{"FBDuration": 0.5, "FBonset": 0, "ITI": 0.7797071967432609, "displayFB": true, "onset": 11.254425029655383, "punishment_amount": 0, "responseWindow": 1.5, "reward_amount": 1, "stim": {"motionDirection": "out", "oriBase": -60, "oriDirection": 1, "oriStrength": 0.775, "speedDirection": -1, "speedStrength": 0.775, "speed_start": 0.12, "speed_end": 0.11346172716804265, "ori_start": -60, "ori_end": -56.650598371949414, "motion_direction": "out"}, "stimResponseInterval": 0.4480301973577857, "stimulusDuration": 1.5, "trial_count": 3, "ts": "orientation", "trial_type": "intensity-85", "exp_stage": "adaptive_procedure", "decision_var": 3.3494016280505865, "response": "right", "rt": 0.3119820389983943, "FB": 1, "quest_estimate": 8.600059627528829, "trial_time": 2.7834455910051474}
{"FBDuration": 0.5, "FBonset": 0, "ITI": 0.6788193306569781, "displayFB": true, "onset": 15.98216242375643, "punishment_amount": 0, "responseWindow": 1.5, "reward_amount": 1, "stim": {"motionDirection": "out", "oriBase": 30, "oriDirection": -1, "oriStrength": 0.775, "speedDirection": -1, "speedStrength": 0.775, "speed_start": 0.12, "speed_end": 0.11346172716804265, "ori_start": 30, "ori_end": 21.440942901701018, "motion_direction": "out"}, "stimResponseInterval": 0.5430241749587286, "stimulusDuration": 1.5, "trial_count": 4, "ts": "orientation", "trial_type": "threshold_estimation", "exp_stage": "adaptive_procedure", "decision_var": 8.559057098298982, "response": "left", "rt": 0.26893129499512725, "FB": 1, "quest_estimate": 8.599970454703033, "trial_time": 2.8397592170076678}
{"FBDuration": 0.5, "FBonset": 0, "ITI": 0.6204496820938332, "displayFB": true, "onset": 20.704005929372137, "punishment_amount": 0, "responseWindow": 1.5, "reward_amount": 1, "stim": {"motionDirection": "in", "oriBase": 30, "oriDirection": -1, "oriStrength": 0.775, "speedDirection": 1, "speedStrength": 0.775, "speed_start": 0.12, "speed_end": 0.12653827283195734, "ori_start": 30, "ori_end": 21.440987988795797, "motion_direction": "in"}, "stimResponseInterval": 0.6240367539651503, "stimulusDuration": 1.5, "trial_count": 5, "ts": "orientation", "trial_type": "threshold_estimation", "exp_stage": "adaptive_procedure", "decision_var": 8.559012011204203, "response": "left", "rt": 0.24588533300266135, "FB": 1, "quest_estimate": 8.599881080895834, "trial_time": 2.907558495993726}
{"FBDuration": 0.5, "FBonset": 0, "ITI": 0.6873499776124548, "displayFB": true, "onset": 25.44849236543112, "punishment_amount": 0, "responseWindow": 1.5, "reward_amount": 1, "stim": {"motionDirection": "in", "oriBase": -60, "oriDirection": -1, "oriStrength": 0.775, "speedDirection": -1, "speedStrength": 0.775, "speed_start": 0.12, "speed_end": 0.11346172716804265, "ori_start": -60, "ori_end": -68.55896823169493, "motion_direction": "in"}, "stimResponseInterval": 0.3343080986675766, "stimulusDuration": 1.5, "trial_count": 6, "ts": "orientation", "trial_type": "threshold_estimation", "exp_stage": "adaptive_procedure", "decision_var": 8.558968231694934, "response": "left", "rt": 0.25209349900251254, "FB": 1, "quest_estimate": 8.599788936872464, "trial_time": 2.6108169380022446}
{"FBDuration": 0.5, "FBonset": 0, "ITI": 0.6939427396382503, "displayFB": true, "onset": 29.970150441711155, "punishment_amount": 0, "responseWindow": 1.5, "reward_amount": 1, "stim": {"motionDirection": "in", "oriBase": 30, "oriDirection": -1, "oriStrength": 0.775, "speedDirection": 1, "speedStrength": 0.775, "speed_start": 0.12, "speed_end": 0.12653827283195734, "ori_start": 30, "ori_end": 27.089938374619404, "motion_direction": "in"}, "stimResponseInterval": 0.2778391824336115, "stimulusDuration": 1.5, "trial_count": 7, "ts": "orientation", "trial_type": "intensity-70", "exp_stage": "adaptive_procedure", "decision_var": 2.9100616253805955, "response": "left", "rt": 0.47928606800269336, "FB": 1, "quest_estimate": 8.599786571624225, "trial_time": 2.7917813140084036}
{"FBDuration": 0.5, "FBonset": 0, "ITI": 0.7916351752176434, "displayFB": true, "onset": 34.44193236378302, "punishment_amount": 0, "responseWindow": 1.5, "reward_amount": 1, "stim": {"motionDirection": "out", "oriBase": 30, "oriDirection": -1, "oriStrength": 0.775, "speedDirection": -1, "speedStrength": 0.775, "speed_start": 0.12, "speed_end": 0.11346172716804265, "ori_start": 30, "ori_end": 21.441075530452014, "motion_direction": "out"}, "stimResponseInterval": 0.9784288794130831, "stimulusDuration": 1.5, "trial_count": 8, "ts": "orientation", "trial_type": "threshold_estimation", "exp_stage": "adaptive_procedure", "decision_var": 8.558924469547986, "response": "left", "rt": 0.30216368500259705, "FB": 1, "quest_estimate": 8.599688346243287, "trial_time": 3.309625458001392}
{"FBDuration": 0.5, "FBonset": 0, "ITI": 0.26544254879912166, "displayFB": true, "onset": 39.71199641841375, "punishment_amount": 0, "responseWindow": 1.5, "reward_amount": 1, "stim": {"motionDirection": "out", "oriBase": 30, "oriDirection": -1, "oriStrength": 0.775, "speedDirection": 1, "speedStrength": 0.775, "speed_start": 0.12, "speed_end": 0.12653827283195734, "ori_start": 30, "ori_end": 21.441120532298353, "motion_direction": "out"}, "stimResponseInterval": 0.8753433291715755, "stimulusDuration": 1.5, "trial_count": 9, "ts": "orientation", "trial_type": "threshold_estimation", "exp_stage": "adaptive_procedure", "decision_var": 8.558879467701647, "response": "left", "rt": 0.2724743130092975, "FB": 1, "quest_estimate": 8.599581765327304, "trial_time": 3.1877003960107686}
{"FBDuration": 0.5, "FBonset": 0, "ITI": 0.8581627664568916, "displayFB": true, "onset": 44.35278229638445, "punishment_amount": 0, "responseWindow": 1.5, "reward_amount": 1, "stim": {"motionDirection": "out", "oriBase": -60, "oriDirection": -1, "oriStrength": 0.775, "speedDirection": -1, "speedStrength": 0.775, "speed_start": 0.12, "speed_end": 0.11346172716804265, "ori_start": -60, "ori_end": -68.55883192232723, "motion_direction": "out"}, "stimResponseInterval": 0.11306469215108672, "stimulusDuration": 1.5, "trial_count": 10, "ts": "orientation", "trial_type": "threshold_estimation", "exp_stage": "adaptive_procedure", "decision_var": 8.558831922327233, "response": "left", "rt": 0.49540166900260374, "FB": 1, "quest_estimate": 8.599463806466133, "trial_time": 2.6384636080038035}
{"FBDuration": 0.5, "FBonset": 0, "ITI": 0.551575718143676, "displayFB": true, "onset": 48.824009754992424, "punishment_amount": 0, "responseWindow": 1.5, "reward_amount": 1, "stim": {"motionDirection": "out", "oriBase": 30, "oriDirection": 1, "oriStrength": 0.775, "speedDirection": -1, "speedStrength": 0.775, "speed_start": 0.12, "speed_end": 0.11346172716804265, "ori_start": 30, "ori_end": 38.558780472296675, "motion_direction": "out"}, "stimResponseInterval": 0.007385148873640834, "stimulusDuration": 1.5, "trial_count": 11, "ts": "orientation", "trial_type": "threshold_estimation", "exp_stage": "adaptive_procedure", "decision_var": 8.558780472296672, "response": "right", "rt": 0.392040986000211, "FB": 1, "quest_estimate": 8.599331146879802, "trial_time": 2.4310316350020003}
{"FBDuration": 0.5, "FBonset": 0, "ITI": 0.6336376417852669, "displayFB": true, "onset": 52.88297062200974, "punishment_amount": 0, "responseWindow": 1.5, "reward_amount": 1, "stim": {"motionDirection": "in", "oriBase": -60, "oriDirection": 1, "oriStrength": 0.775, "speedDirection": -1, "speedStrength": 0.775, "speed_start": 0.12, "speed_end": 0.11346172716804265, "ori_start": -60, "ori_end": -57.40936973270313, "motion_direction": "in"}, "stimResponseInterval": 0.3628830605614687, "stimulusDuration": 1.5, "trial_count": 12, "ts": "orientation", "trial_type": "intensity-60", "exp_stage": "adaptive_procedure", "decision_var": 2.5906302672968744, "response": "left", "rt": 0.4132175660051871, "FB": 0, "quest_estimate": 8.599343938519542, "trial_time": 2.8065808749961434}
{"FBDuration": 0.5, "FBonset": 0, "ITI": 0.08296644341214077, "displayFB": true, "onset": 57.37949132435648, "punishment_amount": 0, "responseWindow": 1.5, "reward_amount": 1, "stim": {"motionDirection": "in", "oriBase": 30, "oriDirection": -1, "oriStrength": 0.775, "speedDirection": -1, "speedStrength": 0.775, "speed_start": 0.12, "speed_end": 0.11346172716804265, "ori_start": 30, "ori_end": 21.441276302240574, "motion_direction": "in"}, "stimResponseInterval": 0.5452338766275093, "stimulusDuration": 1.5, "trial_count": 13, "ts": "orientation", "trial_type": "threshold_estimation", "exp_stage": "adaptive_procedure", "decision_var": 8.558723697759426, "response": "left", "rt": 0.2286546020040987, "FB": 1, "quest_estimate": 8.59919654356504, "trial_time": 2.806726050010184}
{"FBDuration": 0.5, "FBonset": 0, "ITI": 0.5964235658664039, "displayFB": true, "onset": 61.50769164439613, "punishment_amount": 0, "responseWindow": 1.5, "reward_amount": 1, "stim": {"motionDirection": "in", "oriBase": -60, "oriDirection": -1, "oriStrength": 0.775, "speedDirection": 1, "speedStrength": 0.775, "speed_start": 0.12, "speed_end": 0.12653827283195734, "ori_start": -60, "ori_end": -68.55865991510213, "motion_direction": "in"}, "stimResponseInterval": 0.7534277184356577, "stimulusDuration": 1.5, "trial_count": 14, "ts": "orientation", "trial_type": "threshold_estimation", "exp_stage": "adaptive_procedure", "decision_var": 8.558659915102126, "response": "left", "rt": 0.19386390500585549, "FB": 1, "quest_estimate": 8.599027590437409, "trial_time": 2.9839826419920428}
{"FBDuration": 0.5, "FBonset": 0, "ITI": 0.6260814577760327, "displayFB": true, "onset": 66.3575429286982, "punishment_amount": 0, "responseWindow": 1.5, "reward_amount": 1, "stim": {"motionDirection": "out", "oriBase": 30, "oriDirection": 1, "oriStrength": 0.775, "speedDirection": -1, "speedStrength": 0.775, "speed_start": 0.12, "speed_end": 0.11346172716804265, "ori_start": 30, "ori_end": 38.55858736091335, "motion_direction": "out"}, "stimResponseInterval": 0.04539663793537474, "stimulusDuration": 1.5, "trial_count": 15, "ts": "orientation", "trial_type": "threshold_estimation", "exp_stage": "adaptive_procedure", "decision_var": 8.55858736091335, "response": "right", "rt": 0.34351850699749775, "FB": 1, "quest_estimate": 8.598832588033659, "trial_time": 2.4231147300015436}
{"FBDuration": 0.5, "FBonset": 0, "ITI": 0.5183526872316291, "displayFB": true, "onset": 70.5290210244096, "punishment_amount": 0, "responseWindow": 1.5, "reward_amount": 1, "stim": {"motionDirection": "out", "oriBase": -60, "oriDirection": 1, "oriStrength": 0.775, "speedDirection": -1, "speedStrength": 0.775, "speed_start": 0.12, "speed_end": 0.11346172716804265, "ori_start": -60, "ori_end": -51.44149600294783, "motion_direction": "out"}, "stimResponseInterval": 0.2286592962148719, "stimulusDuration": 1.5, "trial_count": 16, "ts": "orientation", "trial_type": "threshold_estimation", "exp_stage": "adaptive_procedure", "decision_var": 8.558503997052167, "response": "right", "rt": 0.24578847399970982, "FB": 1, "quest_estimate": 8.598606419002046, "trial_time": 2.5026619819982443}
{"FBDuration": 0.5, "FBonset": 0, "ITI": 0.4976402471825857, "displayFB": true, "onset": 74.7760330078561, "punishment_amount": 0, "responseWindow": 1.5, "reward_amount": 1, "stim": {"motionDirection": "out", "oriBase": 30, "oriDirection": -1, "oriStrength": 0.775, "speedDirection": -1, "speedStrength": 0.775, "speed_start": 0.12, "speed_end": 0.11346172716804265, "ori_start": 30, "ori_end": 21.44159251251452, "motion_direction": "out"}, "stimResponseInterval": 0.9591645554636148, "stimulusDuration": 1.5, "trial_count": 17, "ts": "orientation", "trial_type": "threshold_estimation", "exp_stage": "adaptive_procedure", "decision_var": 8.558407487485479, "response": "left", "rt": 0.21479757899942342, "FB": 1, "quest_estimate": 8.59834323263199, "trial_time": 3.2046437620010693}
{"FBDuration": 0.5, "FBonset": 0, "ITI": 0.6478921080901681, "displayFB": true, "onset": 79.7328378105023, "punishment_amount": 0, "responseWindow": 1.5, "reward_amount": 1, "stim": {"motionDirection": "out", "oriBase": 30, "oriDirection": 1, "oriStrength": 0.775, "speedDirection": 1, "speedStrength": 0.775, "speed_start": 0.12, "speed_end": 0.12653827283195734, "ori_start": 30, "ori_end": 32.59063026729687, "motion_direction": "out"}, "stimResponseInterval": 0.9246379790250314, "stimulusDuration": 1.5, "trial_count": 18, "ts": "orientation", "trial_type": "intensity-60", "exp_stage": "adaptive_procedure", "decision_var": 2.5906302672968744, "response": "left", "rt": 0.25027974700788036, "FB": 0, "quest_estimate": 8.598343842737453, "trial_time": 3.2136997709894786}
{"FBDuration": 0.5, "FBonset": 0, "ITI": 0.7295039104293051, "displayFB": true, "onset": 84.8053678976175, "punishment_amount": 0, "responseWindow": 1.5, "reward_amount": 1, "stim": {"motionDirection": "out", "oriBase": -60, "oriDirection": -1, "oriStrength": 0.775, "speedDirection": -1, "speedStrength": 0.775, "speed_start": 0.12, "speed_end": 0.11346172716804265, "ori_start": -60, "ori_end": -68.5582951354697, "motion_direction": "out"}, "stimResponseInterval": 0.7993618731372256, "stimulusDuration": 1.5, "trial_count": 19, "ts": "orientation", "trial_type": "threshold_estimation", "exp_stage": "adaptive_procedure", "decision_var": 8.558295135469702, "response": "left", "rt": 0.21091665100539103, "FB": 1, "quest_estimate": 8.59803711485623, "trial_time": 3.0410888170008548}
{"FBDuration": 0.5, "FBonset": 0, "ITI": 0.2731984231051334, "displayFB": true, "onset": 89.83423368118403, "punishment_amount": 0, "responseWindow": 1.5, "reward_amount": 1, "stim": {"motionDirection": "out", "oriBase": 30, "oriDirection": 1, "oriStrength": 0.775, "speedDirection": -1, "speedStrength": 0.775, "speed_start": 0.12, "speed_end": 0.11346172716804265, "ori_start": 30, "ori_end": 32.91006162538059, "motion_direction": "out"}, "stimResponseInterval": 0.2972584065053655, "stimulusDuration": 1.5, "trial_count": 20, "ts": "orientation", "trial_type": "intensity-70", "exp_stage": "adaptive_procedure", "decision_var": 2.9100616253805955, "response": "right", "rt": 0.24040932299976703, "FB": 1, "quest_estimate": 8.598036619023773, "trial_time": 2.5705833779938985}
{"FBDuration": 0.5, "FBonset": 0, "ITI": 0.9750881914685086, "displayFB": true, "onset": 93.90469051079452, "punishment_amount": 0, "responseWindow": 1.5, "reward_amount": 1, "stim": {"motionDirection": "in", "oriBase": -60, "oriDirection": 1, "oriStrength": 0.775, "speedDirection": 1, "speedStrength": 0.775, "speed_start": 0.12, "speed_end": 0.12653827283195734, "ori_start": -60, "ori_end": -56.34330036868939, "motion_direction": "in"}, "stimResponseInterval": 0.8039141461242987, "stimulusDuration": 1.5, "trial_count": 21, "ts": "orientation", "trial_type": "intensity-90", "exp_stage": "adaptive_procedure", "decision_var": 3.656699631310609, "response": "right", "rt": 0.2361706779920496, "FB": 1, "quest_estimate": 8.598034869848856, "trial_time": 3.0687710529891774}
{"FBDuration": 0.5, "FBonset": 0, "ITI": 0.028091961443009072, "displayFB": true, "onset": 99.18369284838732, "punishment_amount": 0, "responseWindow": 1.5, "reward_amount": 1, "stim": {"motionDirection": "in", "oriBase": 30, "oriDirection": 1, "oriStrength": 0.775, "speedDirection": 1, "speedStrength": 0.775, "speed_start": 0.12, "speed_end": 0.12653827283195734, "ori_start": 30, "ori_end": 38.55816378140277, "motion_direction": "in"}, "stimResponseInterval": 0.14217199678942394, "stimulusDuration": 1.5, "trial_count": 22, "ts": "orientation", "trial_type": "threshold_estimation", "exp_stage": "adaptive_procedure", "decision_var": 8.558163781402772, "response": "right", "rt": 0.3204478440020466, "FB": 1, "quest_estimate": 8.597676172144347, "trial_time": 2.492844344000332}
{"FBDuration": 0.5, "FBonset": 0, "ITI": 0.3302345629644441, "displayFB": true, "onset": 102.85395680661976, "punishment_amount": 0, "responseWindow": 1.5, "reward_amount": 1, "stim": {"motionDirection": "out", "oriBase": -60, "oriDirection": -1, "oriStrength": 0.775, "speedDirection": 1, "speedStrength": 0.775, "speed_start": 0.12, "speed_end": 0.12653827283195734, "ori_start": -60, "ori_end": -68.55800979087752, "motion_direction": "out"}, "stimResponseInterval": 0.39474246285868086, "stimulusDuration": 1.5, "trial_count": 23, "ts": "orientation", "trial_type": "threshold_estimation", "exp_stage": "adaptive_procedure", "decision_var": 8.558009790877527, "response": "left", "rt": 0.24845650600036606, "FB": 1, "quest_estimate": 8.597257223651685, "trial_time": 2.668729106997489}
{"FBDuration": 0.5, "FBonset": 0, "ITI": 0.5358654142641224, "displayFB": true, "onset": 107.07893383244289, "punishment_amount": 0, "responseWindow": 1.5, "reward_amount": 1, "stim": {"motionDirection": "out", "oriBase": -60, "oriDirection": 1, "oriStrength": 0.775, "speedDirection": 1, "speedStrength": 0.775, "speed_start": 0.12, "speed_end": 0.12653827283195734, "ori_start": -60, "ori_end": -56.34330036868939, "motion_direction": "out"}, "stimResponseInterval": 0.5719115282044562, "stimulusDuration": 1.5, "trial_count": 24, "ts": "orientation", "trial_type": "intensity-90", "exp_stage": "adaptive_procedure", "decision_var": 3.656699631310609, "response": "right", "rt": 0.29443056099989917, "FB": 1, "quest_estimate": 8.597251562352383, "trial_time": 2.8992564439977286}
{"FBDuration": 0.5, "FBonset": 0, "ITI": 0.6533725963440686, "displayFB": true, "onset": 111.68671077491146, "punishment_amount": 0, "responseWindow": 1.5, "reward_amount": 1, "stim": {"motionDirection": "out", "oriBase": 30, "oriDirection": -1, "oriStrength": 0.775, "speedDirection": -1, "speedStrength": 0.775, "speed_start": 0.12, "speed_end": 0.11346172716804265, "ori_start": 30, "ori_end": 21.44217118575593, "motion_direction": "out"}, "stimResponseInterval": 0.42276042409149683, "stimulusDuration": 1.5, "trial_count": 25, "ts": "orientation", "trial_type": "threshold_estimation", "exp_stage": "adaptive_procedure", "decision_var": 8.557828814244068, "response": "left", "rt": 0.27044962500804104, "FB": 1, "quest_estimate": 8.596760769371137, "trial_time": 2.7328780409879982}
{"FBDuration": 0.5, "FBonset": 0, "ITI": 0.8043983025105792, "displayFB": true, "onset": 116.26284379534702, "punishment_amount": 0, "responseWindow": 1.5, "reward_amount": 1, "stim": {"motionDirection": "out", "oriBase": -60, "oriDirection": 1, "oriStrength": 0.775, "speedDirection": 1, "speedStrength": 0.775, "speed_start": 0.12, "speed_end": 0.12653827283195734, "ori_start": -60, "ori_end": -51.44238411868207, "motion_direction": "out"}, "stimResponseInterval": 0.25527274753736806, "stimulusDuration": 1.5, "trial_count": 26, "ts": "orientation", "trial_type": "threshold_estimation", "exp_stage": "adaptive_procedure", "decision_var": 8.557615881317925, "response": "right", "rt": 0.24891908699646592, "FB": 1, "quest_estimate": 8.59618796675997, "trial_time": 2.532851034993655}
{"FBDuration": 0.5, "FBonset": 0, "ITI": 0.2941364344230557, "displayFB": true, "onset": 120.82251484539498, "punishment_amount": 0, "responseWindow": 1.5, "reward_amount": 1, "stim": {"motionDirection": "in", "oriBase": -60, "oriDirection": -1, "oriStrength": 0.775, "speedDirection": 1, "speedStrength": 0.775, "speed_start": 0.12, "speed_end": 0.12653827283195734, "ori_start": -60, "ori_end": -68.55736502593876, "motion_direction": "in"}, "stimResponseInterval": 0.22157695568917923, "stimulusDuration": 1.5, "trial_count": 27, "ts": "orientation", "trial_type": "threshold_estimation", "exp_stage": "adaptive_procedure", "decision_var": 8.557365025938772, "response": "left", "rt": 0.2954927699902328, "FB": 1, "quest_estimate": 8.595520295328647, "trial_time": 2.5510151609923923}
{"FBDuration": 0.5, "FBonset": 0, "ITI": 0.8604228590459522, "displayFB": true, "onset": 124.83822823550722, "punishment_amount": 0, "responseWindow": 1.5, "reward_amount": 1, "stim": {"motionDirection": "in", "oriBase": -60, "oriDirection": -1, "oriStrength": 0.775, "speedDirection": 1, "speedStrength": 0.775, "speed_start": 0.12, "speed_end": 0.12653827283195734, "ori_start": -60, "ori_end": -68.55706926001864, "motion_direction": "in"}, "stimResponseInterval": 0.5149401103246061, "stimulusDuration": 1.5, "trial_count": 28, "ts": "orientation", "trial_type": "threshold_estimation", "exp_stage": "adaptive_procedure", "decision_var": 8.557069260018643, "response": "left", "rt": 0.3480914829997346, "FB": 1, "quest_estimate": 8.59474338811522, "trial_time": 2.8970934600074543}
{"FBDuration": 0.5, "FBonset": 0, "ITI": 0.4235192064877885, "displayFB": true, "onset": 129.7135912048778, "punishment_amount": 0, "responseWindow": 1.5, "reward_amount": 1, "stim": {"motionDirection": "out", "oriBase": 30, "oriDirection": -1, "oriStrength": 0.775, "speedDirection": 1, "speedStrength": 0.775, "speed_start": 0.12, "speed_end": 0.12653827283195734, "ori_start": 30, "ori_end": 27.089938374619404, "motion_direction": "out"}, "stimResponseInterval": 0.6182273765792705, "stimulusDuration": 1.5, "trial_count": 29, "ts": "orientation", "trial_type": "intensity-70", "exp_stage": "adaptive_procedure", "decision_var": 2.9100616253805955, "response": "left", "rt": 0.32917468500090763, "FB": 1, "quest_estimate": 8.594728254425515, "trial_time": 2.971485208006925}
{"FBDuration": 0.5, "FBonset": 0, "ITI": 0.6754875862011411, "displayFB": true, "onset": 134.25533778794485, "punishment_amount": 0, "responseWindow": 1.5, "reward_amount": 1, "stim": {"motionDirection": "in", "oriBase": 30, "oriDirection": 1, "oriStrength": 0.775, "speedDirection": -1, "speedStrength": 0.775, "speed_start": 0.12, "speed_end": 0.11346172716804265, "ori_start": 30, "ori_end": 38.55672023373809, "motion_direction": "in"}, "stimResponseInterval": 0.5327203334587765, "stimulusDuration": 1.5, "trial_count": 30, "ts": "orientation", "trial_type": "threshold_estimation", "exp_stage": "adaptive_procedure", "decision_var": 8.556720233738094, "response": "right", "rt": 0.28911738499300554, "FB": 1, "quest_estimate": 8.593822035655947, "trial_time": 2.8519754910084885}
{"FBDuration": 0.5, "FBonset": 0, "ITI": 0.2109095606913557, "displayFB": true, "onset": 138.96354570760477, "punishment_amount": 0, "responseWindow": 1.5, "reward_amount": 1, "stim": {"motionDirection": "out", "oriBase": -60, "oriDirection": 1, "oriStrength": 0.775, "speedDirection": -1, "speedStrength": 0.775, "speed_start": 0.12, "speed_end": 0.11346172716804265, "ori_start": -60, "ori_end": -51.44369157810959, "motion_direction": "out"}, "stimResponseInterval": 0.7945601501936741, "stimulusDuration": 1.5, "trial_count": 31, "ts": "orientation", "trial_type": "threshold_estimation", "exp_stage": "adaptive_procedure", "decision_var": 8.556308421890403, "response": "right", "rt": 0.2528872069960926, "FB": 1, "quest_estimate": 8.592772227156551, "trial_time": 3.0848952810047194}
{"FBDuration": 0.5, "FBonset": 0, "ITI": 0.3271876749723335, "displayFB": true, "onset": 143.4690154184898, "punishment_amount": 0, "responseWindow": 1.5, "reward_amount": 1, "stim": {"motionDirection": "out", "oriBase": -60, "oriDirection": 1, "oriStrength": 0.775, "speedDirection": 1, "speedStrength": 0.775, "speed_start": 0.12, "speed_end": 0.12653827283195734, "ori_start": -60, "ori_end": -51.44417773140019, "motion_direction": "out"}, "stimResponseInterval": 0.2551123501127295, "stimulusDuration": 1.5, "trial_count": 32, "ts": "orientation", "trial_type": "threshold_estimation", "exp_stage": "adaptive_procedure", "decision_var": 8.555822268599815, "response": "right", "rt": 0.3218196489906404, "FB": 1, "quest_estimate": 8.591559906699413, "trial_time": 2.6065022140101064}
{"FBDuration": 0.5, "FBonset": 0, "ITI": 0.17976885085102468, "displayFB": true, "onset": 147.55131544357485, "punishment_amount": 0, "responseWindow": 1.5, "reward_amount": 1, "stim": {"motionDirection": "out", "oriBase": -60, "oriDirection": -1, "oriStrength": 0.775, "speedDirection": 1, "speedStrength": 0.775, "speed_start": 0.12, "speed_end": 0.12653827283195734, "ori_start": -60, "ori_end": -63.349401628050586, "motion_direction": "out"}, "stimResponseInterval": 0.9443988641087984, "stimulusDuration": 1.5, "trial_count": 33, "ts": "orientation", "trial_type": "intensity-85", "exp_stage": "adaptive_procedure", "decision_var": 3.3494016280505865, "response": "right", "rt": 0.3559266699885484, "FB": 0, "quest_estimate": 8.591644231563478, "trial_time": 3.330620512002497}
{"FBDuration": 0.5, "FBonset": 0, "ITI": 0.39034794355111924, "displayFB": true, "onset": 152.17548315853466, "punishment_amount": 0, "responseWindow": 1.5, "reward_amount": 1, "stim": {"motionDirection": "in", "oriBase": -60, "oriDirection": 1, "oriStrength": 0.775, "speedDirection": -1, "speedStrength": 0.775, "speed_start": 0.12, "speed_end": 0.11346172716804265, "ori_start": -60, "ori_end": -51.444751109359515, "motion_direction": "in"}, "stimResponseInterval": 0.15674029005255252, "stimulusDuration": 1.5, "trial_count": 34, "ts": "orientation", "trial_type": "threshold_estimation", "exp_stage": "adaptive_procedure", "decision_var": 8.555248890640481, "response": "right", "rt": 0.3657850879972102, "FB": 1, "quest_estimate": 8.590272146834675, "trial_time": 2.559576960004051}
{"FBDuration": 0.5, "FBonset": 0, "ITI": 0.5382582100322617, "displayFB": true, "onset": 156.22257139213832, "punishment_amount": 0, "responseWindow": 1.5, "reward_amount": 1, "stim": {"motionDirection": "in", "oriBase": 30, "oriDirection": -1, "oriStrength": 0.775, "speedDirection": -1, "speedStrength": 0.775, "speed_start": 0.12, "speed_end": 0.11346172716804265, "ori_start": 30, "ori_end": 21.445428819882046, "motion_direction": "in"}, "stimResponseInterval": 0.6065588685542243, "stimulusDuration": 1.5, "trial_count": 35, "ts": "orientation", "trial_type": "threshold_estimation", "exp_stage": "adaptive_procedure", "decision_var": 8.554571180117954, "response": "left", "rt": 0.22983740699419286, "FB": 1, "quest_estimate": 8.588702782950971, "trial_time": 2.875243930000579}
{"FBDuration": 0.5, "FBonset": 0, "ITI": 0.12160495498415036, "displayFB": true, "onset": 160.86738847072482, "punishment_amount": 0, "responseWindow": 1.5, "reward_amount": 1, "stim": {"motionDirection": "in", "oriBase": 30, "oriDirection": 1, "oriStrength": 0.775, "speedDirection": 1, "speedStrength": 0.775, "speed_start": 0.12, "speed_end": 0.12653827283195734, "ori_start": 30, "ori_end": 38.553770779214446, "motion_direction": "in"}, "stimResponseInterval": 0.6222377973448248, "stimulusDuration": 1.5, "trial_count": 36, "ts": "orientation", "trial_type": "threshold_estimation", "exp_stage": "adaptive_procedure", "decision_var": 8.553770779214446, "response": "right", "rt": 0.2294323539972538, "FB": 1, "quest_estimate": 8.586916947382367, "trial_time": 2.877489209990017}
{"FBDuration": 0.5, "FBonset": 0, "ITI": 0.572091972193929, "displayFB": true, "onset": 165.1112312230538, "punishment_amount": 0, "responseWindow": 1.5, "reward_amount": 1, "stim": {"motionDirection": "out", "oriBase": -60, "oriDirection": 1, "oriStrength": 0.775, "speedDirection": 1, "speedStrength": 0.775, "speed_start": 0.12, "speed_end": 0.12653827283195734, "ori_start": -60, "ori_end": -51.44717459374532, "motion_direction": "out"}, "stimResponseInterval": 0.27237279545879667, "stimulusDuration": 1.5, "trial_count": 37, "ts": "orientation", "trial_type": "threshold_estimation", "exp_stage": "adaptive_procedure", "decision_var": 8.552825406254676, "response": "right", "rt": 0.26334184300503694, "FB": 1, "quest_estimate": 8.584896631805371, "trial_time": 2.5657230200013146}
{"FBDuration": 0.5, "FBonset": 0, "ITI": 0.9734686693112664, "displayFB": true, "onset": 169.45569599070654, "punishment_amount": 0, "responseWindow": 1.5, "reward_amount": 1, "stim": {"motionDirection": "in", "oriBase": -60, "oriDirection": -1, "oriStrength": 0.775, "speedDirection": -1, "speedStrength": 0.775, "speed_start": 0.12, "speed_end": 0.11346172716804265, "ori_start": -60, "ori_end": -68.55170874395961, "motion_direction": "in"}, "stimResponseInterval": 0.6463378707668554, "stimulusDuration": 1.5, "trial_count": 38, "ts": "orientation", "trial_type": "threshold_estimation", "exp_stage": "adaptive_procedure", "decision_var": 8.551708743959612, "response": "left", "rt": 0.2526166479947278, "FB": 1, "quest_estimate": 8.5826261459022, "trial_time": 2.9336382929905085}
{"FBDuration": 0.5, "FBonset": 0, "ITI": 0.9770051155979864, "displayFB": true, "onset": 174.57550253078466, "punishment_amount": 0, "responseWindow": 1.5, "reward_amount": 1, "stim": {"motionDirection": "in", "oriBase": 30, "oriDirection": 1, "oriStrength": 0.775, "speedDirection": -1, "speedStrength": 0.775, "speed_start": 0.12, "speed_end": 0.11346172716804265, "ori_start": 30, "ori_end": 38.550389706684264, "motion_direction": "in"}, "stimResponseInterval": 0.22014073309398652, "stimulusDuration": 1.5, "trial_count": 39, "ts": "orientation", "trial_type": "threshold_estimation", "exp_stage": "adaptive_procedure", "decision_var": 8.550389706684264, "response": "right", "rt": 0.3139789569977438, "FB": 1, "quest_estimate": 8.580093454201918, "trial_time": 2.5634598119941074}
{"FBDuration": 0.5, "FBonset": 0, "ITI": 0.47784254258403047, "displayFB": true, "onset": 179.27264837947664, "punishment_amount": 0, "responseWindow": 1.5, "reward_amount": 1, "stim": {"motionDirection": "in", "oriBase": 30, "oriDirection": -1, "oriStrength": 0.775, "speedDirection": -1, "speedStrength": 0.775, "speed_start": 0.12, "speed_end": 0.11346172716804265, "ori_start": 30, "ori_end": 21.451168425126262, "motion_direction": "in"}, "stimResponseInterval": 0.41656853647024705, "stimulusDuration": 1.5, "trial_count": 40, "ts": "orientation", "trial_type": "threshold_estimation", "exp_stage": "adaptive_procedure", "decision_var": 8.548831574873738, "response": "left", "rt": 0.2673660560103599, "FB": 1, "quest_estimate": 8.577134871098938, "trial_time": 2.7158518780051963}
{"FBDuration": 0.5, "FBonset": 0, "ITI": 0.5417094735350849, "displayFB": true, "onset": 183.6670594585309, "punishment_amount": 0, "responseWindow": 1.5, "reward_amount": 1, "stim": {"motionDirection": "in", "oriBase": -60, "oriDirection": 1, "oriStrength": 0.775, "speedDirection": -1, "speedStrength": 0.775, "speed_start": 0.12, "speed_end": 0.11346172716804265, "ori_start": -60, "ori_end": -51.45310461059253, "motion_direction": "in"}, "stimResponseInterval": 0.01555160354945162, "stimulusDuration": 1.5, "trial_count": 41, "ts": "orientation", "trial_type": "threshold_estimation", "exp_stage": "adaptive_procedure", "decision_var": 8.546895389407464, "response": "right", "rt": 0.4395133610087214, "FB": 1, "quest_estimate": 8.573868791518322, "trial_time": 2.4894311370007927}
{"FBDuration": 0.5, "FBonset": 0, "ITI": 0.40083601623862586, "displayFB": true, "onset": 187.72432053561545, "punishment_amount": 0, "responseWindow": 1.5, "reward_amount": 1, "stim": {"motionDirection": "out", "oriBase": -60, "oriDirection": -1, "oriStrength": 0.775, "speedDirection": -1, "speedStrength": 0.775, "speed_start": 0.12, "speed_end": 0.11346172716804265, "ori_start": -60, "ori_end": -62.91006162538059, "motion_direction": "out"}, "stimResponseInterval": 0.5443062537956864, "stimulusDuration": 1.5, "trial_count": 42, "ts": "orientation", "trial_type": "intensity-70", "exp_stage": "adaptive_procedure", "decision_var": 2.9100616253805955, "response": "left", "rt": 0.22512905299663544, "FB": 1, "quest_estimate": 8.573862480675885, "trial_time": 2.7953070509975078}
{"FBDuration": 0.5, "FBonset": 0, "ITI": 0.28341445261554443, "displayFB": true, "onset": 192.16946280564977, "punishment_amount": 0, "responseWindow": 1.5, "reward_amount": 1, "stim": {"motionDirection": "in", "oriBase": -60, "oriDirection": -1, "oriStrength": 0.775, "speedDirection": -1, "speedStrength": 0.775, "speed_start": 0.12, "speed_end": 0.11346172716804265, "ori_start": -60, "ori_end": -68.54458972931303, "motion_direction": "in"}, "stimResponseInterval": 0.7717545627678424, "stimulusDuration": 1.5, "trial_count": 43, "ts": "orientation", "trial_type": "threshold_estimation", "exp_stage": "adaptive_procedure", "decision_var": 8.544589729313035, "response": "left", "rt": 0.2683607170038158, "FB": 1, "quest_estimate": 8.570289476024534, "trial_time": 3.070745204007835}
{"FBDuration": 0.5, "FBonset": 0, "ITI": 0.7467928793243452, "displayFB": true, "onset": 196.72463182103317, "punishment_amount": 0, "responseWindow": 1.5, "reward_amount": 1, "stim": {"motionDirection": "in", "oriBase": -60, "oriDirection": 1, "oriStrength": 0.775, "speedDirection": 1, "speedStrength": 0.775, "speed_start": 0.12, "speed_end": 0.12653827283195734, "ori_start": -60, "ori_end": -51.458155870556894, "motion_direction": "in"}, "stimResponseInterval": 0.27449175832593375, "stimulusDuration": 1.5, "trial_count": 44, "ts": "orientation", "trial_type": "threshold_estimation", "exp_stage": "adaptive_procedure", "decision_var": 8.541844129443103, "response": "right", "rt": 0.15519826700619888, "FB": 1, "quest_estimate": 8.566423182343787, "trial_time": 2.46870717901038}
{"FBDuration": 0.5, "FBonset": 0, "ITI": 0.9484895021303652, "displayFB": true, "onset": 201.24591645868344, "punishment_amount": 0, "responseWindow": 1.5, "reward_amount": 1, "stim": {"motionDirection": "in", "oriBase": 30, "oriDirection": 1, "oriStrength": 0.775, "speedDirection": 1, "speedStrength": 0.775, "speed_start": 0.12, "speed_end": 0.12653827283195734, "ori_start": 30, "ori_end": 33.349401628050586, "motion_direction": "in"}, "stimResponseInterval": 0.03182471755685434, "stimulusDuration": 1.5, "trial_count": 45, "ts": "orientation", "trial_type": "intensity-85", "exp_stage": "adaptive_procedure", "decision_var": 3.3494016280505865, "response": "left", "rt": 0.38976624100178014, "FB": 0, "quest_estimate": 8.566500157080952, "trial_time": 2.4541416550055146}
{"FBDuration": 0.5, "FBonset": 0, "ITI": 0.6232443833179764, "displayFB": true, "onset": 205.72623067837065, "punishment_amount": 0, "responseWindow": 1.5, "reward_amount": 1, "stim": {"motionDirection": "out", "oriBase": 30, "oriDirection": 1, "oriStrength": 0.775, "speedDirection": 1, "speedStrength": 0.775, "speed_start": 0.12, "speed_end": 0.12653827283195734, "ori_start": 30, "ori_end": 38.538575359104776, "motion_direction": "out"}, "stimResponseInterval": 0.8576230550370898, "stimulusDuration": 1.5, "trial_count": 46, "ts": "orientation", "trial_type": "threshold_estimation", "exp_stage": "adaptive_procedure", "decision_var": 8.538575359104776, "response": "right", "rt": 0.21316820599895436, "FB": 1, "quest_estimate": 8.562394352981872, "trial_time": 3.1056162059976486}
{"FBDuration": 0.5, "FBonset": 0, "ITI": 0.7498474939285682, "displayFB": true, "onset": 210.70709811672572, "punishment_amount": 0, "responseWindow": 1.5, "reward_amount": 1, "stim": {"motionDirection": "in", "oriBase": 30, "oriDirection": -1, "oriStrength": 0.775, "speedDirection": -1, "speedStrength": 0.775, "speed_start": 0.12, "speed_end": 0.11346172716804265, "ori_start": 30, "ori_end": 21.4653180393126, "motion_direction": "in"}, "stimResponseInterval": 0.33605273965606863, "stimulusDuration": 1.5, "trial_count": 47, "ts": "orientation", "trial_type": "threshold_estimation", "exp_stage": "adaptive_procedure", "decision_var": 8.5346819606874, "response": NaN, "rt": NaN, "FB": NaN, "trial_time": 3.8714159700029995}
{"FBDuration": 0.5, "FBonset": 0, "ITI": 0.3155799771184986, "displayFB": true, "onset": 215.29299835031034, "punishment_amount": 0, "responseWindow": 1.5, "reward_amount": 1, "stim": {"motionDirection": "in", "oriBase": -60, "oriDirection": 1, "oriStrength": 0.775, "speedDirection": 1, "speedStrength": 0.775, "speed_start": 0.12, "speed_end": 0.12653827283195734, "ori_start": -60, "ori_end": -57.40936973270313, "motion_direction": "in"}, "stimResponseInterval": 0.15102446539792358, "stimulusDuration": 1.5, "trial_count": 48, "ts": "orientation", "trial_type": "intensity-60", "exp_stage": "adaptive_procedure", "decision_var": 2.5906302672968744, "response": "right", "rt": 0.3127239369932795, "FB": 1, "quest_estimate": 8.572248072619317, "trial_time": 2.4946810910041677}
{"FBDuration": 0.5, "FBonset": 0, "ITI": 0.8535916294942354, "displayFB": true, "onset": 219.25960279282677, "punishment_amount": 0, "responseWindow": 1.5, "reward_amount": 1, "stim": {"motionDirection": "out", "oriBase": -60, "oriDirection": -1, "oriStrength": 0.775, "speedDirection": 1, "speedStrength": 0.775, "speed_start": 0.12, "speed_end": 0.12653827283195734, "ori_start": -60, "ori_end": -63.65669963131061, "motion_direction": "out"}, "stimResponseInterval": 0.5463518418389763, "stimulusDuration": 1.5, "trial_count": 49, "ts": "orientation", "trial_type": "intensity-90", "exp_stage": "adaptive_procedure", "decision_var": 3.656699631310609, "response": "left", "rt": 0.2671171739930287, "FB": 1, "quest_estimate": 8.572245291878875, "trial_time": 2.843152426998131}
{"FBDuration": 0.5, "FBonset": 0, "ITI": 0.5593654932180963, "displayFB": true, "onset": 224.15954626415999, "punishment_amount": 0, "responseWindow": 1.5, "reward_amount": 1, "stim": {"motionDirection": "out", "oriBase": 30, "oriDirection": -1, "oriStrength": 0.775, "speedDirection": 1, "speedStrength": 0.775, "speed_start": 0.12, "speed_end": 0.12653827283195734, "ori_start": 30, "ori_end": 21.456772445624413, "motion_direction": "out"}, "stimResponseInterval": 0.17079140070548904, "stimulusDuration": 1.5, "trial_count": 50, "ts": "orientation", "trial_type": "threshold_estimation", "exp_stage": "adaptive_procedure", "decision_var": 8.543227554375587, "response": "left", "rt": 0.32116225599020254, "FB": 1, "quest_estimate": 8.568609131248838, "trial_time": 2.519676955009345}
{"FBDuration": 0.5, "FBonset": 0, "ITI": 0.08942123147927028, "displayFB": true, "onset": 228.38970315808356, "punishment_amount": 0, "responseWindow": 1.5, "reward_amount": 1, "stim": {"motionDirection": "in", "oriBase": -60, "oriDirection": -1, "oriStrength": 0.775, "speedDirection": 1, "speedStrength": 0.775, "speed_start": 0.12, "speed_end": 0.12653827283195734, "ori_start": -60, "ori_end": -68.54022291587776, "motion_direction": "in"}, "stimResponseInterval": 0.6605171547670707, "stimulusDuration": 1.5, "trial_count": 51, "ts": "orientation", "trial_type": "threshold_estimation", "exp_stage": "adaptive_procedure", "decision_var": 8.54022291587776, "response": "left", "rt": 0.2546188600099413, "FB": 1, "quest_estimate": 8.564727695890245, "trial_time": 2.9453752800036455}
{"FBDuration": 0.5, "FBonset": 0, "ITI": 0.6609117738997088, "displayFB": true, "onset": 232.6396415443299, "punishment_amount": 0, "responseWindow": 1.5, "reward_amount": 1, "stim": {"motionDirection": "out", "oriBase": 30, "oriDirection": 1, "oriStrength": 0.775, "speedDirection": 1, "speedStrength": 0.775, "speed_start": 0.12, "speed_end": 0.12653827283195734, "ori_start": 30, "ori_end": 38.53664520140105, "motion_direction": "out"}, "stimResponseInterval": 0.10307133540203817, "stimulusDuration": 1.5, "trial_count": 52, "ts": "orientation", "trial_type": "threshold_estimation", "exp_stage": "adaptive_procedure", "decision_var": 8.53664520140105, "response": "right", "rt": 0.26481713900284376, "FB": 1, "quest_estimate": 8.560639409401766, "trial_time": 2.395985789000406}
{"FBDuration": 0.5, "FBonset": 0, "ITI": 0.9314830034433534, "displayFB": true, "onset": 236.90362465363162, "punishment_amount": 0, "responseWindow": 1.5, "reward_amount": 1, "stim": {"motionDirection": "in", "oriBase": 30, "oriDirection": 1, "oriStrength": 0.775, "speedDirection": 1, "speedStrength": 0.775, "speed_start": 0.12, "speed_end": 0.12653827283195734, "ori_start": 30, "ori_end": 38.5323850880213, "motion_direction": "in"}, "stimResponseInterval": 0.7458300571328849, "stimulusDuration": 1.5, "trial_count": 53, "ts": "orientation", "trial_type": "threshold_estimation", "exp_stage": "adaptive_procedure", "decision_var": 8.5323850880213, "response": "right", "rt": 0.22653825899760704, "FB": 1, "quest_estimate": 8.556393132033971, "trial_time": 3.002427614002954}
{"FBDuration": 0.5, "FBonset": 0, "ITI": 0.036519119159765245, "displayFB": true, "onset": 242.08093771420786, "punishment_amount": 0, "responseWindow": 1.5, "reward_amount": 1, "stim": {"motionDirection": "out", "oriBase": -60, "oriDirection": 1, "oriStrength": 0.775, "speedDirection": -1, "speedStrength": 0.775, "speed_start": 0.12, "speed_end": 0.11346172716804265, "ori_start": -60, "ori_end": -56.34330036868939, "motion_direction": "out"}, "stimResponseInterval": 0.8198472911637462, "stimulusDuration": 1.5, "trial_count": 54, "ts": "orientation", "trial_type": "intensity-90", "exp_stage": "adaptive_procedure", "decision_var": 3.656699631310609, "response": "right", "rt": 0.03164850200118963, "FB": 1, "quest_estimate": 8.556370795123673, "trial_time": 2.885862480994547}
{"FBDuration": 0.5, "FBonset": 0, "ITI": 0.03446273417809387, "displayFB": true, "onset": 246.43730412453138, "punishment_amount": 0, "responseWindow": 1.5, "reward_amount": 1, "stim": {"motionDirection": "in", "oriBase": 30, "oriDirection": 1, "oriStrength": 0.775, "speedDirection": -1, "speedStrength": 0.775, "speed_start": 0.12, "speed_end": 0.11346172716804265, "ori_start": 30, "ori_end": 38.52731207276288, "motion_direction": "in"}, "stimResponseInterval": 0.07284418278145144, "stimulusDuration": 1.5, "trial_count": 55, "ts": "orientation", "trial_type": "threshold_estimation", "exp_stage": "adaptive_procedure", "decision_var": 8.527312072762886, "response": "left", "rt": 0.4359161559987115, "FB": 0, "quest_estimate": 8.566639523943618, "trial_time": 2.534368478009128}
{"FBDuration": 0.5, "FBonset": 0, "ITI": 0.885128103290211, "displayFB": true, "onset": 250.04461104149092, "punishment_amount": 0, "responseWindow": 1.5, "reward_amount": 1, "stim": {"motionDirection": "in", "oriBase": -60, "oriDirection": 1, "oriStrength": 0.775, "speedDirection": 1, "speedStrength": 0.775, "speed_start": 0.12, "speed_end": 0.12653827283195734, "ori_start": -60, "ori_end": -56.650598371949414, "motion_direction": "in"}, "stimResponseInterval": 0.8050052474652867, "stimulusDuration": 1.5, "trial_count": 56, "ts": "orientation", "trial_type": "intensity-85", "exp_stage": "adaptive_procedure", "decision_var": 3.3494016280505865, "response": "right", "rt": 0.5270237410004484, "FB": 1, "quest_estimate": 8.566639353172821, "trial_time": 3.366575842999737}
{"FBDuration": 0.5, "FBonset": 0, "ITI": 0.05309531753562435, "displayFB": true, "onset": 255.23474439224643, "punishment_amount": 0, "responseWindow": 1.5, "reward_amount": 1, "stim": {"motionDirection": "in", "oriBase": -60, "oriDirection": 1, "oriStrength": 0.775, "speedDirection": -1, "speedStrength": 0.775, "speed_start": 0.12, "speed_end": 0.11346172716804265, "ori_start": -60, "ori_end": -57.40936973270313, "motion_direction": "in"}, "stimResponseInterval": 0.6824802274362565, "stimulusDuration": 1.5, "trial_count": 57, "ts": "orientation", "trial_type": "intensity-60", "exp_stage": "adaptive_procedure", "decision_var": 2.5906302672968744, "response": "right", "rt": 0.24276849899615627, "FB": 1, "quest_estimate": 8.56663935098285, "trial_time": 2.95099815899448}
{"FBDuration": 0.5, "FBonset": 0, "ITI": 0.057433231748805325, "displayFB": true, "onset": 259.47031993721833, "punishment_amount": 0, "responseWindow": 1.5, "reward_amount": 1, "stim": {"motionDirection": "out", "oriBase": -60, "oriDirection": -1, "oriStrength": 0.775, "speedDirection": 1, "speedStrength": 0.775, "speed_start": 0.12, "speed_end": 0.12653827283195734, "ori_start": -60, "ori_end": -68.53844474007501, "motion_direction": "out"}, "stimResponseInterval": 0.7154722199468582, "stimulusDuration": 1.5, "trial_count": 58, "ts": "orientation", "trial_type": "threshold_estimation", "exp_stage": "adaptive_procedure", "decision_var": 8.538444740075011, "response": "left", "rt": 0.2685278040007688, "FB": 1, "quest_estimate": 8.562652089369763, "trial_time": 3.0228543010016438}
{"FBDuration": 0.5, "FBonset": 0, "ITI": 0.9952773042555769, "displayFB": true, "onset": 263.74322538891397, "punishment_amount": 0, "responseWindow": 1.5, "reward_amount": 1, "stim": {"motionDirection": "in", "oriBase": -60, "oriDirection": -1, "oriStrength": 0.775, "speedDirection": -1, "speedStrength": 0.775, "speed_start": 0.12, "speed_end": 0.11346172716804265, "ori_start": -60, "ori_end": -68.53452798635723, "motion_direction": "in"}, "stimResponseInterval": 0.19933041115090777, "stimulusDuration": 1.5, "trial_count": 59, "ts": "orientation", "trial_type": "threshold_estimation", "exp_stage": "adaptive_procedure", "decision_var": 8.534527986357233, "response": "left", "rt": 0.3253097339911619, "FB": 1, "quest_estimate": 8.558484968723544, "trial_time": 2.555241465001018}
{"FBDuration": 0.5, "FBonset": 0, "ITI": 0.06023332983962326, "displayFB": true, "onset": 268.4378331043205, "punishment_amount": 0, "responseWindow": 1.5, "reward_amount": 1, "stim": {"motionDirection": "out", "oriBase": 30, "oriDirection": 1, "oriStrength": 0.775, "speedDirection": -1, "speedStrength": 0.775, "speed_start": 0.12, "speed_end": 0.11346172716804265, "ori_start": 30, "ori_end": 33.65669963131061, "motion_direction": "out"}, "stimResponseInterval": 0.124275072310573, "stimulusDuration": 1.5, "trial_count": 60, "ts": "orientation", "trial_type": "intensity-90", "exp_stage": "adaptive_procedure", "decision_var": 3.656699631310609, "response": "right", "rt": 0.35642443399410695, "FB": 1, "quest_estimate": 8.558483163473436, "trial_time": 2.5150296289939433}
{"FBDuration": 0.5, "FBonset": 0, "ITI": 0.7274629275163871, "displayFB": true, "onset": 272.12234150647066, "punishment_amount": 0, "responseWindow": 1.5, "reward_amount": 1, "stim": {"motionDirection": "out", "oriBase": 30, "oriDirection": 1, "oriStrength": 0.775, "speedDirection": 1, "speedStrength": 0.775, "speed_start": 0.12, "speed_end": 0.12653827283195734, "ori_start": 30, "ori_end": 38.529864177122235, "motion_direction": "out"}, "stimResponseInterval": 0.7634531189053688, "stimulusDuration": 1.5, "trial_count": 61, "ts": "orientation", "trial_type": "threshold_estimation", "exp_stage": "adaptive_procedure", "decision_var": 8.529864177122239, "response": "right", "rt": 0.3647017540060915, "FB": 1, "quest_estimate": 8.55418997361144, "trial_time": 3.1609432280092733}
{"FBDuration": 0.5, "FBonset": 0, "ITI": 0.027638802059106404, "displayFB": true, "onset": 277.11325755289243, "punishment_amount": 0, "responseWindow": 1.5, "reward_amount": 1, "stim": {"motionDirection": "out", "oriBase": -60, "oriDirection": -1, "oriStrength": 0.775, "speedDirection": -1, "speedStrength": 0.775, "speed_start": 0.12, "speed_end": 0.11346172716804265, "ori_start": -60, "ori_end": -63.349401628050586, "motion_direction": "out"}, "stimResponseInterval": 0.4802357166748208, "stimulusDuration": 1.5, "trial_count": 62, "ts": "orientation", "trial_type": "intensity-85", "exp_stage": "adaptive_procedure", "decision_var": 3.3494016280505865, "response": "left", "rt": 0.2756547290046001, "FB": 1, "quest_estimate": 8.554188596126142, "trial_time": 2.795527807000326}
{"FBDuration": 0.5, "FBonset": 0, "ITI": 0.7136968538421851, "displayFB": true, "onset": 281.12113207162633, "punishment_amount": 0, "responseWindow": 1.5, "reward_amount": 1, "stim": {"motionDirection": "in", "oriBase": 30, "oriDirection": -1, "oriStrength": 0.775, "speedDirection": 1, "speedStrength": 0.775, "speed_start": 0.12, "speed_end": 0.12653827283195734, "ori_start": 30, "ori_end": 27.089938374619404, "motion_direction": "in"}, "stimResponseInterval": 0.7706524527994414, "stimulusDuration": 1.5, "trial_count": 63, "ts": "orientation", "trial_type": "intensity-70", "exp_stage": "adaptive_procedure", "decision_var": 2.9100616253805955, "response": "left", "rt": 0.586673450001399, "FB": 1, "quest_estimate": 8.554188438996015, "trial_time": 3.3880496349884197}
{"FBDuration": 0.5, "FBonset": 0, "ITI": 0.21021414804171434, "displayFB": true, "onset": 286.10548137826794, "punishment_amount": 0, "responseWindow": 1.5, "reward_amount": 1, "stim": {"motionDirection": "in", "oriBase": 30, "oriDirection": -1, "oriStrength": 0.775, "speedDirection": 1, "speedStrength": 0.775, "speed_start": 0.12, "speed_end": 0.12653827283195734, "ori_start": 30, "ori_end": 27.409369732703126, "motion_direction": "in"}, "stimResponseInterval": 0.2900220189017628, "stimulusDuration": 1.5, "trial_count": 64, "ts": "orientation", "trial_type": "intensity-60", "exp_stage": "adaptive_procedure", "decision_var": 2.5906302672968744, "response": "right", "rt": 0.30299924399878364, "FB": 0, "quest_estimate": 8.55418848314871, "trial_time": 2.620381205997546}
