{"FBDuration": 0.5, "FBonset": 0, "ITI": 0.5812529129868642, "displayFB": true, "onset": 2, "punishment_amount": 0, "responseWindow": 1.5, "reward_amount": 1, "stim": {"motionDirection": "out", "oriBase": -60, "oriDirection": 1, "oriStrength": "medium", "speedDirection": -1, "speedStrength": "medium", "speed_start": 0.12, "speed_end": 0.11989999999999999, "ori_start": -60, "ori_end": -59.632852425104275, "motion_direction": "out"}, "stimResponseInterval": 0.621503592670958, "stimulusDuration": 1.5, "trial_count": 1, "ts": "motion", "exp_stage": "adaptive_procedure", "decision_var": 0.0001, "response": "up", "rt": 0.23385803200653754, "FB": 0, "quest_estimate": 0.002679782999403413, "trial_time": 2.8933340850053355}
{"FBDuration": 0.5, "FBonset": 0, "ITI": 0.7102273646252701, "displayFB": true, "onset": 6.702756505657822, "punishment_amount": 0, "responseWindow": 1.5, "reward_amount": 1, "stim": {"motionDirection": "out", "oriBase": 30, "oriDirection": -1, "oriStrength": "medium", "speedDirection": 1, "speedStrength": "medium", "speed_start": 0.12, "speed_end": 0.12391535641162389, "ori_start": 30, "ori_end": 29.63285242510428, "motion_direction": "out"}, "stimResponseInterval": 0.427702142192357, "stimulusDuration": 1.5, "trial_count": 2, "ts": "motion", "exp_stage": "adaptive_procedure", "decision_var": 0.0039153564116238965, "response": "up", "rt": 0.3087189229991054, "FB": 1, "quest_estimate": 0.0003010540484691196, "trial_time": 2.7687920790049247}
{"FBDuration": 0.5, "FBonset": 0, "ITI": 0.5432463940445944, "displayFB": true, "onset": 11.34068601247545, "punishment_amount": 0, "responseWindow": 1.5, "reward_amount": 1, "stim": {"motionDirection": "out", "oriBase": -60, "oriDirection": 1, "oriStrength": "medium", "speedDirection": 1, "speedStrength": "medium", "speed_start": 0.12, "speed_end": 0.12127616972560162, "ori_start": -60, "ori_end": -59.632852425104275, "motion_direction": "out"}, "stimResponseInterval": 0.8708163473526582, "stimulusDuration": 1.5, "trial_count": 3, "ts": "motion", "exp_stage": "adaptive_procedure", "decision_var": 0.001276169725601628, "response": "up", "rt": 0.3055823739996413, "FB": 1, "quest_estimate": -0.0019281437811112037, "trial_time": 3.2031603810028173}
{"FBDuration": 0.5, "FBonset": 0, "ITI": 0.21957968483443147, "displayFB": true, "onset": 16.254748753872704, "punishment_amount": 0, "responseWindow": 1.5, "reward_amount": 1, "stim": {"motionDirection": "out", "oriBase": -60, "oriDirection": -1, "oriStrength": "medium", "speedDirection": -1, "speedStrength": "medium", "speed_start": 0.12, "speed_end": 0.11989999999999999, "ori_start": -60, "ori_end": -60.367147574895725, "motion_direction": "out"}, "stimResponseInterval": 0.7138639061231666, "stimulusDuration": 1.5, "trial_count": 4, "ts": "motion", "exp_stage": "adaptive_procedure", "decision_var": 0.0001, "response": "down", "rt": 0.4425538080104161, "FB": 1, "quest_estimate": -0.004017226837323085, "trial_time": 3.1845093829906546}
{"FBDuration": 0.5, "FBonset": 0, "ITI": 0.07015232150431039, "displayFB": true, "onset": 20.688192344830302, "punishment_amount": 0, "responseWindow": 1.5, "reward_amount": 1, "stim": {"motionDirection": "in", "oriBase": 30, "oriDirection": -1, "oriStrength": "medium", "speedDirection": 1, "speedStrength": "medium", "speed_start": 0.12, "speed_end": 0.1201, "ori_start": 30, "ori_end": 29.63285242510428, "motion_direction": "in"}, "stimResponseInterval": 0.5862849061395001, "stimulusDuration": 1.5, "trial_count": 5, "ts": "motion", "exp_stage": "adaptive_procedure", "decision_var": 0.0001, "response": "up", "rt": 0.23233918299956713, "FB": 1, "quest_estimate": -0.005975134183773462, "trial_time": 2.844538895005826}
{"FBDuration": 0.5, "FBonset": 0, "ITI": 0.2854256250279711, "displayFB": true, "onset": 24.844629572474112, "punishment_amount": 0, "responseWindow": 1.5, "reward_amount": 1, "stim": {"motionDirection": "in", "oriBase": -60, "oriDirection": 1, "oriStrength": "medium", "speedDirection": 1, "speedStrength": "medium", "speed_start": 0.12, "speed_end": 0.1201, "ori_start": -60, "ori_end": -59.632852425104275, "motion_direction": "in"}, "stimResponseInterval": 0.6715671565073429, "stimulusDuration": 1.5, "trial_count": 6, "ts": "motion", "exp_stage": "adaptive_procedure", "decision_var": 0.0001, "response": "down", "rt": 0.16914774500764906, "FB": 0, "quest_estimate": 0.000721532388419141, "trial_time": 2.875806764990557}
{"FBDuration": 0.5, "FBonset": 0, "ITI": 0.29465880342415396, "displayFB": true, "onset": 29.301622354009424, "punishment_amount": 0, "responseWindow": 1.5, "reward_amount": 1, "stim": {"motionDirection": "in", "oriBase": 30, "oriDirection": 1, "oriStrength": "medium", "speedDirection": 1, "speedStrength": "medium", "speed_start": 0.12, "speed_end": 0.1220667999109449, "ori_start": 30, "ori_end": 30.36714757489572, "motion_direction": "in"}, "stimResponseInterval": 0.8950488634540048, "stimulusDuration": 1.5, "trial_count": 7, "ts": "motion", "exp_stage": "adaptive_procedure", "decision_var": 0.002066799910944918, "response": "down", "rt": 0.297894671006361, "FB": 0, "quest_estimate": 0.008313890894243094, "trial_time": 3.2194841070013354}
{"FBDuration": 0.5, "FBonset": 0, "ITI": 0.5782041815885883, "displayFB": true, "onset": 33.99133002088758, "punishment_amount": 0, "responseWindow": 1.5, "reward_amount": 1, "stim": {"motionDirection": "out", "oriBase": -60, "oriDirection": 1, "oriStrength": "medium", "speedDirection": 1, "speedStrength": "medium", "speed_start": 0.12, "speed_end": 0.13076688837722492, "ori_start": -60, "ori_end": -59.632852425104275, "motion_direction": "out"}, "stimResponseInterval": 0.42122022175506724, "stimulusDuration": 1.5, "trial_count": 8, "ts": "motion", "exp_stage": "adaptive_procedure", "decision_var": 0.010766888377224913, "response": "up", "rt": 0.32739840300928336, "FB": 1, "quest_estimate": 0.005818387534902568, "trial_time": 2.7830251709965523}
{"FBDuration": 0.5, "FBonset": 0, "ITI": 0.9278484262974134, "displayFB": true, "onset": 38.490754424231234, "punishment_amount": 0, "responseWindow": 1.5, "reward_amount": 1, "stim": {"motionDirection": "out", "oriBase": -60, "oriDirection": 1, "oriStrength": "medium", "speedDirection": -1, "speedStrength": "medium", "speed_start": 0.12, "speed_end": 0.11199504293446957, "ori_start": -60, "ori_end": -59.632852425104275, "motion_direction": "out"}, "stimResponseInterval": 0.6900221390840102, "stimulusDuration": 1.5, "trial_count": 9, "ts": "motion", "exp_stage": "adaptive_procedure", "decision_var": 0.008004957065530421, "response": "up", "rt": 0.2735225740034366, "FB": 0, "quest_estimate": 0.014154600537952547, "trial_time": 2.9968570880009793}
{"FBDuration": 0.5, "FBonset": 0, "ITI": 0.7839325288959396, "displayFB": true, "onset": 43.60862498961266, "punishment_amount": 0, "responseWindow": 1.5, "reward_amount": 1, "stim": {"motionDirection": "in", "oriBase": 30, "oriDirection": -1, "oriStrength": "medium", "speedDirection": -1, "speedStrength": "medium", "speed_start": 0.12, "speed_end": 0.10254100174864383, "ori_start": 30, "ori_end": 29.63285242510428, "motion_direction": "in"}, "stimResponseInterval": 0.9341409878420004, "stimulusDuration": 1.5, "trial_count": 10, "ts": "motion", "exp_stage": "adaptive_procedure", "decision_var": 0.01745899825135617, "response": "down", "rt": 0.3181547909916844, "FB": 1, "quest_estimate": 0.011476066781682531, "trial_time": 3.283938731998205}
{"FBDuration": 0.5, "FBonset": 0, "ITI": 0.25641390451189794, "displayFB": true, "onset": 48.826698506350596, "punishment_amount": 0, "responseWindow": 1.5, "reward_amount": 1, "stim": {"motionDirection": "out", "oriBase": 30, "oriDirection": -1, "oriStrength": "medium", "speedDirection": 1, "speedStrength": "medium", "speed_start": 0.12, "speed_end": 0.13450665255589622, "ori_start": 30, "ori_end": 29.63285242510428, "motion_direction": "out"}, "stimResponseInterval": 0.5859366187152242, "stimulusDuration": 1.5, "trial_count": 11, "ts": "motion", "exp_stage": "adaptive_procedure", "decision_var": 0.014506652555896234, "response": "up", "rt": 0.3726626249990659, "FB": 1, "quest_estimate": 0.008935309249097523, "trial_time": 2.9862659189966507}
{"FBDuration": 0.5, "FBonset": 0, "ITI": 0.009300988817695033, "displayFB": true, "onset": 53.16904902957772, "punishment_amount": 0, "responseWindow": 1.5, "reward_amount": 1, "stim": {"motionDirection": "out", "oriBase": 30, "oriDirection": 1, "oriStrength": "medium", "speedDirection": -1, "speedStrength": "medium", "speed_start": 0.12, "speed_end": 0.10829068621162069, "ori_start": 30, "ori_end": 30.36714757489572, "motion_direction": "out"}, "stimResponseInterval": 0.0565607808368096, "stimulusDuration": 1.5, "trial_count": 12, "ts": "motion", "exp_stage": "adaptive_procedure", "decision_var": 0.011709313788379305, "response": "down", "rt": 0.47149250299844425, "FB": 1, "quest_estimate": 0.006527043032591891, "trial_time": 2.5610484999924665}
{"FBDuration": 0.5, "FBonset": 0, "ITI": 0.47924326185128474, "displayFB": true, "onset": 56.734910799232225, "punishment_amount": 0, "responseWindow": 1.5, "reward_amount": 1, "stim": {"motionDirection": "out", "oriBase": -60, "oriDirection": -1, "oriStrength": "medium", "speedDirection": -1, "speedStrength": "medium", "speed_start": 0.12, "speed_end": 0.11094075786574877, "ori_start": -60, "ori_end": -60.367147574895725, "motion_direction": "out"}, "stimResponseInterval": 0.557631698597906, "stimulusDuration": 1.5, "trial_count": 13, "ts": "motion", "exp_stage": "adaptive_procedure", "decision_var": 0.00905924213425123, "response": "down", "rt": 0.44151411499478854, "FB": 1, "quest_estimate": 0.004245600171265816, "trial_time": 3.0323419720079983}
{"FBDuration": 0.5, "FBonset": 0, "ITI": 0.44767093765682586, "displayFB": true, "onset": 61.271785759681414, "punishment_amount": 0, "responseWindow": 1.5, "reward_amount": 1, "stim": {"motionDirection": "in", "oriBase": -60, "oriDirection": 1, "oriStrength": "medium", "speedDirection": -1, "speedStrength": "medium", "speed_start": 0.12, "speed_end": 0.11345117827223297, "ori_start": -60, "ori_end": -59.632852425104275, "motion_direction": "in"}, "stimResponseInterval": 0.9976923813361296, "stimulusDuration": 1.5, "trial_count": 14, "ts": "motion", "exp_stage": "adaptive_procedure", "decision_var": 0.0065488217277670235, "response": "down", "rt": 0.4926123089971952, "FB": 1, "quest_estimate": 0.0020851086509033404, "trial_time": 3.518832989007933}
{"FBDuration": 0.5, "FBonset": 0, "ITI": 0.3006160682011467, "displayFB": true, "onset": 66.21714907867437, "punishment_amount": 0, "responseWindow": 1.5, "reward_amount": 1, "stim": {"motionDirection": "out", "oriBase": 30, "oriDirection": 1, "oriStrength": "medium", "speedDirection": 1, "speedStrength": "medium", "speed_start": 0.12, "speed_end": 0.12417119585760936, "ori_start": 30, "ori_end": 30.36714757489572, "motion_direction": "out"}, "stimResponseInterval": 0.5867612045109554, "stimulusDuration": 1.5, "trial_count": 15, "ts": "motion", "exp_stage": "adaptive_procedure", "decision_var": 0.004171195857609354, "response": "up", "rt": 0.39216052000119817, "FB": 1, "quest_estimate": 3.9654507137651396e-05, "trial_time": 3.0101580759946955}
{"FBDuration": 0.5, "FBonset": 0, "ITI": 0.9499434083455234, "displayFB": true, "onset": 70.60452635138647, "punishment_amount": 0, "responseWindow": 1.5, "reward_amount": 1, "stim": {"motionDirection": "in", "oriBase": -60, "oriDirection": -1, "oriStrength": "medium", "speedDirection": -1, "speedStrength": "medium", "speed_start": 0.12, "speed_end": 0.11808087460688269, "ori_start": -60, "ori_end": -60.367147574895725, "motion_direction": "in"}, "stimResponseInterval": 0.9487884679849623, "stimulusDuration": 1.5, "trial_count": 16, "ts": "motion", "exp_stage": "adaptive_procedure", "decision_var": 0.0019191253931173033, "response": "up", "rt": 0.43357621699396987, "FB": 0, "quest_estimate": 0.006870213233899886, "trial_time": 3.4083208719966933}
{"FBDuration": 0.5, "FBonset": 0, "ITI": 0.44938772866795273, "displayFB": true, "onset": 76.00325822771696, "punishment_amount": 0, "responseWindow": 1.5, "reward_amount": 1, "stim": {"motionDirection": "in", "oriBase": -60, "oriDirection": -1, "oriStrength": "medium", "speedDirection": 1, "speedStrength": "medium", "speed_start": 0.12, "speed_end": 0.12964374426673436, "ori_start": -60, "ori_end": -60.367147574895725, "motion_direction": "in"}, "stimResponseInterval": 0.7687831219411398, "stimulusDuration": 1.5, "trial_count": 17, "ts": "motion", "exp_stage": "adaptive_procedure", "decision_var": 0.009643744266734366, "response": "down", "rt": 0.28588785899046343, "FB": 0, "quest_estimate": 0.01468877739491236, "trial_time": 3.0798414750024676}
{"FBDuration": 0.5, "FBonset": 0, "ITI": 0.1731921585051407, "displayFB": true, "onset": 80.72142907832605, "punishment_amount": 0, "responseWindow": 1.5, "reward_amount": 1, "stim": {"motionDirection": "out", "oriBase": 30, "oriDirection": 1, "oriStrength": "medium", "speedDirection": 1, "speedStrength": "medium", "speed_start": 0.12, "speed_end": 0.13834463440956313, "ori_start": 30, "ori_end": 30.36714757489572, "motion_direction": "out"}, "stimResponseInterval": 0.6811879471382487, "stimulusDuration": 1.5, "trial_count": 18, "ts": "motion", "exp_stage": "adaptive_procedure", "decision_var": 0.018344634409563118, "response": "up", "rt": 0.26865390400053, "FB": 1, "quest_estimate": 0.012225483916100531, "trial_time": 2.988139098000829}
{"FBDuration": 0.5, "FBonset": 0, "ITI": 0.39057742421432606, "displayFB": true, "onset": 85.07580918396944, "punishment_amount": 0, "responseWindow": 1.5, "reward_amount": 1, "stim": {"motionDirection": "in", "oriBase": 30, "oriDirection": 1, "oriStrength": "medium", "speedDirection": 1, "speedStrength": "medium", "speed_start": 0.12, "speed_end": 0.13566965784918167, "ori_start": 30, "ori_end": 30.36714757489572, "motion_direction": "in"}, "stimResponseInterval": 0.9794677275838648, "stimulusDuration": 1.5, "trial_count": 19, "ts": "motion", "exp_stage": "adaptive_procedure", "decision_var": 0.01566965784918166, "response": "down", "rt": 0.33364001801237464, "FB": 0, "quest_estimate": 0.020631466534799983, "trial_time": 3.345915206009522}
{"FBDuration": 0.5, "FBonset": 0, "ITI": 0.3486934106457631, "displayFB": true, "onset": 89.94585433576763, "punishment_amount": 0, "responseWindow": 1.5, "reward_amount": 1, "stim": {"motionDirection": "in", "oriBase": -60, "oriDirection": 1, "oriStrength": "medium", "speedDirection": 1, "speedStrength": "medium", "speed_start": 0.12, "speed_end": 0.14487934863544039, "ori_start": -60, "ori_end": -59.632852425104275, "motion_direction": "in"}, "stimResponseInterval": 0.965484090127104, "stimulusDuration": 1.5, "trial_count": 20, "ts": "motion", "exp_stage": "adaptive_procedure", "decision_var": 0.024879348635440376, "response": "up", "rt": 0.30807315499987453, "FB": 1, "quest_estimate": 0.01804140775822722, "trial_time": 3.301123766999808}
{"FBDuration": 0.5, "FBonset": 0, "ITI": 0.025352712512663134, "displayFB": true, "onset": 94.7600318365405, "punishment_amount": 0, "responseWindow": 1.5, "reward_amount": 1, "stim": {"motionDirection": "in", "oriBase": -60, "oriDirection": -1, "oriStrength": "medium", "speedDirection": -1, "speedStrength": "medium", "speed_start": 0.12, "speed_end": 0.09791037650021578, "ori_start": -60, "ori_end": -60.367147574895725, "motion_direction": "in"}, "stimResponseInterval": 0.10690564788687895, "stimulusDuration": 1.5, "trial_count": 21, "ts": "motion", "exp_stage": "adaptive_procedure", "decision_var": 0.022089623499784217, "response": "down", "rt": 0.468752418004442, "FB": 1, "quest_estimate": 0.015560817252198413, "trial_time": 2.6027645690046484}
{"FBDuration": 0.5, "FBonset": 0, "ITI": 0.014185657634713023, "displayFB": true, "onset": 98.39229019694005, "punishment_amount": 0, "responseWindow": 1.5, "reward_amount": 1, "stim": {"motionDirection": "out", "oriBase": 30, "oriDirection": -1, "oriStrength": "medium", "speedDirection": -1, "speedStrength": "medium", "speed_start": 0.12, "speed_end": 0.10058201221828403, "ori_start": 30, "ori_end": 29.63285242510428, "motion_direction": "out"}, "stimResponseInterval": 0.7720341360366225, "stimulusDuration": 1.5, "trial_count": 22, "ts": "motion", "exp_stage": "adaptive_procedure", "decision_var": 0.01941798778171596, "response": "down", "rt": 0.2866424889944028, "FB": 1, "quest_estimate": 0.013186495836059735, "trial_time": 3.0861415099934675}
{"FBDuration": 0.5, "FBonset": 0, "ITI": 0.04712943935414715, "displayFB": true, "onset": 102.67850999061139, "punishment_amount": 0, "responseWindow": 1.5, "reward_amount": 1, "stim": {"motionDirection": "in", "oriBase": -60, "oriDirection": -1, "oriStrength": "medium", "speedDirection": 1, "speedStrength": "medium", "speed_start": 0.12, "speed_end": 0.13685925429951293, "ori_start": -60, "ori_end": -60.367147574895725, "motion_direction": "in"}, "stimResponseInterval": 0.8545510549290423, "stimulusDuration": 1.5, "trial_count": 23, "ts": "motion", "exp_stage": "adaptive_procedure", "decision_var": 0.016859254299512932, "response": "up", "rt": 0.30137352499878034, "FB": 1, "quest_estimate": 0.01091495389112733, "trial_time": 3.196447102003731}
{"FBDuration": 0.5, "FBonset": 0, "ITI": 0.4473040116075605, "displayFB": true, "onset": 107.08019048489457, "punishment_amount": 0, "responseWindow": 1.5, "reward_amount": 1, "stim": {"motionDirection": "in", "oriBase": -60, "oriDirection": 1, "oriStrength": "medium", "speedDirection": -1, "speedStrength": "medium", "speed_start": 0.12, "speed_end": 0.10559165183562531, "ori_start": -60, "ori_end": -59.632852425104275, "motion_direction": "in"}, "stimResponseInterval": 0.30419580712856575, "stimulusDuration": 1.5, "trial_count": 24, "ts": "motion", "exp_stage": "adaptive_procedure", "decision_var": 0.014408348164374682, "response": "down", "rt": 0.47391410599811934, "FB": 1, "quest_estimate": 0.008742601779692938, "trial_time": 2.8143890149949584}
{"FBDuration": 0.5, "FBonset": 0, "ITI": 0.9322258924973563, "displayFB": true, "onset": 111.3316903036307, "punishment_amount": 0, "responseWindow": 1.5, "reward_amount": 1, "stim": {"motionDirection": "out", "oriBase": -60, "oriDirection": -1, "oriStrength": "medium", "speedDirection": 1, "speedStrength": "medium", "speed_start": 0.12, "speed_end": 0.1320607039022048, "ori_start": -60, "ori_end": -60.367147574895725, "motion_direction": "out"}, "stimResponseInterval": 0.7362904881151144, "stimulusDuration": 1.5, "trial_count": 25, "ts": "motion", "exp_stage": "adaptive_procedure", "decision_var": 0.012060703902204803, "response": "down", "rt": 0.3623116579983616, "FB": 0, "quest_estimate": 0.016147375873224408, "trial_time": 3.132194520003395}
{"FBDuration": 0.5, "FBonset": 0, "ITI": 0.06414756756907458, "displayFB": true, "onset": 116.50020668424317, "punishment_amount": 0, "responseWindow": 1.5, "reward_amount": 1, "stim": {"motionDirection": "in", "oriBase": 30, "oriDirection": -1, "oriStrength": "medium", "speedDirection": 1, "speedStrength": "medium", "speed_start": 0.12, "speed_end": 0.14013806234150436, "ori_start": 30, "ori_end": 29.63285242510428, "motion_direction": "in"}, "stimResponseInterval": 0.1280018575971653, "stimulusDuration": 1.5, "trial_count": 26, "ts": "motion", "exp_stage": "adaptive_procedure", "decision_var": 0.02013806234150437, "response": "up", "rt": 0.368479701995966, "FB": 1, "quest_estimate": 0.013862142148574882, "trial_time": 2.5256565580057213}
{"FBDuration": 0.5, "FBonset": 0, "ITI": 0.7617817604267105, "displayFB": true, "onset": 120.1923561094094, "punishment_amount": 0, "responseWindow": 1.5, "reward_amount": 1, "stim": {"motionDirection": "out", "oriBase": 30, "oriDirection": 1, "oriStrength": "medium", "speedDirection": -1, "speedStrength": "medium", "speed_start": 0.12, "speed_end": 0.10230813418282345, "ori_start": 30, "ori_end": 30.36714757489572, "motion_direction": "out"}, "stimResponseInterval": 0.5222434831844485, "stimulusDuration": 1.5, "trial_count": 27, "ts": "motion", "exp_stage": "adaptive_procedure", "decision_var": 0.017691865817176543, "response": "down", "rt": 0.3033856240072055, "FB": 1, "quest_estimate": 0.011670219322446614, "trial_time": 2.861966782991658}
{"FBDuration": 0.5, "FBonset": 0, "ITI": 0.9451767262574691, "displayFB": true, "onset": 124.97638135302056, "punishment_amount": 0, "responseWindow": 1.5, "reward_amount": 1, "stim": {"motionDirection": "out", "oriBase": 30, "oriDirection": -1, "oriStrength": "medium", "speedDirection": -1, "speedStrength": "medium", "speed_start": 0.12, "speed_end": 0.10465800333901498, "ori_start": 30, "ori_end": 29.63285242510428, "motion_direction": "out"}, "stimResponseInterval": 0.8399884120389842, "stimulusDuration": 1.5, "trial_count": 28, "ts": "motion", "exp_stage": "adaptive_procedure", "decision_var": 0.015341996660985006, "response": "down", "rt": 0.3220433440001216, "FB": 1, "quest_estimate": 0.009568462834414121, "trial_time": 3.196398924992536}
{"FBDuration": 0.5, "FBonset": 0, "ITI": 0.5937862463739774, "displayFB": true, "onset": 130.261546491317, "punishment_amount": 0, "responseWindow": 1.5, "reward_amount": 1, "stim": {"motionDirection": "in", "oriBase": 30, "oriDirection": -1, "oriStrength": "medium", "speedDirection": -1, "speedStrength": "medium", "speed_start": 0.12, "speed_end": 0.10691560004596817, "ori_start": 30, "ori_end": 29.63285242510428, "motion_direction": "in"}, "stimResponseInterval": 0.5514482639705647, "stimulusDuration": 1.5, "trial_count": 29, "ts": "motion", "exp_stage": "adaptive_procedure", "decision_var": 0.013084399954031815, "response": "down", "rt": 0.24855027100420557, "FB": 1, "quest_estimate": 0.007553481707736037, "trial_time": 2.8303692739864346}
{"FBDuration": 0.5, "FBonset": 0, "ITI": 0.767676688954704, "displayFB": true, "onset": 134.90678100166156, "punishment_amount": 0, "responseWindow": 1.5, "reward_amount": 1, "stim": {"motionDirection": "in", "oriBase": 30, "oriDirection": 1, "oriStrength": "medium", "speedDirection": -1, "speedStrength": "medium", "speed_start": 0.12, "speed_end": 0.10908502514384957, "ori_start": 30, "ori_end": 30.36714757489572, "motion_direction": "in"}, "stimResponseInterval": 0.9841023448160706, "stimulusDuration": 1.5, "trial_count": 30, "ts": "motion", "exp_stage": "adaptive_procedure", "decision_var": 0.010914974856150415, "response": "down", "rt": 0.2929046850040322, "FB": 1, "quest_estimate": 0.005622028394237713, "trial_time": 3.311264994001249}
{"FBDuration": 0.5, "FBonset": 0, "ITI": 0.8374435871939303, "displayFB": true, "onset": 140.15856003543234, "punishment_amount": 0, "responseWindow": 1.5, "reward_amount": 1, "stim": {"motionDirection": "out", "oriBase": -60, "oriDirection": -1, "oriStrength": "medium", "speedDirection": 1, "speedStrength": "medium", "speed_start": 0.12, "speed_end": 0.12883018248864617, "ori_start": -60, "ori_end": -60.367147574895725, "motion_direction": "out"}, "stimResponseInterval": 0.06860540796000192, "stimulusDuration": 1.5, "trial_count": 31, "ts": "motion", "exp_stage": "adaptive_procedure", "decision_var": 0.008830182488646171, "response": "up", "rt": 0.3810236309946049, "FB": 1, "quest_estimate": 0.003770818901317065, "trial_time": 2.478702079009963}
{"FBDuration": 0.5, "FBonset": 0, "ITI": 0.97529041406474, "displayFB": true, "onset": 144.56460903058627, "punishment_amount": 0, "responseWindow": 1.5, "reward_amount": 1, "stim": {"motionDirection": "in", "oriBase": 30, "oriDirection": 1, "oriStrength": "medium", "speedDirection": -1, "speedStrength": "medium", "speed_start": 0.12, "speed_end": 0.11317365675153743, "ori_start": 30, "ori_end": 30.36714757489572, "motion_direction": "in"}, "stimResponseInterval": 0.6780849150849639, "stimulusDuration": 1.5, "trial_count": 32, "ts": "motion", "exp_stage": "adaptive_procedure", "decision_var": 0.0068263432484625755, "response": "down", "rt": 0.34638828299648594, "FB": 1, "quest_estimate": 0.001996675171435369, "trial_time": 3.063554826992913}
