{"FBDuration": 0.5, "FBonset": 0, "ITI": 0.9324308585754122, "displayFB": true, "onset": 2, "punishment_amount": 0, "responseWindow": 1.5, "reward_amount": 1, "stim": {"motionDirection": "out", "oriBase": -60, "oriDirection": -1, "oriStrength": "medium", "speedDirection": -1, "speedStrength": "medium", "speed_start": 0.12, "speed_end": 0.11453408090015227, "ori_start": -60, "ori_end": -64.26143725195472, "motion_direction": "out"}, "stimResponseInterval": 0.8257993501018173, "stimulusDuration": 1.5, "trial_count": 1, "ts": "orientation", "exp_stage": "adaptive_procedure", "decision_var": 4.261437251954721, "response": "right", "rt": 0.3327221640065545, "FB": 0, "quest_estimate": 4.306129201582237, "trial_time": 3.2035210140020354}
{"FBDuration": 0.5, "FBonset": 0, "ITI": 0.7430532208329912, "displayFB": true, "onset": 7.2582302086772295, "punishment_amount": 0, "responseWindow": 1.5, "reward_amount": 1, "stim": {"motionDirection": "out", "oriBase": -60, "oriDirection": 1, "oriStrength": "medium", "speedDirection": 1, "speedStrength": "medium", "speed_start": 0.12, "speed_end": 0.12546591909984772, "ori_start": -60, "ori_end": -55.7372041955164, "motion_direction": "out"}, "stimResponseInterval": 0.5005788838359702, "stimulusDuration": 1.5, "trial_count": 2, "ts": "orientation", "exp_stage": "adaptive_procedure", "decision_var": 4.2627958044835985, "response": "right", "rt": 0.285726882997551, "FB": 1, "quest_estimate": 4.305181428497718, "trial_time": 2.8245145919936476}
{"FBDuration": 0.5, "FBonset": 0, "ITI": 0.7239749577538737, "displayFB": true, "onset": 12.00186231334619, "punishment_amount": 0, "responseWindow": 1.5, "reward_amount": 1, "stim": {"motionDirection": "out", "oriBase": -60, "oriDirection": -1, "oriStrength": "medium", "speedDirection": 1, "speedStrength": "medium", "speed_start": 0.12, "speed_end": 0.12546591909984772, "ori_start": -60, "ori_end": -64.26217885178782, "motion_direction": "out"}, "stimResponseInterval": 0.8189064656560237, "stimulusDuration": 1.5, "trial_count": 3, "ts": "orientation", "exp_stage": "adaptive_procedure", "decision_var": 4.2621788517878265, "response": "left", "rt": 0.24823553499300033, "FB": 1, "quest_estimate": 4.304372894304301, "trial_time": 3.0970442640100373}
{"FBDuration": 0.5, "FBonset": 0, "ITI": 0.7917145265838472, "displayFB": true, "onset": 17.04474373675609, "punishment_amount": 0, "responseWindow": 1.5, "reward_amount": 1, "stim": {"motionDirection": "out", "oriBase": 30, "oriDirection": -1, "oriStrength": "medium", "speedDirection": -1, "speedStrength": "medium", "speed_start": 0.12, "speed_end": 0.11453408090015227, "ori_start": 30, "ori_end": 25.738338833853323, "motion_direction": "out"}, "stimResponseInterval": 0.18195200367668496, "stimulusDuration": 1.5, "trial_count": 4, "ts": "orientation", "exp_stage": "adaptive_procedure", "decision_var": 4.261661166146677, "response": "left", "rt": 0.38518348000070546, "FB": 1, "quest_estimate": 4.30368441312288, "trial_time": 2.606147761005559}
{"FBDuration": 0.5, "FBonset": 0, "ITI": 0.8908496230840375, "displayFB": true, "onset": 21.51841026701662, "punishment_amount": 0, "responseWindow": 1.5, "reward_amount": 1, "stim": {"motionDirection": "out", "oriBase": 30, "oriDirection": -1, "oriStrength": "medium", "speedDirection": -1, "speedStrength": "medium", "speed_start": 0.12, "speed_end": 0.11453408090015227, "ori_start": 30, "ori_end": 25.738773453554305, "motion_direction": "out"}, "stimResponseInterval": 0.8848903614159658, "stimulusDuration": 1.5, "trial_count": 5, "ts": "orientation", "exp_stage": "adaptive_procedure", "decision_var": 4.261226546445695, "response": "left", "rt": 0.28385958199214656, "FB": 1, "quest_estimate": 4.303098920831896, "trial_time": 3.2045612140063895}
{"FBDuration": 0.5, "FBonset": 0, "ITI": 0.7388480512297191, "displayFB": true, "onset": 26.794150251516623, "punishment_amount": 0, "responseWindow": 1.5, "reward_amount": 1, "stim": {"motionDirection": "in", "oriBase": -60, "oriDirection": 1, "oriStrength": "medium", "speedDirection": -1, "speedStrength": "medium", "speed_start": 0.12, "speed_end": 0.11453408090015227, "ori_start": -60, "ori_end": -55.73913856838661, "motion_direction": "in"}, "stimResponseInterval": 0.31212589890495834, "stimulusDuration": 1.5, "trial_count": 6, "ts": "orientation", "exp_stage": "adaptive_procedure", "decision_var": 4.260861431613396, "response": "right", "rt": 0.31556007599283475, "FB": 1, "quest_estimate": 4.302601374587258, "trial_time": 2.65667127299821}
{"FBDuration": 0.5, "FBonset": 0, "ITI": 0.7358673137306422, "displayFB": true, "onset": 31.345124201651302, "punishment_amount": 0, "responseWindow": 1.5, "reward_amount": 1, "stim": {"motionDirection": "in", "oriBase": -60, "oriDirection": -1, "oriStrength": "medium", "speedDirection": -1, "speedStrength": "medium", "speed_start": 0.12, "speed_end": 0.11453408090015227, "ori_start": -60, "ori_end": -64.26055445987261, "motion_direction": "in"}, "stimResponseInterval": 0.9392247536787166, "stimulusDuration": 1.5, "trial_count": 7, "ts": "orientation", "exp_stage": "adaptive_procedure", "decision_var": 4.260554459872608, "response": "left", "rt": 0.5687845960055711, "FB": 1, "quest_estimate": 4.302178605605128, "trial_time": 3.5378650780039607}
{"FBDuration": 0.5, "FBonset": 0, "ITI": 0.7237245414082771, "displayFB": true, "onset": 36.52021626906066, "punishment_amount": 0, "responseWindow": 1.5, "reward_amount": 1, "stim": {"motionDirection": "out", "oriBase": 30, "oriDirection": -1, "oriStrength": "medium", "speedDirection": -1, "speedStrength": "medium", "speed_start": 0.12, "speed_end": 0.11453408090015227, "ori_start": 30, "ori_end": 25.739703897822334, "motion_direction": "out"}, "stimResponseInterval": 0.9627024567366211, "stimulusDuration": 1.5, "trial_count": 8, "ts": "orientation", "exp_stage": "adaptive_procedure", "decision_var": 4.260296102177666, "response": "left", "rt": 0.2644784190051723, "FB": 1, "quest_estimate": 4.3018191464636075, "trial_time": 3.2667806739918888}
{"FBDuration": 0.5, "FBonset": 0, "ITI": 0.27938285716175293, "displayFB": true, "onset": 41.70664326720556, "punishment_amount": 0, "responseWindow": 1.5, "reward_amount": 1, "stim": {"motionDirection": "out", "oriBase": 30, "oriDirection": 1, "oriStrength": "medium", "speedDirection": 1, "speedStrength": "medium", "speed_start": 0.12, "speed_end": 0.12546591909984772, "ori_start": 30, "ori_end": 34.26007835680726, "motion_direction": "out"}, "stimResponseInterval": 0.8442784959634966, "stimulusDuration": 1.5, "trial_count": 9, "ts": "orientation", "exp_stage": "adaptive_procedure", "decision_var": 4.260078356807263, "response": "left", "rt": 0.3167682560015237, "FB": 0, "quest_estimate": 4.3028419765343315, "trial_time": 3.2034253669989994}
{"FBDuration": 0.5, "FBonset": 0, "ITI": 0.5016089298842563, "displayFB": true, "onset": 46.33030462033081, "punishment_amount": 0, "responseWindow": 1.5, "reward_amount": 1, "stim": {"motionDirection": "in", "oriBase": 30, "oriDirection": -1, "oriStrength": "medium", "speedDirection": 1, "speedStrength": "medium", "speed_start": 0.12, "speed_end": 0.12546591909984772, "ori_start": 30, "ori_end": 25.739299436144844, "motion_direction": "in"}, "stimResponseInterval": 0.4742235241641448, "stimulusDuration": 1.5, "trial_count": 10, "ts": "orientation", "exp_stage": "adaptive_procedure", "decision_var": 4.260700563855156, "response": "left", "rt": 0.3638651060027769, "FB": 1, "quest_estimate": 4.302388223074296, "trial_time": 2.8722932770033367}
{"FBDuration": 0.5, "FBonset": 0, "ITI": 0.08585146520491405, "displayFB": true, "onset": 50.80613707437921, "punishment_amount": 0, "responseWindow": 1.5, "reward_amount": 1, "stim": {"motionDirection": "in", "oriBase": 30, "oriDirection": 1, "oriStrength": "medium", "speedDirection": -1, "speedStrength": "medium", "speed_start": 0.12, "speed_end": 0.11453408090015227, "ori_start": 30, "ori_end": 34.26042122662366, "motion_direction": "in"}, "stimResponseInterval": 0.47244203908881766, "stimulusDuration": 1.5, "trial_count": 11, "ts": "orientation", "exp_stage": "adaptive_procedure", "decision_var": 4.2604212266236665, "response": "right", "rt": 0.30430587600858416, "FB": 1, "quest_estimate": 4.302003358743537, "trial_time": 2.820512967009563}
{"FBDuration": 0.5, "FBonset": 0, "ITI": 0.5851569802253074, "displayFB": true, "onset": 54.86443057867294, "punishment_amount": 0, "responseWindow": 1.5, "reward_amount": 1, "stim": {"motionDirection": "in", "oriBase": -60, "oriDirection": -1, "oriStrength": "medium", "speedDirection": -1, "speedStrength": "medium", "speed_start": 0.12, "speed_end": 0.11453408090015227, "ori_start": -60, "ori_end": -64.26018631114296, "motion_direction": "in"}, "stimResponseInterval": 0.9944462219778263, "stimulusDuration": 1.5, "trial_count": 12, "ts": "orientation", "exp_stage": "adaptive_procedure", "decision_var": 4.260186311142963, "response": "left", "rt": 0.06546669000817928, "FB": 1, "quest_estimate": 4.301676868156843, "trial_time": 3.098297314005322}
{"FBDuration": 0.5, "FBonset": 0, "ITI": 0.4419087814531283, "displayFB": true, "onset": 59.94403378087607, "punishment_amount": 0, "responseWindow": 1.5, "reward_amount": 1, "stim": {"motionDirection": "out", "oriBase": 30, "oriDirection": -1, "oriStrength": "medium", "speedDirection": 1, "speedStrength": "medium", "speed_start": 0.12, "speed_end": 0.12546591909984772, "ori_start": 30, "ori_end": 25.74001144314387, "motion_direction": "out"}, "stimResponseInterval": 0.4160755766884432, "stimulusDuration": 1.5, "trial_count": 13, "ts": "orientation", "exp_stage": "adaptive_procedure", "decision_var": 4.259988556856129, "response": "left", "rt": 0.3753299599920865, "FB": 1, "quest_estimate": 4.301399660658365, "trial_time": 2.835137134999968}
{"FBDuration": 0.5, "FBonset": 0, "ITI": 0.02384962966577242, "displayFB": true, "onset": 64.30201813901763, "punishment_amount": 0, "responseWindow": 1.5, "reward_amount": 1, "stim": {"motionDirection": "in", "oriBase": -60, "oriDirection": -1, "oriStrength": "medium", "speedDirection": 1, "speedStrength": "medium", "speed_start": 0.12, "speed_end": 0.12546591909984772, "ori_start": -60, "ori_end": -64.25982186241656, "motion_direction": "in"}, "stimResponseInterval": 0.19559111475618984, "stimulusDuration": 1.5, "trial_count": 14, "ts": "orientation", "exp_stage": "adaptive_procedure", "decision_var": 4.259821862416555, "response": "right", "rt": 0.4115919249888975, "FB": 0, "quest_estimate": 4.302189760548956, "trial_time": 2.6446976189909037}
{"FBDuration": 0.5, "FBonset": 0, "ITI": 0.3294127693462232, "displayFB": true, "onset": 68.02145888343959, "punishment_amount": 0, "responseWindow": 1.5, "reward_amount": 1, "stim": {"motionDirection": "out", "oriBase": 30, "oriDirection": 1, "oriStrength": "medium", "speedDirection": -1, "speedStrength": "medium", "speed_start": 0.12, "speed_end": 0.11453408090015227, "ori_start": 30, "ori_end": 34.26029823743529, "motion_direction": "out"}, "stimResponseInterval": 0.6651952815316031, "stimulusDuration": 1.5, "trial_count": 15, "ts": "orientation", "exp_stage": "adaptive_procedure", "decision_var": 4.260298237435293, "response": "right", "rt": 0.6472549440077273, "FB": 1, "quest_estimate": 4.301838849352389, "trial_time": 3.3509782340115635}
{"FBDuration": 0.5, "FBonset": 0, "ITI": 0.8830091416665256, "displayFB": true, "onset": 72.51606693431742, "punishment_amount": 0, "responseWindow": 1.5, "reward_amount": 1, "stim": {"motionDirection": "in", "oriBase": -60, "oriDirection": 1, "oriStrength": "medium", "speedDirection": 1, "speedStrength": "medium", "speed_start": 0.12, "speed_end": 0.12546591909984772, "ori_start": -60, "ori_end": -55.73991561770305, "motion_direction": "in"}, "stimResponseInterval": 0.2122666588375629, "stimulusDuration": 1.5, "trial_count": 16, "ts": "orientation", "exp_stage": "adaptive_procedure", "decision_var": 4.260084382296949, "response": "right", "rt": 0.39133389700145926, "FB": 1, "quest_estimate": 4.301541667403711, "trial_time": 2.6465975390019594}
{"FBDuration": 0.5, "FBonset": 0, "ITI": 0.48577169949156107, "displayFB": true, "onset": 77.1113427348215, "punishment_amount": 0, "responseWindow": 1.5, "reward_amount": 1, "stim": {"motionDirection": "in", "oriBase": -60, "oriDirection": 1, "oriStrength": "medium", "speedDirection": 1, "speedStrength": "medium", "speed_start": 0.12, "speed_end": 0.12546591909984772, "ori_start": -60, "ori_end": -55.740095497175716, "motion_direction": "in"}, "stimResponseInterval": 0.1877634604492847, "stimulusDuration": 1.5, "trial_count": 17, "ts": "orientation", "exp_stage": "adaptive_procedure", "decision_var": 4.259904502824284, "response": "right", "rt": 0.3905063349957345, "FB": 1, "quest_estimate": 4.301289890273917, "trial_time": 2.6112217259942554}
{"FBDuration": 0.5, "FBonset": 0, "ITI": 0.37151621853996286, "displayFB": true, "onset": 81.28487789476235, "punishment_amount": 0, "responseWindow": 1.5, "reward_amount": 1, "stim": {"motionDirection": "in", "oriBase": 30, "oriDirection": 1, "oriStrength": "medium", "speedDirection": 1, "speedStrength": "medium", "speed_start": 0.12, "speed_end": 0.12546591909984772, "ori_start": 30, "ori_end": 34.259753057266536, "motion_direction": "in"}, "stimResponseInterval": 0.6405668284963022, "stimulusDuration": 1.5, "trial_count": 18, "ts": "orientation", "exp_stage": "adaptive_procedure", "decision_var": 4.25975305726654, "response": "left", "rt": 0.27236007299507037, "FB": 0, "quest_estimate": 4.302006011108077, "trial_time": 2.941914524999447}
{"FBDuration": 0.5, "FBonset": 0, "ITI": 0.2159132526394143, "displayFB": true, "onset": 85.79696094179862, "punishment_amount": 0, "responseWindow": 1.5, "reward_amount": 1, "stim": {"motionDirection": "in", "oriBase": 30, "oriDirection": 1, "oriStrength": "medium", "speedDirection": 1, "speedStrength": "medium", "speed_start": 0.12, "speed_end": 0.12546591909984772, "ori_start": 30, "ori_end": 34.260185107865894, "motion_direction": "in"}, "stimResponseInterval": 0.7391595507908677, "stimulusDuration": 1.5, "trial_count": 19, "ts": "orientation", "exp_stage": "adaptive_procedure", "decision_var": 4.260185107865894, "response": "left", "rt": 0.3746758270135615, "FB": 0, "quest_estimate": 4.303074858281718, "trial_time": 3.1499554830079433}
{"FBDuration": 0.5, "FBonset": 0, "ITI": 0.602632270077093, "displayFB": true, "onset": 90.2520337452289, "punishment_amount": 0, "responseWindow": 1.5, "reward_amount": 1, "stim": {"motionDirection": "out", "oriBase": -60, "oriDirection": -1, "oriStrength": "medium", "speedDirection": 1, "speedStrength": "medium", "speed_start": 0.12, "speed_end": 0.12546591909984772, "ori_start": -60, "ori_end": -64.26084450216666, "motion_direction": "out"}, "stimResponseInterval": 0.21689869611701562, "stimulusDuration": 1.5, "trial_count": 20, "ts": "orientation", "exp_stage": "adaptive_procedure", "decision_var": 4.260844502166659, "response": "left", "rt": 0.38944484300736804, "FB": 1, "quest_estimate": 4.302591754496262, "trial_time": 2.638894684991101}
{"FBDuration": 0.5, "FBonset": 0, "ITI": 0.42011106157400024, "displayFB": true, "onset": 94.57156471142301, "punishment_amount": 0, "responseWindow": 1.5, "reward_amount": 1, "stim": {"motionDirection": "in", "oriBase": -60, "oriDirection": -1, "oriStrength": "medium", "speedDirection": 1, "speedStrength": "medium", "speed_start": 0.12, "speed_end": 0.12546591909984772, "ori_start": -60, "ori_end": -64.26054458500212, "motion_direction": "in"}, "stimResponseInterval": 0.8802311683317023, "stimulusDuration": 1.5, "trial_count": 21, "ts": "orientation", "exp_stage": "adaptive_procedure", "decision_var": 4.2605445850021155, "response": "right", "rt": 0.286907144007273, "FB": 0, "quest_estimate": 4.303951438135442, "trial_time": 3.199316761994851}
{"FBDuration": 0.5, "FBonset": 0, "ITI": 0.2986613533357295, "displayFB": true, "onset": 99.37190694132872, "punishment_amount": 0, "responseWindow": 1.5, "reward_amount": 1, "stim": {"motionDirection": "out", "oriBase": -60, "oriDirection": 1, "oriStrength": "medium", "speedDirection": 1, "speedStrength": "medium", "speed_start": 0.12, "speed_end": 0.12546591909984772, "ori_start": -60, "ori_end": -55.73860325351043, "motion_direction": "out"}, "stimResponseInterval": 0.13210007692076164, "stimulusDuration": 1.5, "trial_count": 22, "ts": "orientation", "exp_stage": "adaptive_procedure", "decision_var": 4.261396746489563, "response": "right", "rt": 0.4016581180039793, "FB": 1, "quest_estimate": 4.303336164467982, "trial_time": 2.5670002289989498}
{"FBDuration": 0.5, "FBonset": 0, "ITI": 0.6519165537523186, "displayFB": true, "onset": 103.30266837158521, "punishment_amount": 0, "responseWindow": 1.5, "reward_amount": 1, "stim": {"motionDirection": "in", "oriBase": 30, "oriDirection": 1, "oriStrength": "medium", "speedDirection": -1, "speedStrength": "medium", "speed_start": 0.12, "speed_end": 0.11453408090015227, "ori_start": 30, "ori_end": 34.26100842014047, "motion_direction": "in"}, "stimResponseInterval": 0.1215782407221998, "stimulusDuration": 1.5, "trial_count": 23, "ts": "orientation", "exp_stage": "adaptive_procedure", "decision_var": 4.261008420140467, "response": "right", "rt": 0.781022249997477, "FB": 1, "quest_estimate": 4.302814003181606, "trial_time": 2.940242794007645}
{"FBDuration": 0.5, "FBonset": 0, "ITI": 0.6707221947658113, "displayFB": true, "onset": 107.57616316605973, "punishment_amount": 0, "responseWindow": 1.5, "reward_amount": 1, "stim": {"motionDirection": "out", "oriBase": -60, "oriDirection": -1, "oriStrength": "medium", "speedDirection": -1, "speedStrength": "medium", "speed_start": 0.12, "speed_end": 0.11453408090015227, "ori_start": -60, "ori_end": -64.26068247252181, "motion_direction": "out"}, "stimResponseInterval": 0.9991474336322383, "stimulusDuration": 1.5, "trial_count": 24, "ts": "orientation", "exp_stage": "adaptive_procedure", "decision_var": 4.260682472521815, "response": "right", "rt": 0.3142135490052169, "FB": 0, "quest_estimate": 4.304282166434685, "trial_time": 3.34688497899333}
{"FBDuration": 0.5, "FBonset": 0, "ITI": 0.057698079901721266, "displayFB": true, "onset": 112.74603279445778, "punishment_amount": 0, "responseWindow": 1.5, "reward_amount": 1, "stim": {"motionDirection": "out", "oriBase": -60, "oriDirection": -1, "oriStrength": "medium", "speedDirection": -1, "speedStrength": "medium", "speed_start": 0.12, "speed_end": 0.11453408090015227, "ori_start": -60, "ori_end": -64.26160844753662, "motion_direction": "out"}, "stimResponseInterval": 0.46050791602035224, "stimulusDuration": 1.5, "trial_count": 25, "ts": "orientation", "exp_stage": "adaptive_procedure", "decision_var": 4.261608447536613, "response": "left", "rt": 0.3954640180018032, "FB": 1, "quest_estimate": 4.303617806371076, "trial_time": 2.8892779239977244}
{"FBDuration": 0.5, "FBonset": 0, "ITI": 0.42326823620899945, "displayFB": true, "onset": 116.76423879037985, "punishment_amount": 0, "responseWindow": 1.5, "reward_amount": 1, "stim": {"motionDirection": "in", "oriBase": 30, "oriDirection": -1, "oriStrength": "medium", "speedDirection": -1, "speedStrength": "medium", "speed_start": 0.12, "speed_end": 0.11453408090015227, "ori_start": 30, "ori_end": 25.73881370298465, "motion_direction": "in"}, "stimResponseInterval": 0.7696391646527545, "stimulusDuration": 1.5, "trial_count": 26, "ts": "orientation", "exp_stage": "adaptive_procedure", "decision_var": 4.26118629701535, "response": "left", "rt": 0.32465904399577994, "FB": 1, "quest_estimate": 4.303053445488736, "trial_time": 3.131343585002469}
{"FBDuration": 0.5, "FBonset": 0, "ITI": 0.8252805380290797, "displayFB": true, "onset": 121.4571461912416, "punishment_amount": 0, "responseWindow": 1.5, "reward_amount": 1, "stim": {"motionDirection": "out", "oriBase": -60, "oriDirection": -1, "oriStrength": "medium", "speedDirection": 1, "speedStrength": "medium", "speed_start": 0.12, "speed_end": 0.12546591909984772, "ori_start": -60, "ori_end": -64.26083196993008, "motion_direction": "out"}, "stimResponseInterval": 0.5805131188901815, "stimulusDuration": 1.5, "trial_count": 27, "ts": "orientation", "exp_stage": "adaptive_procedure", "decision_var": 4.260831969930084, "response": "left", "rt": 0.307615347992396, "FB": 1, "quest_estimate": 4.302574880017577, "trial_time": 2.9311395449913107}
{"FBDuration": 0.5, "FBonset": 0, "ITI": 0.23924328153487207, "displayFB": true, "onset": 126.36293984816086, "punishment_amount": 0, "responseWindow": 1.5, "reward_amount": 1, "stim": {"motionDirection": "in", "oriBase": -60, "oriDirection": -1, "oriStrength": "medium", "speedDirection": 1, "speedStrength": "medium", "speed_start": 0.12, "speed_end": 0.12546591909984772, "ori_start": -60, "ori_end": -64.26053453911916, "motion_direction": "in"}, "stimResponseInterval": 0.9673397570999156, "stimulusDuration": 1.5, "trial_count": 28, "ts": "orientation", "exp_stage": "adaptive_procedure", "decision_var": 4.260534539119156, "response": "left", "rt": 0.29783155099721625, "FB": 1, "quest_estimate": 4.302169665541861, "trial_time": 3.304232761991443}
{"FBDuration": 0.5, "FBonset": 0, "ITI": 0.5101407402028251, "displayFB": true, "onset": 131.06952288679565, "punishment_amount": 0, "responseWindow": 1.5, "reward_amount": 1, "stim": {"motionDirection": "out", "oriBase": -60, "oriDirection": 1, "oriStrength": "medium", "speedDirection": -1, "speedStrength": "medium", "speed_start": 0.12, "speed_end": 0.11453408090015227, "ori_start": -60, "ori_end": -55.73971515774463, "motion_direction": "out"}, "stimResponseInterval": 0.9344514567016846, "stimulusDuration": 1.5, "trial_count": 29, "ts": "orientation", "exp_stage": "adaptive_procedure", "decision_var": 4.260284842255373, "response": "right", "rt": 0.34035523599595763, "FB": 1, "quest_estimate": 4.301826975887618, "trial_time": 3.3095768920029514}
{"FBDuration": 0.5, "FBonset": 0, "ITI": 0.7800780972564634, "displayFB": true, "onset": 136.01411508370018, "punishment_amount": 0, "responseWindow": 1.5, "reward_amount": 1, "stim": {"motionDirection": "out", "oriBase": -60, "oriDirection": -1, "oriStrength": "medium", "speedDirection": -1, "speedStrength": "medium", "speed_start": 0.12, "speed_end": 0.11453408090015227, "ori_start": -60, "ori_end": -64.26007519503739, "motion_direction": "out"}, "stimResponseInterval": 0.36457224593689763, "stimulusDuration": 1.5, "trial_count": 30, "ts": "orientation", "exp_stage": "adaptive_procedure", "decision_var": 4.260075195037391, "response": "right", "rt": 0.6144649589987239, "FB": 0, "quest_estimate": 4.302794330807533, "trial_time": 3.0208867030014517}
{"FBDuration": 0.5, "FBonset": 0, "ITI": 0.6480296318965613, "displayFB": true, "onset": 140.65876542689352, "punishment_amount": 0, "responseWindow": 1.5, "reward_amount": 1, "stim": {"motionDirection": "out", "oriBase": 30, "oriDirection": 1, "oriStrength": "medium", "speedDirection": 1, "speedStrength": "medium", "speed_start": 0.12, "speed_end": 0.12546591909984772, "ori_start": 30, "ori_end": 34.260670943012514, "motion_direction": "out"}, "stimResponseInterval": 0.31637890695311266, "stimulusDuration": 1.5, "trial_count": 31, "ts": "orientation", "exp_stage": "adaptive_procedure", "decision_var": 4.260670943012514, "response": "right", "rt": 0.39560505800182, "FB": 1, "quest_estimate": 4.302355763927888, "trial_time": 2.744062429002952}
{"FBDuration": 0.5, "FBonset": 0, "ITI": 0.1535509692631002, "displayFB": true, "onset": 145.1231739657432, "punishment_amount": 0, "responseWindow": 1.5, "reward_amount": 1, "stim": {"motionDirection": "out", "oriBase": 30, "oriDirection": 1, "oriStrength": "medium", "speedDirection": 1, "speedStrength": "medium", "speed_start": 0.12, "speed_end": 0.12546591909984772, "ori_start": 30, "ori_end": 34.260399485383665, "motion_direction": "out"}, "stimResponseInterval": 0.9423834480740858, "stimulusDuration": 1.5, "trial_count": 32, "ts": "orientation", "exp_stage": "adaptive_procedure", "decision_var": 4.260399485383665, "response": "left", "rt": 0.3485080879909219, "FB": 0, "quest_estimate": 4.303591116834998, "trial_time": 3.3273854029976064}
{"FBDuration": 0.5, "FBonset": 0, "ITI": 0.0754797760969298, "displayFB": true, "onset": 149.7191083830804, "punishment_amount": 0, "responseWindow": 1.5, "reward_amount": 1, "stim": {"motionDirection": "out", "oriBase": 30, "oriDirection": 1, "oriStrength": "medium", "speedDirection": -1, "speedStrength": "medium", "speed_start": 0.12, "speed_end": 0.11453408090015227, "ori_start": 30, "ori_end": 34.26117072528166, "motion_direction": "out"}, "stimResponseInterval": 0.6763658529600378, "stimulusDuration": 1.5, "trial_count": 33, "ts": "orientation", "exp_stage": "adaptive_procedure", "decision_var": 4.261170725281655, "response": "right", "rt": 0.3566412059881259, "FB": 1, "quest_estimate": 4.303031490262615, "trial_time": 3.0754955019947374}
{"FBDuration": 0.5, "FBonset": 0, "ITI": 0.41493867732523804, "displayFB": true, "onset": 153.97095401213735, "punishment_amount": 0, "responseWindow": 1.5, "reward_amount": 1, "stim": {"motionDirection": "in", "oriBase": 30, "oriDirection": -1, "oriStrength": "medium", "speedDirection": -1, "speedStrength": "medium", "speed_start": 0.12, "speed_end": 0.11453408090015227, "ori_start": 30, "ori_end": 25.73918086747592, "motion_direction": "in"}, "stimResponseInterval": 0.9402218442923247, "stimulusDuration": 1.5, "trial_count": 34, "ts": "orientation", "exp_stage": "adaptive_procedure", "decision_var": 4.26081913252408, "response": "left", "rt": 0.3123664400045527, "FB": 1, "quest_estimate": 4.302556900381422, "trial_time": 3.2962835589860333}
{"FBDuration": 0.5, "FBonset": 0, "ITI": 0.4514329264211673, "displayFB": true, "onset": 158.82611453375492, "punishment_amount": 0, "responseWindow": 1.5, "reward_amount": 1, "stim": {"motionDirection": "in", "oriBase": -60, "oriDirection": 1, "oriStrength": "medium", "speedDirection": -1, "speedStrength": "medium", "speed_start": 0.12, "speed_end": 0.11453408090015227, "ori_start": -60, "ori_end": -55.73947601966334, "motion_direction": "in"}, "stimResponseInterval": 0.44203592570746986, "stimulusDuration": 1.5, "trial_count": 35, "ts": "orientation", "exp_stage": "adaptive_procedure", "decision_var": 4.260523980336657, "response": "right", "rt": 0.4070807770040119, "FB": 1, "quest_estimate": 4.302155041122997, "trial_time": 2.889168287991197}
{"FBDuration": 0.5, "FBonset": 0, "ITI": 0.18949397859903105, "displayFB": true, "onset": 163.21958338588357, "punishment_amount": 0, "responseWindow": 1.5, "reward_amount": 1, "stim": {"motionDirection": "in", "oriBase": 30, "oriDirection": 1, "oriStrength": "medium", "speedDirection": 1, "speedStrength": "medium", "speed_start": 0.12, "speed_end": 0.12546591909984772, "ori_start": 30, "ori_end": 34.26027619208268, "motion_direction": "in"}, "stimResponseInterval": 0.45411965590505876, "stimulusDuration": 1.5, "trial_count": 36, "ts": "orientation", "exp_stage": "adaptive_procedure", "decision_var": 4.260276192082678, "response": "right", "rt": 0.393649859004654, "FB": 1, "quest_estimate": 4.3018152025848195, "trial_time": 2.879152613997576}
{"FBDuration": 0.5, "FBonset": 0, "ITI": 0.1850794759901625, "displayFB": true, "onset": 167.36319702038764, "punishment_amount": 0, "responseWindow": 1.5, "reward_amount": 1, "stim": {"motionDirection": "in", "oriBase": -60, "oriDirection": 1, "oriStrength": "medium", "speedDirection": 1, "speedStrength": "medium", "speed_start": 0.12, "speed_end": 0.12546591909984772, "ori_start": -60, "ori_end": -55.73993184641063, "motion_direction": "in"}, "stimResponseInterval": 0.25118721530766286, "stimulusDuration": 1.5, "trial_count": 37, "ts": "orientation", "exp_stage": "adaptive_procedure", "decision_var": 4.260068153589369, "response": "right", "rt": 0.5007344210025622, "FB": 1, "quest_estimate": 4.301528119131973, "trial_time": 2.7956731599988416}
{"FBDuration": 0.5, "FBonset": 0, "ITI": 0.5122398104361627, "displayFB": true, "onset": 171.29946371168546, "punishment_amount": 0, "responseWindow": 1.5, "reward_amount": 1, "stim": {"motionDirection": "out", "oriBase": -60, "oriDirection": 1, "oriStrength": "medium", "speedDirection": -1, "speedStrength": "medium", "speed_start": 0.12, "speed_end": 0.11453408090015227, "ori_start": -60, "ori_end": -55.74010652347239, "motion_direction": "out"}, "stimResponseInterval": 0.37044511125148216, "stimulusDuration": 1.5, "trial_count": 38, "ts": "orientation", "exp_stage": "adaptive_procedure", "decision_var": 4.259893476527608, "response": "right", "rt": 0.3822297239967156, "FB": 1, "quest_estimate": 4.30128581384524, "trial_time": 2.791325958998641}
{"FBDuration": 0.5, "FBonset": 0, "ITI": 0.8311761267755036, "displayFB": true, "onset": 175.68214863337312, "punishment_amount": 0, "responseWindow": 1.5, "reward_amount": 1, "stim": {"motionDirection": "in", "oriBase": 30, "oriDirection": 1, "oriStrength": "medium", "speedDirection": 1, "speedStrength": "medium", "speed_start": 0.12, "speed_end": 0.12546591909984772, "ori_start": 30, "ori_end": 34.25974680028201, "motion_direction": "in"}, "stimResponseInterval": 0.25336765078237933, "stimulusDuration": 1.5, "trial_count": 39, "ts": "orientation", "exp_stage": "adaptive_procedure", "decision_var": 4.259746800282009, "response": "left", "rt": 0.3299650770059088, "FB": 0, "quest_estimate": 4.30197121161472, "trial_time": 2.624581843003398}
{"FBDuration": 0.5, "FBonset": 0, "ITI": 0.574293886219881, "displayFB": true, "onset": 180.266692410931, "punishment_amount": 0, "responseWindow": 1.5, "reward_amount": 1, "stim": {"motionDirection": "out", "oriBase": 30, "oriDirection": 1, "oriStrength": "medium", "speedDirection": 1, "speedStrength": "medium", "speed_start": 0.12, "speed_end": 0.12546591909984772, "ori_start": 30, "ori_end": 34.260163633338465, "motion_direction": "out"}, "stimResponseInterval": 0.43480339982246585, "stimulusDuration": 1.5, "trial_count": 40, "ts": "orientation", "exp_stage": "adaptive_procedure", "decision_var": 4.260163633338461, "response": "right", "rt": 0.30693042000348214, "FB": 1, "quest_estimate": 4.301660036279841, "trial_time": 2.783858668000903}
{"FBDuration": 0.5, "FBonset": 0, "ITI": 0.5637901542267514, "displayFB": true, "onset": 184.77578969697333, "punishment_amount": 0, "responseWindow": 1.5, "reward_amount": 1, "stim": {"motionDirection": "in", "oriBase": -60, "oriDirection": 1, "oriStrength": "medium", "speedDirection": 1, "speedStrength": "medium", "speed_start": 0.12, "speed_end": 0.12546591909984772, "ori_start": -60, "ori_end": -55.740026294774594, "motion_direction": "in"}, "stimResponseInterval": 0.9905884840506656, "stimulusDuration": 1.5, "trial_count": 41, "ts": "orientation", "exp_stage": "adaptive_procedure", "decision_var": 4.259973705225402, "response": "right", "rt": 0.38457346499490086, "FB": 1, "quest_estimate": 4.3013972925611945, "trial_time": 3.4113870689907344}
{"FBDuration": 0.5, "FBonset": 0, "ITI": 0.37909985797646606, "displayFB": true, "onset": 189.83016833525076, "punishment_amount": 0, "responseWindow": 1.5, "reward_amount": 1, "stim": {"motionDirection": "out", "oriBase": -60, "oriDirection": -1, "oriStrength": "medium", "speedDirection": 1, "speedStrength": "medium", "speed_start": 0.12, "speed_end": 0.12546591909984772, "ori_start": -60, "ori_end": -64.2598142306461, "motion_direction": "out"}, "stimResponseInterval": 0.28876730756753866, "stimulusDuration": 1.5, "trial_count": 42, "ts": "orientation", "exp_stage": "adaptive_procedure", "decision_var": 4.259814230646093, "response": "right", "rt": 0.37077838099503424, "FB": 0, "quest_estimate": 4.30214013559074, "trial_time": 2.692532268993091}
{"FBDuration": 0.5, "FBonset": 0, "ITI": 0.43454201187898434, "displayFB": true, "onset": 193.99803550079477, "punishment_amount": 0, "responseWindow": 1.5, "reward_amount": 1, "stim": {"motionDirection": "in", "oriBase": -60, "oriDirection": -1, "oriStrength": "medium", "speedDirection": 1, "speedStrength": "medium", "speed_start": 0.12, "speed_end": 0.12546591909984772, "ori_start": -60, "ori_end": -64.26026739950869, "motion_direction": "in"}, "stimResponseInterval": 0.547529164965417, "stimulusDuration": 1.5, "trial_count": 43, "ts": "orientation", "exp_stage": "adaptive_procedure", "decision_var": 4.260267399508688, "response": "left", "rt": 0.2868638759973692, "FB": 1, "quest_estimate": 4.301802887141399, "trial_time": 2.8687811590061756}
{"FBDuration": 0.5, "FBonset": 0, "ITI": 0.4363852176695512, "displayFB": true, "onset": 198.48010667763918, "punishment_amount": 0, "responseWindow": 1.5, "reward_amount": 1, "stim": {"motionDirection": "in", "oriBase": 30, "oriDirection": -1, "oriStrength": "medium", "speedDirection": -1, "speedStrength": "medium", "speed_start": 0.12, "speed_end": 0.11453408090015227, "ori_start": 30, "ori_end": 25.73993912898847, "motion_direction": "in"}, "stimResponseInterval": 0.07245661663625669, "stimulusDuration": 1.5, "trial_count": 44, "ts": "orientation", "exp_stage": "adaptive_procedure", "decision_var": 4.260060871011529, "response": "left", "rt": 0.429579889998422, "FB": 1, "quest_estimate": 4.301517991215828, "trial_time": 2.5389819490083028}
{"FBDuration": 0.5, "FBonset": 0, "ITI": 0.017127666334549985, "displayFB": true, "onset": 202.48894851194498, "punishment_amount": 0, "responseWindow": 1.5, "reward_amount": 1, "stim": {"motionDirection": "in", "oriBase": -60, "oriDirection": -1, "oriStrength": "medium", "speedDirection": -1, "speedStrength": "medium", "speed_start": 0.12, "speed_end": 0.11453408090015227, "ori_start": -60, "ori_end": -64.25988746097165, "motion_direction": "in"}, "stimResponseInterval": 0.704324024805147, "stimulusDuration": 1.5, "trial_count": 45, "ts": "orientation", "exp_stage": "adaptive_procedure", "decision_var": 4.259887460971651, "response": "left", "rt": 0.29899031900276896, "FB": 1, "quest_estimate": 4.301277542356651, "trial_time": 3.033994273006101}
{"FBDuration": 0.5, "FBonset": 0, "ITI": 0.8444163791700792, "displayFB": true, "onset": 206.71040020308467, "punishment_amount": 0, "responseWindow": 1.5, "reward_amount": 1, "stim": {"motionDirection": "out", "oriBase": 30, "oriDirection": -1, "oriStrength": "medium", "speedDirection": -1, "speedStrength": "medium", "speed_start": 0.12, "speed_end": 0.11453408090015227, "ori_start": 30, "ori_end": 25.740258147446404, "motion_direction": "out"}, "stimResponseInterval": 0.05945390266572581, "stimulusDuration": 1.5, "trial_count": 46, "ts": "orientation", "exp_stage": "adaptive_procedure", "decision_var": 4.259741852553596, "response": "left", "rt": 0.6448021260002861, "FB": 1, "quest_estimate": 4.301074761411005, "trial_time": 2.7482289369945647}
{"FBDuration": 0.5, "FBonset": 0, "ITI": 0.8330493905160301, "displayFB": true, "onset": 211.11427048492047, "punishment_amount": 0, "responseWindow": 1.5, "reward_amount": 1, "stim": {"motionDirection": "out", "oriBase": -60, "oriDirection": 1, "oriStrength": "medium", "speedDirection": 1, "speedStrength": "medium", "speed_start": 0.12, "speed_end": 0.12546591909984772, "ori_start": -60, "ori_end": -55.74038041677085, "motion_direction": "out"}, "stimResponseInterval": 0.9608799177323148, "stimulusDuration": 1.5, "trial_count": 47, "ts": "orientation", "exp_stage": "adaptive_procedure", "decision_var": 4.259619583229149, "response": "right", "rt": 0.3888248889998067, "FB": 1, "quest_estimate": 4.300903854880261, "trial_time": 3.392446789992391}
{"FBDuration": 0.5, "FBonset": 0, "ITI": 0.07527707125394001, "displayFB": true, "onset": 216.40819979316882, "punishment_amount": 0, "responseWindow": 1.5, "reward_amount": 1, "stim": {"motionDirection": "out", "oriBase": 30, "oriDirection": 1, "oriStrength": "medium", "speedDirection": -1, "speedStrength": "medium", "speed_start": 0.12, "speed_end": 0.11453408090015227, "ori_start": 30, "ori_end": 34.259516907167146, "motion_direction": "out"}, "stimResponseInterval": 0.18016662615525603, "stimulusDuration": 1.5, "trial_count": 48, "ts": "orientation", "exp_stage": "adaptive_procedure", "decision_var": 4.259516907167146, "response": "right", "rt": 0.4205800339987036, "FB": 1, "quest_estimate": 4.300759885609484, "trial_time": 2.6345780449919403}
{"FBDuration": 0.5, "FBonset": 0, "ITI": 0.45511133652390734, "displayFB": true, "onset": 220.163643490578, "punishment_amount": 0, "responseWindow": 1.5, "reward_amount": 1, "stim": {"motionDirection": "out", "oriBase": 30, "oriDirection": 1, "oriStrength": "medium", "speedDirection": -1, "speedStrength": "medium", "speed_start": 0.12, "speed_end": 0.11453408090015227, "ori_start": 30, "ori_end": 34.25943067985033, "motion_direction": "out"}, "stimResponseInterval": 0.9521100693218016, "stimulusDuration": 1.5, "trial_count": 49, "ts": "orientation", "exp_stage": "adaptive_procedure", "decision_var": 4.2594306798503325, "response": "left", "rt": 0.9121668310108362, "FB": 0, "quest_estimate": 4.301167958042846, "trial_time": 3.89563036999607}
{"FBDuration": 0.5, "FBonset": 0, "ITI": 0.6164372321052958, "displayFB": true, "onset": 225.07086489642373, "punishment_amount": 0, "responseWindow": 1.5, "reward_amount": 1, "stim": {"motionDirection": "out", "oriBase": 30, "oriDirection": -1, "oriStrength": "medium", "speedDirection": 1, "speedStrength": "medium", "speed_start": 0.12, "speed_end": 0.12546591909984772, "ori_start": 30, "ori_end": 25.740324249191715, "motion_direction": "out"}, "stimResponseInterval": 0.5302567356252759, "stimulusDuration": 1.5, "trial_count": 50, "ts": "orientation", "exp_stage": "adaptive_procedure", "decision_var": 4.2596757508082845, "response": "left", "rt": 0.31161947500368115, "FB": 1, "quest_estimate": 4.300982465363955, "trial_time": 2.8841083500010427}
{"FBDuration": 0.5, "FBonset": 0, "ITI": 0.5940073911336277, "displayFB": true, "onset": 229.7175588641543, "punishment_amount": 0, "responseWindow": 1.5, "reward_amount": 1, "stim": {"motionDirection": "in", "oriBase": 30, "oriDirection": 1, "oriStrength": "medium", "speedDirection": -1, "speedStrength": "medium", "speed_start": 0.12, "speed_end": 0.11453408090015227, "ori_start": 30, "ori_end": 34.259564103266385, "motion_direction": "in"}, "stimResponseInterval": 0.69163926665111, "stimulusDuration": 1.5, "trial_count": 51, "ts": "orientation", "exp_stage": "adaptive_procedure", "decision_var": 4.259564103266385, "response": "right", "rt": 0.3383047230017837, "FB": 1, "quest_estimate": 4.300826177491388, "trial_time": 3.0614141519909026}
{"FBDuration": 0.5, "FBonset": 0, "ITI": 0.6154703105151951, "displayFB": true, "onset": 234.50320552193904, "punishment_amount": 0, "responseWindow": 1.5, "reward_amount": 1, "stim": {"motionDirection": "in", "oriBase": -60, "oriDirection": 1, "oriStrength": "medium", "speedDirection": -1, "speedStrength": "medium", "speed_start": 0.12, "speed_end": 0.11453408090015227, "ori_start": -60, "ori_end": -55.7405296532244, "motion_direction": "in"}, "stimResponseInterval": 0.9684639829139126, "stimulusDuration": 1.5, "trial_count": 52, "ts": "orientation", "exp_stage": "adaptive_procedure", "decision_var": 4.259470346775597, "response": "right", "rt": 0.6843429820000893, "FB": 1, "quest_estimate": 4.300694559283187, "trial_time": 3.683752099997946}
{"FBDuration": 0.5, "FBonset": 0, "ITI": 0.17922272027446418, "displayFB": true, "onset": 239.58713981536815, "punishment_amount": 0, "responseWindow": 1.5, "reward_amount": 1, "stim": {"motionDirection": "in", "oriBase": 30, "oriDirection": -1, "oriStrength": "medium", "speedDirection": -1, "speedStrength": "medium", "speed_start": 0.12, "speed_end": 0.11453408090015227, "ori_start": 30, "ori_end": 25.740608388878407, "motion_direction": "in"}, "stimResponseInterval": 0.9758620678098078, "stimulusDuration": 1.5, "trial_count": 53, "ts": "orientation", "exp_stage": "adaptive_procedure", "decision_var": 4.259391611121593, "response": "left", "rt": 0.2883356870006537, "FB": 1, "quest_estimate": 4.30058375897492, "trial_time": 3.2973532949981745}
{"FBDuration": 0.5, "FBonset": 0, "ITI": 0.7748331895088043, "displayFB": true, "onset": 244.24222460345243, "punishment_amount": 0, "responseWindow": 1.5, "reward_amount": 1, "stim": {"motionDirection": "in", "oriBase": 30, "oriDirection": -1, "oriStrength": "medium", "speedDirection": 1, "speedStrength": "medium", "speed_start": 0.12, "speed_end": 0.12546591909984772, "ori_start": 30, "ori_end": 25.740674513466782, "motion_direction": "in"}, "stimResponseInterval": 0.49499567476010564, "stimulusDuration": 1.5, "trial_count": 54, "ts": "orientation", "exp_stage": "adaptive_procedure", "decision_var": 4.259325486533218, "response": "left", "rt": 0.35600543399050366, "FB": 1, "quest_estimate": 4.300490511027721, "trial_time": 2.8806476759928046}
{"FBDuration": 0.5, "FBonset": 0, "ITI": 0.9694174334514687, "displayFB": true, "onset": 249.01205346772133, "punishment_amount": 0, "responseWindow": 1.5, "reward_amount": 1, "stim": {"motionDirection": "out", "oriBase": -60, "oriDirection": 1, "oriStrength": "medium", "speedDirection": -1, "speedStrength": "medium", "speed_start": 0.12, "speed_end": 0.11453408090015227, "ori_start": -60, "ori_end": -55.74073005033332, "motion_direction": "out"}, "stimResponseInterval": 0.8121770513795501, "stimulusDuration": 1.5, "trial_count": 55, "ts": "orientation", "exp_stage": "adaptive_procedure", "decision_var": 4.259269949666681, "response": "left", "rt": 0.2937795079924399, "FB": 0, "quest_estimate": 4.300755115202481, "trial_time": 3.1350312709982973}
{"FBDuration": 0.5, "FBonset": 0, "ITI": 0.21473170719078727, "displayFB": true, "onset": 254.29364795255236, "punishment_amount": 0, "responseWindow": 1.5, "reward_amount": 1, "stim": {"motionDirection": "in", "oriBase": -60, "oriDirection": 1, "oriStrength": "medium", "speedDirection": -1, "speedStrength": "medium", "speed_start": 0.12, "speed_end": 0.11453408090015227, "ori_start": -60, "ori_end": -55.74057218867298, "motion_direction": "in"}, "stimResponseInterval": 0.6868704400528565, "stimulusDuration": 1.5, "trial_count": 56, "ts": "orientation", "exp_stage": "adaptive_procedure", "decision_var": 4.259427811327022, "response": "right", "rt": 0.27734082100505475, "FB": 1, "quest_estimate": 4.3006347892632135, "trial_time": 2.997328610988916}
{"FBDuration": 0.5, "FBonset": 0, "ITI": 0.9364454407213216, "displayFB": true, "onset": 258.695250099796, "punishment_amount": 0, "responseWindow": 1.5, "reward_amount": 1, "stim": {"motionDirection": "out", "oriBase": 30, "oriDirection": -1, "oriStrength": "medium", "speedDirection": 1, "speedStrength": "medium", "speed_start": 0.12, "speed_end": 0.12546591909984772, "ori_start": 30, "ori_end": 25.74064408850077, "motion_direction": "out"}, "stimResponseInterval": 0.003062833528984843, "stimulusDuration": 1.5, "trial_count": 57, "ts": "orientation", "exp_stage": "adaptive_procedure", "decision_var": 4.259355911499231, "response": "left", "rt": 0.5012744470004691, "FB": 1, "quest_estimate": 4.300533518071582, "trial_time": 2.5477535360114416}
{"FBDuration": 0.5, "FBonset": 0, "ITI": 0.08227637426061163, "displayFB": true, "onset": 263.1347583740463, "punishment_amount": 0, "responseWindow": 1.5, "reward_amount": 1, "stim": {"motionDirection": "in", "oriBase": -60, "oriDirection": -1, "oriStrength": "medium", "speedDirection": -1, "speedStrength": "medium", "speed_start": 0.12, "speed_end": 0.11453408090015227, "ori_start": -60, "ori_end": -64.25929552896086, "motion_direction": "in"}, "stimResponseInterval": 0.7905881887270021, "stimulusDuration": 1.5, "trial_count": 58, "ts": "orientation", "exp_stage": "adaptive_procedure", "decision_var": 4.259295528960866, "response": "left", "rt": 0.26118208700791, "FB": 1, "quest_estimate": 4.300448308334168, "trial_time": 3.0861187999980757}
{"FBDuration": 0.5, "FBonset": 0, "ITI": 0.4894487750645149, "displayFB": true, "onset": 267.50762293703394, "punishment_amount": 0, "responseWindow": 1.5, "reward_amount": 1, "stim": {"motionDirection": "in", "oriBase": 30, "oriDirection": 1, "oriStrength": "medium", "speedDirection": -1, "speedStrength": "medium", "speed_start": 0.12, "speed_end": 0.11453408090015227, "ori_start": 30, "ori_end": 34.259244816534576, "motion_direction": "in"}, "stimResponseInterval": 0.6874471642578861, "stimulusDuration": 1.5, "trial_count": 59, "ts": "orientation", "exp_stage": "adaptive_procedure", "decision_var": 4.259244816534579, "response": "right", "rt": 0.3103605130017968, "FB": 1, "quest_estimate": 4.300376627805893, "trial_time": 3.040114197996445}
{"FBDuration": 0.5, "FBonset": 0, "ITI": 0.09295228114919285, "displayFB": true, "onset": 272.1845188763563, "punishment_amount": 0, "responseWindow": 1.5, "reward_amount": 1, "stim": {"motionDirection": "out", "oriBase": 30, "oriDirection": -1, "oriStrength": "medium", "speedDirection": 1, "speedStrength": "medium", "speed_start": 0.12, "speed_end": 0.12546591909984772, "ori_start": 30, "ori_end": 25.74079777687432, "motion_direction": "out"}, "stimResponseInterval": 0.7277170539370972, "stimulusDuration": 1.5, "trial_count": 60, "ts": "orientation", "exp_stage": "adaptive_procedure", "decision_var": 4.25920222312568, "response": "left", "rt": 0.3607908620033413, "FB": 1, "quest_estimate": 4.3003163366454515, "trial_time": 3.122506711006281}
{"FBDuration": 0.5, "FBonset": 0, "ITI": 0.4876844246042036, "displayFB": true, "onset": 276.5051882114426, "punishment_amount": 0, "responseWindow": 1.5, "reward_amount": 1, "stim": {"motionDirection": "out", "oriBase": -60, "oriDirection": 1, "oriStrength": "medium", "speedDirection": 1, "speedStrength": "medium", "speed_start": 0.12, "speed_end": 0.12546591909984772, "ori_start": -60, "ori_end": -55.74083355383016, "motion_direction": "out"}, "stimResponseInterval": 0.06464468021130887, "stimulusDuration": 1.5, "trial_count": 61, "ts": "orientation", "exp_stage": "adaptive_procedure", "decision_var": 4.259166446169843, "response": "right", "rt": 0.5857268449908588, "FB": 1, "quest_estimate": 4.3002656282150475, "trial_time": 2.6816696580062853}
{"FBDuration": 0.5, "FBonset": 0, "ITI": 0.050475613759054405, "displayFB": true, "onset": 280.5575173162581, "punishment_amount": 0, "responseWindow": 1.5, "reward_amount": 1, "stim": {"motionDirection": "in", "oriBase": 30, "oriDirection": -1, "oriStrength": "medium", "speedDirection": 1, "speedStrength": "medium", "speed_start": 0.12, "speed_end": 0.12546591909984772, "ori_start": 30, "ori_end": 25.74086360828299, "motion_direction": "in"}, "stimResponseInterval": 0.912502185112031, "stimulusDuration": 1.5, "trial_count": 62, "ts": "orientation", "exp_stage": "adaptive_procedure", "decision_var": 4.259136391717011, "response": "left", "rt": 0.25373024700093083, "FB": 1, "quest_estimate": 4.300222978253103, "trial_time": 3.1979566459922353}
{"FBDuration": 0.5, "FBonset": 0, "ITI": 0.15321722642960534, "displayFB": true, "onset": 285.02049511512917, "punishment_amount": 0, "responseWindow": 1.5, "reward_amount": 1, "stim": {"motionDirection": "out", "oriBase": -60, "oriDirection": 1, "oriStrength": "medium", "speedDirection": -1, "speedStrength": "medium", "speed_start": 0.12, "speed_end": 0.11453408090015227, "ori_start": -60, "ori_end": -55.74088885907907, "motion_direction": "out"}, "stimResponseInterval": 0.519637057189068, "stimulusDuration": 1.5, "trial_count": 63, "ts": "orientation", "exp_stage": "adaptive_procedure", "decision_var": 4.259111140920929, "response": "right", "rt": 0.2425102510023862, "FB": 1, "quest_estimate": 4.300187101393707, "trial_time": 2.7984367049939465}
{"FBDuration": 0.5, "FBonset": 0, "ITI": 0.0019310862846538823, "displayFB": true, "onset": 289.19334939874784, "punishment_amount": 0, "responseWindow": 1.5, "reward_amount": 1, "stim": {"motionDirection": "in", "oriBase": 30, "oriDirection": -1, "oriStrength": "medium", "speedDirection": 1, "speedStrength": "medium", "speed_start": 0.12, "speed_end": 0.12546591909984772, "ori_start": 30, "ori_end": 25.740910078097684, "motion_direction": "in"}, "stimResponseInterval": 0.456524482567386, "stimulusDuration": 1.5, "trial_count": 64, "ts": "orientation", "exp_stage": "adaptive_procedure", "decision_var": 4.259089921902316, "response": "left", "rt": 0.32886322200647555, "FB": 1, "quest_estimate": 4.300156914078432, "trial_time": 2.8175392810080666}
