{"FBDuration": 0.5, "FBonset": 0, "ITI": 0.6715840970341871, "displayFB": true, "onset": 2, "punishment_amount": 0, "responseWindow": 1.5, "reward_amount": 1, "stim": {"motionDirection": "out", "oriBase": 30, "oriDirection": -1, "oriStrength": "medium", "speedDirection": -1, "speedStrength": "medium", "speed_start": 0.12, "speed_end": 0.11853302163395327, "ori_start": 30, "ori_end": 25.725442468768193, "motion_direction": "out"}, "stimResponseInterval": 0.07047757728437376, "stimulusDuration": 1.5, "trial_count": 1, "ts": "orientation", "exp_stage": "adaptive_procedure", "decision_var": 4.274557531231807, "response": "left", "rt": 0.35137590099475347, "FB": 1, "quest_estimate": 4.318930536391591, "trial_time": 2.4585556609963533}
{"FBDuration": 0.5, "FBonset": 0, "ITI": 0.069963175597471, "displayFB": true, "onset": 6.242061674318561, "punishment_amount": 0, "responseWindow": 1.5, "reward_amount": 1, "stim": {"motionDirection": "out", "oriBase": -60, "oriDirection": 1, "oriStrength": "medium", "speedDirection": 1, "speedStrength": "medium", "speed_start": 0.12, "speed_end": 0.12146697836604672, "ori_start": -60, "ori_end": -55.73106804010945, "motion_direction": "out"}, "stimResponseInterval": 0.6324403269587113, "stimulusDuration": 1.5, "trial_count": 2, "ts": "orientation", "exp_stage": "adaptive_procedure", "decision_var": 4.268931959890548, "response": "right", "rt": 0.2575336750014685, "FB": 1, "quest_estimate": 4.308565271446934, "trial_time": 2.920423696996295}
{"FBDuration": 0.5, "FBonset": 0, "ITI": 0.8340475260964673, "displayFB": true, "onset": 10.444465176874743, "punishment_amount": 0, "responseWindow": 1.5, "reward_amount": 1, "stim": {"motionDirection": "in", "oriBase": 30, "oriDirection": 1, "oriStrength": "medium", "speedDirection": 1, "speedStrength": "medium", "speed_start": 0.12, "speed_end": 0.12146697836604672, "ori_start": 30, "ori_end": 34.263856233366965, "motion_direction": "in"}, "stimResponseInterval": 0.6509110130850957, "stimulusDuration": 1.5, "trial_count": 3, "ts": "orientation", "exp_stage": "adaptive_procedure", "decision_var": 4.263856233366969, "response": "left", "rt": 0.3014574770058971, "FB": 0, "quest_estimate": 4.339017272587451, "trial_time": 2.9823033489956288}
{"FBDuration": 0.5, "FBonset": 0, "ITI": 0.7659934328313978, "displayFB": true, "onset": 15.429423716056306, "punishment_amount": 0, "responseWindow": 1.5, "reward_amount": 1, "stim": {"motionDirection": "in", "oriBase": -60, "oriDirection": -1, "oriStrength": "medium", "speedDirection": -1, "speedStrength": "medium", "speed_start": 0.12, "speed_end": 0.11853302163395327, "ori_start": -60, "ori_end": -64.27989364359172, "motion_direction": "in"}, "stimResponseInterval": 0.9982010502616081, "stimulusDuration": 1.5, "trial_count": 4, "ts": "orientation", "exp_stage": "adaptive_procedure", "decision_var": 4.279893643591713, "response": "left", "rt": 0.3203987549932208, "FB": 1, "quest_estimate": 4.327990987134424, "trial_time": 3.3498555190017214}
{"FBDuration": 0.5, "FBonset": 0, "ITI": 0.800938935976176, "displayFB": true, "onset": 20.693618199149313, "punishment_amount": 0, "responseWindow": 1.5, "reward_amount": 1, "stim": {"motionDirection": "in", "oriBase": 30, "oriDirection": -1, "oriStrength": "medium", "speedDirection": -1, "speedStrength": "medium", "speed_start": 0.12, "speed_end": 0.11853302163395327, "ori_start": 30, "ori_end": 25.7253617150298, "motion_direction": "in"}, "stimResponseInterval": 0.7465339551847021, "stimulusDuration": 1.5, "trial_count": 5, "ts": "orientation", "exp_stage": "adaptive_procedure", "decision_var": 4.274638284970202, "response": "left", "rt": 0.29460998000286054, "FB": 1, "quest_estimate": 4.318735591327407, "trial_time": 3.0779185389983468}
{"FBDuration": 0.5, "FBonset": 0, "ITI": 0.9286440676100733, "displayFB": true, "onset": 25.741091090310192, "punishment_amount": 0, "responseWindow": 1.5, "reward_amount": 1, "stim": {"motionDirection": "in", "oriBase": 30, "oriDirection": 1, "oriStrength": "medium", "speedDirection": -1, "speedStrength": "medium", "speed_start": 0.12, "speed_end": 0.11853302163395327, "ori_start": 30, "ori_end": 34.27009642998833, "motion_direction": "in"}, "stimResponseInterval": 0.9527598885827055, "stimulusDuration": 1.5, "trial_count": 6, "ts": "orientation", "exp_stage": "adaptive_procedure", "decision_var": 4.270096429988332, "response": "right", "rt": 0.3322505600081058, "FB": 1, "quest_estimate": 4.310799286867542, "trial_time": 3.3256932140066056}
{"FBDuration": 0.5, "FBonset": 0, "ITI": 0.7999789099618015, "displayFB": true, "onset": 31.12249504650297, "punishment_amount": 0, "responseWindow": 1.5, "reward_amount": 1, "stim": {"motionDirection": "out", "oriBase": 30, "oriDirection": -1, "oriStrength": "medium", "speedDirection": -1, "speedStrength": "medium", "speed_start": 0.12, "speed_end": 0.11853302163395327, "ori_start": 30, "ori_end": 25.733930691522822, "motion_direction": "out"}, "stimResponseInterval": 0.48485164480773646, "stimulusDuration": 1.5, "trial_count": 7, "ts": "orientation", "exp_stage": "adaptive_procedure", "decision_var": 4.266069308477178, "response": "left", "rt": 0.3264134320052108, "FB": 1, "quest_estimate": 4.303825585140707, "trial_time": 2.840100050001638}
{"FBDuration": 0.5, "FBonset": 0, "ITI": 0.35831680208382755, "displayFB": true, "onset": 35.907325601272504, "punishment_amount": 0, "responseWindow": 1.5, "reward_amount": 1, "stim": {"motionDirection": "out", "oriBase": 30, "oriDirection": 1, "oriStrength": "medium", "speedDirection": 1, "speedStrength": "medium", "speed_start": 0.12, "speed_end": 0.12146697836604672, "ori_start": 30, "ori_end": 34.26239217205921, "motion_direction": "out"}, "stimResponseInterval": 0.22634694159640467, "stimulusDuration": 1.5, "trial_count": 8, "ts": "orientation", "exp_stage": "adaptive_procedure", "decision_var": 4.262392172059204, "response": "right", "rt": 0.3764491579931928, "FB": 1, "quest_estimate": 4.297537673866522, "trial_time": 2.6313817459886195}
{"FBDuration": 0.5, "FBonset": 0, "ITI": 0.26301079963569773, "displayFB": true, "onset": 39.991989344952735, "punishment_amount": 0, "responseWindow": 1.5, "reward_amount": 1, "stim": {"motionDirection": "out", "oriBase": -60, "oriDirection": -1, "oriStrength": "medium", "speedDirection": 1, "speedStrength": "medium", "speed_start": 0.12, "speed_end": 0.12146697836604672, "ori_start": -60, "ori_end": -64.25892415546866, "motion_direction": "out"}, "stimResponseInterval": 0.7004372589397798, "stimulusDuration": 1.5, "trial_count": 9, "ts": "orientation", "exp_stage": "adaptive_procedure", "decision_var": 4.258924155468655, "response": "right", "rt": 0.3688121890008915, "FB": 0, "quest_estimate": 4.318173190671196, "trial_time": 3.098860016994877}
{"FBDuration": 0.5, "FBonset": 0, "ITI": 0.9944364523404103, "displayFB": true, "onset": 44.455437403528215, "punishment_amount": 0, "responseWindow": 1.5, "reward_amount": 1, "stim": {"motionDirection": "out", "oriBase": -60, "oriDirection": 1, "oriStrength": "medium", "speedDirection": -1, "speedStrength": "medium", "speed_start": 0.12, "speed_end": 0.11853302163395327, "ori_start": -60, "ori_end": -55.72962494987735, "motion_direction": "out"}, "stimResponseInterval": 0.1855947804978768, "stimulusDuration": 1.5, "trial_count": 10, "ts": "orientation", "exp_stage": "adaptive_procedure", "decision_var": 4.270375050122649, "response": "right", "rt": 0.38354368398722727, "FB": 1, "quest_estimate": 4.312033001922256, "trial_time": 2.607438157006982}
{"FBDuration": 0.5, "FBonset": 0, "ITI": 0.4385889930221504, "displayFB": true, "onset": 49.135468636366504, "punishment_amount": 0, "responseWindow": 1.5, "reward_amount": 1, "stim": {"motionDirection": "out", "oriBase": 30, "oriDirection": -1, "oriStrength": "medium", "speedDirection": 1, "speedStrength": "medium", "speed_start": 0.12, "speed_end": 0.12146697836604672, "ori_start": 30, "ori_end": 25.73290432991215, "motion_direction": "out"}, "stimResponseInterval": 0.46261869442300674, "stimulusDuration": 1.5, "trial_count": 11, "ts": "orientation", "exp_stage": "adaptive_procedure", "decision_var": 4.267095670087851, "response": "left", "rt": 0.30884852100280114, "FB": 1, "quest_estimate": 4.306596457752981, "trial_time": 2.8115731609868817}
{"FBDuration": 0.5, "FBonset": 0, "ITI": 0.7648939872534952, "displayFB": true, "onset": 53.53667632381166, "punishment_amount": 0, "responseWindow": 1.5, "reward_amount": 1, "stim": {"motionDirection": "in", "oriBase": -60, "oriDirection": -1, "oriStrength": "medium", "speedDirection": 1, "speedStrength": "medium", "speed_start": 0.12, "speed_end": 0.12146697836604672, "ori_start": -60, "ori_end": -64.2641597198737, "motion_direction": "in"}, "stimResponseInterval": 0.7744125540208096, "stimulusDuration": 1.5, "trial_count": 12, "ts": "orientation", "exp_stage": "adaptive_procedure", "decision_var": 4.264159719873696, "response": "left", "rt": 0.29876073700143024, "FB": 1, "quest_estimate": 4.301660241795389, "trial_time": 3.1145804170082556}
{"FBDuration": 0.5, "FBonset": 0, "ITI": 0.5529348546637578, "displayFB": true, "onset": 58.57598286508597, "punishment_amount": 0, "responseWindow": 1.5, "reward_amount": 1, "stim": {"motionDirection": "in", "oriBase": -60, "oriDirection": -1, "oriStrength": "medium", "speedDirection": 1, "speedStrength": "medium", "speed_start": 0.12, "speed_end": 0.12146697836604672, "ori_start": -60, "ori_end": -64.26145663345898, "motion_direction": "in"}, "stimResponseInterval": 0.7536540826610381, "stimulusDuration": 1.5, "trial_count": 13, "ts": "orientation", "exp_stage": "adaptive_procedure", "decision_var": 4.261456633458973, "response": "left", "rt": 0.26628123701084405, "FB": 1, "quest_estimate": 4.297062720471651, "trial_time": 3.067714093995164}
{"FBDuration": 0.5, "FBonset": 0, "ITI": 0.6309194160049474, "displayFB": true, "onset": 63.382571802410766, "punishment_amount": 0, "responseWindow": 1.5, "reward_amount": 1, "stim": {"motionDirection": "out", "oriBase": 30, "oriDirection": -1, "oriStrength": "medium", "speedDirection": -1, "speedStrength": "medium", "speed_start": 0.12, "speed_end": 0.11853302163395327, "ori_start": 30, "ori_end": 25.741110208998137, "motion_direction": "out"}, "stimResponseInterval": 0.5305023820489672, "stimulusDuration": 1.5, "trial_count": 14, "ts": "orientation", "exp_stage": "adaptive_procedure", "decision_var": 4.258889791001863, "response": "left", "rt": 0.28883992199553177, "FB": 1, "quest_estimate": 4.29267613592063, "trial_time": 2.851499065000098}
{"FBDuration": 0.5, "FBonset": 0, "ITI": 0.5856334087778936, "displayFB": true, "onset": 68.04399360046467, "punishment_amount": 0, "responseWindow": 1.5, "reward_amount": 1, "stim": {"motionDirection": "out", "oriBase": -60, "oriDirection": -1, "oriStrength": "medium", "speedDirection": 1, "speedStrength": "medium", "speed_start": 0.12, "speed_end": 0.12146697836604672, "ori_start": -60, "ori_end": -64.2563718143399, "motion_direction": "out"}, "stimResponseInterval": 0.8575368910455006, "stimulusDuration": 1.5, "trial_count": 15, "ts": "orientation", "exp_stage": "adaptive_procedure", "decision_var": 4.256371814339893, "response": "right", "rt": 0.5890972060005879, "FB": 0, "quest_estimate": 4.308223800127628, "trial_time": 3.4869616820069496}
{"FBDuration": 0.5, "FBonset": 0, "ITI": 0.6791979392422736, "displayFB": true, "onset": 72.98716390028807, "punishment_amount": 0, "responseWindow": 1.5, "reward_amount": 1, "stim": {"motionDirection": "in", "oriBase": -60, "oriDirection": 1, "oriStrength": "medium", "speedDirection": 1, "speedStrength": "medium", "speed_start": 0.12, "speed_end": 0.12146697836604672, "ori_start": -60, "ori_end": -55.73499492185973, "motion_direction": "in"}, "stimResponseInterval": 0.25305809894836684, "stimulusDuration": 1.5, "trial_count": 16, "ts": "orientation", "exp_stage": "adaptive_procedure", "decision_var": 4.26500507814027, "response": "right", "rt": 0.37008415200398304, "FB": 1, "quest_estimate": 4.304329008217795, "trial_time": 2.6554417320003267}
{"FBDuration": 0.5, "FBonset": 0, "ITI": 0.4345651459304952, "displayFB": true, "onset": 77.41941993847871, "punishment_amount": 0, "responseWindow": 1.5, "reward_amount": 1, "stim": {"motionDirection": "out", "oriBase": -60, "oriDirection": 1, "oriStrength": "medium", "speedDirection": 1, "speedStrength": "medium", "speed_start": 0.12, "speed_end": 0.12146697836604672, "ori_start": -60, "ori_end": -55.737163130146186, "motion_direction": "out"}, "stimResponseInterval": 0.582006807238336, "stimulusDuration": 1.5, "trial_count": 17, "ts": "orientation", "exp_stage": "adaptive_procedure", "decision_var": 4.2628368698538175, "response": "right", "rt": 0.34941594701376744, "FB": 1, "quest_estimate": 4.300708174202693, "trial_time": 2.967446177994134}
{"FBDuration": 0.5, "FBonset": 0, "ITI": 0.2719816890132948, "displayFB": true, "onset": 81.93599189164755, "punishment_amount": 0, "responseWindow": 1.5, "reward_amount": 1, "stim": {"motionDirection": "in", "oriBase": -60, "oriDirection": 1, "oriStrength": "medium", "speedDirection": 1, "speedStrength": "medium", "speed_start": 0.12, "speed_end": 0.12146697836604672, "ori_start": -60, "ori_end": -55.739170491655265, "motion_direction": "in"}, "stimResponseInterval": 0.14448493749635272, "stimulusDuration": 1.5, "trial_count": 18, "ts": "orientation", "exp_stage": "adaptive_procedure", "decision_var": 4.2608295083447345, "response": "right", "rt": 0.3886227089969907, "FB": 1, "quest_estimate": 4.297258602470805, "trial_time": 2.570271695003612}
{"FBDuration": 0.5, "FBonset": 0, "ITI": 0.6077525433604933, "displayFB": true, "onset": 85.85245851815719, "punishment_amount": 0, "responseWindow": 1.5, "reward_amount": 1, "stim": {"motionDirection": "in", "oriBase": 30, "oriDirection": 1, "oriStrength": "medium", "speedDirection": -1, "speedStrength": "medium", "speed_start": 0.12, "speed_end": 0.11853302163395327, "ori_start": 30, "ori_end": 34.25891481977596, "motion_direction": "in"}, "stimResponseInterval": 0.9655886078530491, "stimulusDuration": 1.5, "trial_count": 19, "ts": "orientation", "exp_stage": "adaptive_procedure", "decision_var": 4.25891481977596, "response": "left", "rt": 0.25629550899611786, "FB": 0, "quest_estimate": 4.30901973766095, "trial_time": 3.2625193550047697}
{"FBDuration": 0.5, "FBonset": 0, "ITI": 0.5952534577553763, "displayFB": true, "onset": 90.92579966937073, "punishment_amount": 0, "responseWindow": 1.5, "reward_amount": 1, "stim": {"motionDirection": "in", "oriBase": 30, "oriDirection": -1, "oriStrength": "medium", "speedDirection": 1, "speedStrength": "medium", "speed_start": 0.12, "speed_end": 0.12146697836604672, "ori_start": 30, "ori_end": 25.73470751608251, "motion_direction": "in"}, "stimResponseInterval": 0.8533479815328029, "stimulusDuration": 1.5, "trial_count": 20, "ts": "orientation", "exp_stage": "adaptive_procedure", "decision_var": 4.2652924839174915, "response": "left", "rt": 0.2997395120037254, "FB": 1, "quest_estimate": 4.3059012534859065, "trial_time": 3.189323983999202}
{"FBDuration": 0.5, "FBonset": 0, "ITI": 0.30667291068083247, "displayFB": true, "onset": 95.87440110865892, "punishment_amount": 0, "responseWindow": 1.5, "reward_amount": 1, "stim": {"motionDirection": "out", "oriBase": -60, "oriDirection": -1, "oriStrength": "medium", "speedDirection": -1, "speedStrength": "medium", "speed_start": 0.12, "speed_end": 0.11853302163395327, "ori_start": -60, "ori_end": -64.26350746668405, "motion_direction": "out"}, "stimResponseInterval": 0.9886803697537312, "stimulusDuration": 1.5, "trial_count": 21, "ts": "orientation", "exp_stage": "adaptive_procedure", "decision_var": 4.263507466684047, "response": "right", "rt": 0.49230551400978584, "FB": 0, "quest_estimate": 4.315325893398068, "trial_time": 3.5206495400052518}
{"FBDuration": 0.5, "FBonset": 0, "ITI": 0.9252498266863931, "displayFB": true, "onset": 100.66975438909348, "punishment_amount": 0, "responseWindow": 1.5, "reward_amount": 1, "stim": {"motionDirection": "out", "oriBase": -60, "oriDirection": 1, "oriStrength": "medium", "speedDirection": -1, "speedStrength": "medium", "speed_start": 0.12, "speed_end": 0.11853302163395327, "ori_start": -60, "ori_end": -55.73102412682287, "motion_direction": "out"}, "stimResponseInterval": 0.370264883921923, "stimulusDuration": 1.5, "trial_count": 22, "ts": "orientation", "exp_stage": "adaptive_procedure", "decision_var": 4.2689758731771335, "response": "left", "rt": 0.3891101220069686, "FB": 0, "quest_estimate": 4.3252684689899255, "trial_time": 2.7891110199998366}
{"FBDuration": 0.5, "FBonset": 0, "ITI": 0.41954700751988994, "displayFB": true, "onset": 105.4652690997018, "punishment_amount": 0, "responseWindow": 1.5, "reward_amount": 1, "stim": {"motionDirection": "in", "oriBase": 30, "oriDirection": 1, "oriStrength": "medium", "speedDirection": 1, "speedStrength": "medium", "speed_start": 0.12, "speed_end": 0.12146697836604672, "ori_start": 30, "ori_end": 34.27575553519452, "motion_direction": "in"}, "stimResponseInterval": 0.5921175426468812, "stimulusDuration": 1.5, "trial_count": 23, "ts": "orientation", "exp_stage": "adaptive_procedure", "decision_var": 4.27575553519452, "response": "left", "rt": 0.3011362629913492, "FB": 0, "quest_estimate": 4.337568441235806, "trial_time": 2.929867918996024}
{"FBDuration": 0.5, "FBonset": 0, "ITI": 0.9171069770603661, "displayFB": true, "onset": 109.97693364986857, "punishment_amount": 0, "responseWindow": 1.5, "reward_amount": 1, "stim": {"motionDirection": "in", "oriBase": 30, "oriDirection": -1, "oriStrength": "medium", "speedDirection": 1, "speedStrength": "medium", "speed_start": 0.12, "speed_end": 0.12146697836604672, "ori_start": 30, "ori_end": 25.714249816698704, "motion_direction": "in"}, "stimResponseInterval": 0.06336184108063292, "stimulusDuration": 1.5, "trial_count": 24, "ts": "orientation", "exp_stage": "adaptive_procedure", "decision_var": 4.285750183301296, "response": "left", "rt": 0.39211000499199145, "FB": 1, "quest_estimate": 4.331845813611139, "trial_time": 2.4977660290023778}
{"FBDuration": 0.5, "FBonset": 0, "ITI": 0.9195859213389079, "displayFB": true, "onset": 114.45740246800958, "punishment_amount": 0, "responseWindow": 1.5, "reward_amount": 1, "stim": {"motionDirection": "out", "oriBase": 30, "oriDirection": 1, "oriStrength": "medium", "speedDirection": 1, "speedStrength": "medium", "speed_start": 0.12, "speed_end": 0.12146697836604672, "ori_start": 30, "ori_end": 34.28114714005097, "motion_direction": "out"}, "stimResponseInterval": 0.04791680675412813, "stimulusDuration": 1.5, "trial_count": 25, "ts": "orientation", "exp_stage": "adaptive_procedure", "decision_var": 4.281147140050969, "response": "right", "rt": 0.4986036579939537, "FB": 1, "quest_estimate": 4.326927404204184, "trial_time": 2.576951965005719}
{"FBDuration": 0.5, "FBonset": 0, "ITI": 0.9290717914308058, "displayFB": true, "onset": 118.92490519610261, "punishment_amount": 0, "responseWindow": 1.5, "reward_amount": 1, "stim": {"motionDirection": "out", "oriBase": -60, "oriDirection": -1, "oriStrength": "medium", "speedDirection": -1, "speedStrength": "medium", "speed_start": 0.12, "speed_end": 0.11853302163395327, "ori_start": -60, "ori_end": -64.27734443082656, "motion_direction": "out"}, "stimResponseInterval": 0.5330622667255227, "stimulusDuration": 1.5, "trial_count": 26, "ts": "orientation", "exp_stage": "adaptive_procedure", "decision_var": 4.277344430826563, "response": "left", "rt": 0.48803281200525817, "FB": 1, "quest_estimate": 4.322696009254834, "trial_time": 3.0538523489958607}
{"FBDuration": 0.5, "FBonset": 0, "ITI": 0.31162025011190697, "displayFB": true, "onset": 123.88703925425894, "punishment_amount": 0, "responseWindow": 1.5, "reward_amount": 1, "stim": {"motionDirection": "out", "oriBase": -60, "oriDirection": 1, "oriStrength": "medium", "speedDirection": -1, "speedStrength": "medium", "speed_start": 0.12, "speed_end": 0.11853302163395327, "ori_start": -60, "ori_end": -55.725807419045424, "motion_direction": "out"}, "stimResponseInterval": 0.11921168366280754, "stimulusDuration": 1.5, "trial_count": 27, "ts": "orientation", "exp_stage": "adaptive_procedure", "decision_var": 4.274192580954573, "response": "right", "rt": 0.3494365939986892, "FB": 1, "quest_estimate": 4.319051535026805, "trial_time": 2.5078155670053093}
{"FBDuration": 0.5, "FBonset": 0, "ITI": 0.9171841449222287, "displayFB": true, "onset": 127.81787118803365, "punishment_amount": 0, "responseWindow": 1.5, "reward_amount": 1, "stim": {"motionDirection": "out", "oriBase": -60, "oriDirection": 1, "oriStrength": "medium", "speedDirection": 1, "speedStrength": "medium", "speed_start": 0.12, "speed_end": 0.12146697836604672, "ori_start": -60, "ori_end": -55.7284288015435, "motion_direction": "out"}, "stimResponseInterval": 0.7947063366449176, "stimulusDuration": 1.5, "trial_count": 28, "ts": "orientation", "exp_stage": "adaptive_procedure", "decision_var": 4.271571198456499, "response": "right", "rt": 0.28995673700410407, "FB": 1, "quest_estimate": 4.315907510248817, "trial_time": 3.1289194709970616}
{"FBDuration": 0.5, "FBonset": 0, "ITI": 0.11130291051314722, "displayFB": true, "onset": 133.0297616696008, "punishment_amount": 0, "responseWindow": 1.5, "reward_amount": 1, "stim": {"motionDirection": "out", "oriBase": 30, "oriDirection": 1, "oriStrength": "medium", "speedDirection": -1, "speedStrength": "medium", "speed_start": 0.12, "speed_end": 0.11853302163395327, "ori_start": 30, "ori_end": 34.26938274236069, "motion_direction": "out"}, "stimResponseInterval": 0.6763824349737839, "stimulusDuration": 1.5, "trial_count": 29, "ts": "orientation", "exp_stage": "adaptive_procedure", "decision_var": 4.269382742360694, "response": "left", "rt": 0.27023608901072294, "FB": 0, "quest_estimate": 4.324211516361398, "trial_time": 2.9809698720055167}
{"FBDuration": 0.5, "FBonset": 0, "ITI": 0.5473303376320517, "displayFB": true, "onset": 137.3174470150877, "punishment_amount": 0, "responseWindow": 1.5, "reward_amount": 1, "stim": {"motionDirection": "in", "oriBase": -60, "oriDirection": 1, "oriStrength": "medium", "speedDirection": 1, "speedStrength": "medium", "speed_start": 0.12, "speed_end": 0.12146697836604672, "ori_start": -60, "ori_end": -55.72440734311037, "motion_direction": "in"}, "stimResponseInterval": 0.5492061300914295, "stimulusDuration": 1.5, "trial_count": 30, "ts": "orientation", "exp_stage": "adaptive_procedure", "decision_var": 4.2755926568896285, "response": "right", "rt": 0.27947147899249103, "FB": 1, "quest_estimate": 4.320518611928129, "trial_time": 2.8611112350045005}
{"FBDuration": 0.5, "FBonset": 0, "ITI": 0.5110614662712472, "displayFB": true, "onset": 141.91398348281118, "punishment_amount": 0, "responseWindow": 1.5, "reward_amount": 1, "stim": {"motionDirection": "out", "oriBase": 30, "oriDirection": -1, "oriStrength": "medium", "speedDirection": 1, "speedStrength": "medium", "speed_start": 0.12, "speed_end": 0.12146697836604672, "ori_start": 30, "ori_end": 25.727217724314027, "motion_direction": "out"}, "stimResponseInterval": 0.3057524606007178, "stimulusDuration": 1.5, "trial_count": 31, "ts": "orientation", "exp_stage": "adaptive_procedure", "decision_var": 4.272782275685973, "response": "left", "rt": 0.3197392000001855, "FB": 1, "quest_estimate": 4.31732331264104, "trial_time": 2.664573173999088}
{"FBDuration": 0.5, "FBonset": 0, "ITI": 0.8512287229261359, "displayFB": true, "onset": 146.23079740968313, "punishment_amount": 0, "responseWindow": 1.5, "reward_amount": 1, "stim": {"motionDirection": "in", "oriBase": 30, "oriDirection": 1, "oriStrength": "medium", "speedDirection": 1, "speedStrength": "medium", "speed_start": 0.12, "speed_end": 0.12146697836604672, "ori_start": 30, "ori_end": 34.27044235965606, "motion_direction": "in"}, "stimResponseInterval": 0.5928052620768296, "stimulusDuration": 1.5, "trial_count": 32, "ts": "orientation", "exp_stage": "adaptive_procedure", "decision_var": 4.270442359656059, "response": "right", "rt": 0.2673204619932221, "FB": 1, "quest_estimate": 4.314559694028745, "trial_time": 2.9004121120087802}
{"FBDuration": 0.5, "FBonset": 0, "ITI": 0.8743724035859033, "displayFB": true, "onset": 151.1748313946861, "punishment_amount": 0, "responseWindow": 1.5, "reward_amount": 1, "stim": {"motionDirection": "out", "oriBase": 30, "oriDirection": -1, "oriStrength": "medium", "speedDirection": -1, "speedStrength": "medium", "speed_start": 0.12, "speed_end": 0.11853302163395327, "ori_start": 30, "ori_end": 25.73151149006552, "motion_direction": "out"}, "stimResponseInterval": 0.684483017664193, "stimulusDuration": 1.5, "trial_count": 33, "ts": "orientation", "exp_stage": "adaptive_procedure", "decision_var": 4.268488509934478, "response": "left", "rt": 0.2729439079994336, "FB": 1, "quest_estimate": 4.312168562649301, "trial_time": 2.9877983699989272}
{"FBDuration": 0.5, "FBonset": 0, "ITI": 0.6924346551112688, "displayFB": true, "onset": 156.23368681593618, "punishment_amount": 0, "responseWindow": 1.5, "reward_amount": 1, "stim": {"motionDirection": "in", "oriBase": -60, "oriDirection": 1, "oriStrength": "medium", "speedDirection": -1, "speedStrength": "medium", "speed_start": 0.12, "speed_end": 0.11853302163395327, "ori_start": -60, "ori_end": -55.73314834792435, "motion_direction": "in"}, "stimResponseInterval": 0.18650608121564183, "stimulusDuration": 1.5, "trial_count": 34, "ts": "orientation", "exp_stage": "adaptive_procedure", "decision_var": 4.266851652075651, "response": "right", "rt": 0.42153373699693475, "FB": 1, "quest_estimate": 4.310096596929377, "trial_time": 2.6492196990002412}
{"FBDuration": 0.5, "FBonset": 0, "ITI": 0.8816480167592777, "displayFB": true, "onset": 160.6126275522631, "punishment_amount": 0, "responseWindow": 1.5, "reward_amount": 1, "stim": {"motionDirection": "out", "oriBase": 30, "oriDirection": 1, "oriStrength": "medium", "speedDirection": -1, "speedStrength": "medium", "speed_start": 0.12, "speed_end": 0.11853302163395327, "ori_start": 30, "ori_end": 34.265474967064065, "motion_direction": "out"}, "stimResponseInterval": 0.16084958217587042, "stimulusDuration": 1.5, "trial_count": 35, "ts": "orientation", "exp_stage": "adaptive_procedure", "decision_var": 4.2654749670640655, "response": "right", "rt": 0.3348977159912465, "FB": 1, "quest_estimate": 4.308295704018434, "trial_time": 2.526091121006175}
{"FBDuration": 0.5, "FBonset": 0, "ITI": 0.2903880392509509, "displayFB": true, "onset": 165.15512515119823, "punishment_amount": 0, "responseWindow": 1.5, "reward_amount": 1, "stim": {"motionDirection": "in", "oriBase": 30, "oriDirection": -1, "oriStrength": "medium", "speedDirection": -1, "speedStrength": "medium", "speed_start": 0.12, "speed_end": 0.11853302163395327, "ori_start": 30, "ori_end": 25.735688537197046, "motion_direction": "in"}, "stimResponseInterval": 0.7976105047101119, "stimulusDuration": 1.5, "trial_count": 36, "ts": "orientation", "exp_stage": "adaptive_procedure", "decision_var": 4.264311462802954, "response": "left", "rt": 0.3128490599920042, "FB": 1, "quest_estimate": 4.306722482483956, "trial_time": 3.1520797970006242}
{"FBDuration": 0.5, "FBonset": 0, "ITI": 0.833748524517389, "displayFB": true, "onset": 169.74312369515928, "punishment_amount": 0, "responseWindow": 1.5, "reward_amount": 1, "stim": {"motionDirection": "in", "oriBase": 30, "oriDirection": -1, "oriStrength": "medium", "speedDirection": 1, "speedStrength": "medium", "speed_start": 0.12, "speed_end": 0.12146697836604672, "ori_start": 30, "ori_end": 25.7366779623487, "motion_direction": "in"}, "stimResponseInterval": 0.7810106403017478, "stimulusDuration": 1.5, "trial_count": 37, "ts": "orientation", "exp_stage": "adaptive_procedure", "decision_var": 4.2633220376512995, "response": "left", "rt": 0.2966231960017467, "FB": 1, "quest_estimate": 4.305337725855111, "trial_time": 3.1160984610032756}
{"FBDuration": 0.5, "FBonset": 0, "ITI": 0.838782944206663, "displayFB": true, "onset": 174.85788285997842, "punishment_amount": 0, "responseWindow": 1.5, "reward_amount": 1, "stim": {"motionDirection": "in", "oriBase": -60, "oriDirection": 1, "oriStrength": "medium", "speedDirection": -1, "speedStrength": "medium", "speed_start": 0.12, "speed_end": 0.11853302163395327, "ori_start": -60, "ori_end": -55.737526076294735, "motion_direction": "in"}, "stimResponseInterval": 0.18139490886401677, "stimulusDuration": 1.5, "trial_count": 38, "ts": "orientation", "exp_stage": "adaptive_procedure", "decision_var": 4.262473923705265, "response": "right", "rt": 0.3938664159941254, "FB": 1, "quest_estimate": 4.304105934414142, "trial_time": 2.6167237170011504}
{"FBDuration": 0.5, "FBonset": 0, "ITI": 0.5129075270558294, "displayFB": true, "onset": 179.3780607130491, "punishment_amount": 0, "responseWindow": 1.5, "reward_amount": 1, "stim": {"motionDirection": "in", "oriBase": 30, "oriDirection": 1, "oriStrength": "medium", "speedDirection": -1, "speedStrength": "medium", "speed_start": 0.12, "speed_end": 0.11853302163395327, "ori_start": 30, "ori_end": 34.26173942415022, "motion_direction": "in"}, "stimResponseInterval": 0.6762499867139504, "stimulusDuration": 1.5, "trial_count": 39, "ts": "orientation", "exp_stage": "adaptive_procedure", "decision_var": 4.261739424150218, "response": "right", "rt": 0.25181747699389234, "FB": 1, "quest_estimate": 4.30299482351721, "trial_time": 2.9694658989901654}
{"FBDuration": 0.5, "FBonset": 0, "ITI": 0.6902576390998183, "displayFB": true, "onset": 184.06721822681888, "punishment_amount": 0, "responseWindow": 1.5, "reward_amount": 1, "stim": {"motionDirection": "in", "oriBase": -60, "oriDirection": 1, "oriStrength": "medium", "speedDirection": -1, "speedStrength": "medium", "speed_start": 0.12, "speed_end": 0.11853302163395327, "ori_start": -60, "ori_end": -55.738905121268246, "motion_direction": "in"}, "stimResponseInterval": 0.08520792773350505, "stimulusDuration": 1.5, "trial_count": 40, "ts": "orientation", "exp_stage": "adaptive_procedure", "decision_var": 4.26109487873175, "response": "left", "rt": 0.7339324439963093, "FB": 0, "quest_estimate": 4.306381070021089, "trial_time": 2.8557702000107383}
{"FBDuration": 0.5, "FBonset": 0, "ITI": 0.4896006946596775, "displayFB": true, "onset": 188.3426837936522, "punishment_amount": 0, "responseWindow": 1.5, "reward_amount": 1, "stim": {"motionDirection": "out", "oriBase": -60, "oriDirection": -1, "oriStrength": "medium", "speedDirection": -1, "speedStrength": "medium", "speed_start": 0.12, "speed_end": 0.11853302163395327, "ori_start": -60, "ori_end": -64.26304097716664, "motion_direction": "out"}, "stimResponseInterval": 0.11079128220849488, "stimulusDuration": 1.5, "trial_count": 41, "ts": "orientation", "exp_stage": "adaptive_procedure", "decision_var": 4.263040977166643, "response": "right", "rt": 1.0159324109990848, "FB": 0, "quest_estimate": 4.310298384231455, "trial_time": 3.156526999999187}
{"FBDuration": 0.5, "FBonset": 0, "ITI": 0.016065365413740262, "displayFB": true, "onset": 192.44307577052038, "punishment_amount": 0, "responseWindow": 1.5, "reward_amount": 1, "stim": {"motionDirection": "in", "oriBase": 30, "oriDirection": 1, "oriStrength": "medium", "speedDirection": 1, "speedStrength": "medium", "speed_start": 0.12, "speed_end": 0.12146697836604672, "ori_start": 30, "ori_end": 34.2655762733381, "motion_direction": "in"}, "stimResponseInterval": 0.06198302663703281, "stimulusDuration": 1.5, "trial_count": 42, "ts": "orientation", "exp_stage": "adaptive_procedure", "decision_var": 4.265576273338095, "response": "left", "rt": 0.4749528699903749, "FB": 0, "quest_estimate": 4.315517154598346, "trial_time": 2.5678112950117793}
{"FBDuration": 0.5, "FBonset": 0, "ITI": 0.8421086300500842, "displayFB": true, "onset": 196.02112416257114, "punishment_amount": 0, "responseWindow": 1.5, "reward_amount": 1, "stim": {"motionDirection": "in", "oriBase": -60, "oriDirection": 1, "oriStrength": "medium", "speedDirection": 1, "speedStrength": "medium", "speed_start": 0.12, "speed_end": 0.12146697836604672, "ori_start": -60, "ori_end": -55.730672061453575, "motion_direction": "in"}, "stimResponseInterval": 0.09700617797629829, "stimulusDuration": 1.5, "trial_count": 43, "ts": "orientation", "exp_stage": "adaptive_procedure", "decision_var": 4.269327938546422, "response": "right", "rt": 0.47044449900568, "FB": 1, "quest_estimate": 4.313198839342526, "trial_time": 2.6054717309889384}
{"FBDuration": 0.5, "FBonset": 0, "ITI": 0.8749594967139631, "displayFB": true, "onset": 200.46023897059752, "punishment_amount": 0, "responseWindow": 1.5, "reward_amount": 1, "stim": {"motionDirection": "in", "oriBase": -60, "oriDirection": 1, "oriStrength": "medium", "speedDirection": -1, "speedStrength": "medium", "speed_start": 0.12, "speed_end": 0.11853302163395327, "ori_start": -60, "ori_end": -55.732375903290865, "motion_direction": "in"}, "stimResponseInterval": 0.4726067004952087, "stimulusDuration": 1.5, "trial_count": 44, "ts": "orientation", "exp_stage": "adaptive_procedure", "decision_var": 4.267624096709135, "response": "left", "rt": 0.3070440079900436, "FB": 0, "quest_estimate": 4.319416768136897, "trial_time": 2.8143671580037335}
{"FBDuration": 0.5, "FBonset": 0, "ITI": 0.24101379004101797, "displayFB": true, "onset": 205.3078051678067, "punishment_amount": 0, "responseWindow": 1.5, "reward_amount": 1, "stim": {"motionDirection": "in", "oriBase": -60, "oriDirection": -1, "oriStrength": "medium", "speedDirection": -1, "speedStrength": "medium", "speed_start": 0.12, "speed_end": 0.11853302163395327, "ori_start": -60, "ori_end": -64.27244534408376, "motion_direction": "in"}, "stimResponseInterval": 0.8977294444969202, "stimulusDuration": 1.5, "trial_count": 45, "ts": "orientation", "exp_stage": "adaptive_procedure", "decision_var": 4.27244534408376, "response": "left", "rt": 0.3657493029895704, "FB": 1, "quest_estimate": 4.316630929750861, "trial_time": 3.3030628229898866}
{"FBDuration": 0.5, "FBonset": 0, "ITI": 0.29429745083758363, "displayFB": true, "onset": 209.94654840234463, "punishment_amount": 0, "responseWindow": 1.5, "reward_amount": 1, "stim": {"motionDirection": "out", "oriBase": -60, "oriDirection": -1, "oriStrength": "medium", "speedDirection": 1, "speedStrength": "medium", "speed_start": 0.12, "speed_end": 0.12146697836604672, "ori_start": -60, "ori_end": -64.27023652421789, "motion_direction": "out"}, "stimResponseInterval": 0.9647694305384582, "stimulusDuration": 1.5, "trial_count": 46, "ts": "orientation", "exp_stage": "adaptive_procedure", "decision_var": 4.270236524217893, "response": "right", "rt": 0.5401114829874132, "FB": 0, "quest_estimate": 4.323996809730364, "trial_time": 3.5446624780015554}
{"FBDuration": 0.5, "FBonset": 0, "ITI": 0.7368131107617151, "displayFB": true, "onset": 214.70561528372068, "punishment_amount": 0, "responseWindow": 1.5, "reward_amount": 1, "stim": {"motionDirection": "in", "oriBase": 30, "oriDirection": -1, "oriStrength": "medium", "speedDirection": -1, "speedStrength": "medium", "speed_start": 0.12, "speed_end": 0.11853302163395327, "ori_start": 30, "ori_end": 25.723523026469856, "motion_direction": "in"}, "stimResponseInterval": 0.078306882640233, "stimulusDuration": 1.5, "trial_count": 47, "ts": "orientation", "exp_stage": "adaptive_procedure", "decision_var": 4.276476973530144, "response": "left", "rt": 0.40631491800013464, "FB": 1, "quest_estimate": 4.320699774803131, "trial_time": 2.5134128549980232}
{"FBDuration": 0.5, "FBonset": 0, "ITI": 0.7630030516053461, "displayFB": true, "onset": 219.0207352771226, "punishment_amount": 0, "responseWindow": 1.5, "reward_amount": 1, "stim": {"motionDirection": "in", "oriBase": -60, "oriDirection": -1, "oriStrength": "medium", "speedDirection": 1, "speedStrength": "medium", "speed_start": 0.12, "speed_end": 0.12146697836604672, "ori_start": -60, "ori_end": -64.27360773740075, "motion_direction": "in"}, "stimResponseInterval": 0.6829862826181041, "stimulusDuration": 1.5, "trial_count": 48, "ts": "orientation", "exp_stage": "adaptive_procedure", "decision_var": 4.273607737400756, "response": "left", "rt": 0.2510183309932472, "FB": 1, "quest_estimate": 4.317788874418344, "trial_time": 2.9710093839967158}
{"FBDuration": 0.5, "FBonset": 0, "ITI": 0.9005550303634713, "displayFB": true, "onset": 223.96672461134605, "punishment_amount": 0, "responseWindow": 1.5, "reward_amount": 1, "stim": {"motionDirection": "out", "oriBase": -60, "oriDirection": 1, "oriStrength": "medium", "speedDirection": -1, "speedStrength": "medium", "speed_start": 0.12, "speed_end": 0.11853302163395327, "ori_start": -60, "ori_end": -55.72878561056741, "motion_direction": "out"}, "stimResponseInterval": 0.7376403712191608, "stimulusDuration": 1.5, "trial_count": 49, "ts": "orientation", "exp_stage": "adaptive_procedure", "decision_var": 4.271214389432593, "response": "right", "rt": 0.2730034880078165, "FB": 1, "quest_estimate": 4.31523480241561, "trial_time": 3.052199350000592}
{"FBDuration": 0.5, "FBonset": 0, "ITI": 0.861693023509444, "displayFB": true, "onset": 229.1049200129287, "punishment_amount": 0, "responseWindow": 1.5, "reward_amount": 1, "stim": {"motionDirection": "out", "oriBase": 30, "oriDirection": 1, "oriStrength": "medium", "speedDirection": -1, "speedStrength": "medium", "speed_start": 0.12, "speed_end": 0.11853302163395327, "ori_start": 30, "ori_end": 34.26921615800718, "motion_direction": "out"}, "stimResponseInterval": 0.6342595342310187, "stimulusDuration": 1.5, "trial_count": 50, "ts": "orientation", "exp_stage": "adaptive_procedure", "decision_var": 4.269216158007179, "response": "right", "rt": 0.24340716299775522, "FB": 1, "quest_estimate": 4.313006402483371, "trial_time": 2.914357633999316}
{"FBDuration": 0.5, "FBonset": 0, "ITI": 0.02737896532546724, "displayFB": true, "onset": 234.10087257066914, "punishment_amount": 0, "responseWindow": 1.5, "reward_amount": 1, "stim": {"motionDirection": "out", "oriBase": -60, "oriDirection": -1, "oriStrength": "medium", "speedDirection": -1, "speedStrength": "medium", "speed_start": 0.12, "speed_end": 0.11853302163395327, "ori_start": -60, "ori_end": -64.26754637977062, "motion_direction": "out"}, "stimResponseInterval": 0.823231013593674, "stimulusDuration": 1.5, "trial_count": 51, "ts": "orientation", "exp_stage": "adaptive_procedure", "decision_var": 4.2675463797706215, "response": "right", "rt": 0.23564801100292243, "FB": 0, "quest_estimate": 4.31900152045554, "trial_time": 3.1017092039983254}
{"FBDuration": 0.5, "FBonset": 0, "ITI": 0.7745933718080151, "displayFB": true, "onset": 238.4514825495883, "punishment_amount": 0, "responseWindow": 1.5, "reward_amount": 1, "stim": {"motionDirection": "in", "oriBase": 30, "oriDirection": -1, "oriStrength": "medium", "speedDirection": 1, "speedStrength": "medium", "speed_start": 0.12, "speed_end": 0.12146697836604672, "ori_start": 30, "ori_end": 25.727727867010817, "motion_direction": "in"}, "stimResponseInterval": 0.9690670152542742, "stimulusDuration": 1.5, "trial_count": 52, "ts": "orientation", "exp_stage": "adaptive_procedure", "decision_var": 4.272272132989183, "response": "left", "rt": 0.28952202199434396, "FB": 1, "quest_estimate": 4.316320383164985, "trial_time": 3.3034086150000803}
{"FBDuration": 0.5, "FBonset": 0, "ITI": 0.1587777810432397, "displayFB": true, "onset": 243.69514293665057, "punishment_amount": 0, "responseWindow": 1.5, "reward_amount": 1, "stim": {"motionDirection": "out", "oriBase": -60, "oriDirection": 1, "oriStrength": "medium", "speedDirection": 1, "speedStrength": "medium", "speed_start": 0.12, "speed_end": 0.12146697836604672, "ori_start": -60, "ori_end": -55.72989463201185, "motion_direction": "out"}, "stimResponseInterval": 0.03218120740123109, "stimulusDuration": 1.5, "trial_count": 53, "ts": "orientation", "exp_stage": "adaptive_procedure", "decision_var": 4.270105367988151, "response": "right", "rt": 0.44808040199859533, "FB": 1, "quest_estimate": 4.313970631311239, "trial_time": 2.515697242997703}
{"FBDuration": 0.5, "FBonset": 0, "ITI": 0.01030009153854139, "displayFB": true, "onset": 247.38610192509503, "punishment_amount": 0, "responseWindow": 1.5, "reward_amount": 1, "stim": {"motionDirection": "in", "oriBase": 30, "oriDirection": -1, "oriStrength": "medium", "speedDirection": -1, "speedStrength": "medium", "speed_start": 0.12, "speed_end": 0.11853302163395327, "ori_start": 30, "ori_end": 25.73170540018176, "motion_direction": "in"}, "stimResponseInterval": 0.3256072828096186, "stimulusDuration": 1.5, "trial_count": 54, "ts": "orientation", "exp_stage": "adaptive_procedure", "decision_var": 4.26829459981824, "response": "left", "rt": 0.4050363669957733, "FB": 1, "quest_estimate": 4.311923068117924, "trial_time": 2.760685833010939}
{"FBDuration": 0.5, "FBonset": 0, "ITI": 0.5730092385365193, "displayFB": true, "onset": 251.2220092994432, "punishment_amount": 0, "responseWindow": 1.5, "reward_amount": 1, "stim": {"motionDirection": "in", "oriBase": -60, "oriDirection": -1, "oriStrength": "medium", "speedDirection": -1, "speedStrength": "medium", "speed_start": 0.12, "speed_end": 0.11853302163395327, "ori_start": -60, "ori_end": -64.26678028319728, "motion_direction": "in"}, "stimResponseInterval": 0.0732693730971099, "stimulusDuration": 1.5, "trial_count": 55, "ts": "orientation", "exp_stage": "adaptive_procedure", "decision_var": 4.266780283197285, "response": "left", "rt": 0.36631749200751074, "FB": 1, "quest_estimate": 4.3101478010150664, "trial_time": 2.468496770001366}
{"FBDuration": 0.5, "FBonset": 0, "ITI": 0.1661734072666381, "displayFB": true, "onset": 255.3682879110768, "punishment_amount": 0, "responseWindow": 1.5, "reward_amount": 1, "stim": {"motionDirection": "out", "oriBase": 30, "oriDirection": 1, "oriStrength": "medium", "speedDirection": -1, "speedStrength": "medium", "speed_start": 0.12, "speed_end": 0.11853302163395327, "ori_start": 30, "ori_end": 34.26551304800201, "motion_direction": "out"}, "stimResponseInterval": 0.6103670282551774, "stimulusDuration": 1.5, "trial_count": 56, "ts": "orientation", "exp_stage": "adaptive_procedure", "decision_var": 4.265513048002013, "response": "right", "rt": 0.2850168120057788, "FB": 1, "quest_estimate": 4.308615298668439, "trial_time": 2.9307055519893765}
{"FBDuration": 0.5, "FBonset": 0, "ITI": 0.8158956350435116, "displayFB": true, "onset": 259.6448283465986, "punishment_amount": 0, "responseWindow": 1.5, "reward_amount": 1, "stim": {"motionDirection": "out", "oriBase": 30, "oriDirection": 1, "oriStrength": "medium", "speedDirection": 1, "speedStrength": "medium", "speed_start": 0.12, "speed_end": 0.12146697836604672, "ori_start": 30, "ori_end": 34.264451894142226, "motion_direction": "out"}, "stimResponseInterval": 0.1768179011815756, "stimulusDuration": 1.5, "trial_count": 57, "ts": "orientation", "exp_stage": "adaptive_procedure", "decision_var": 4.26445189414223, "response": "right", "rt": 0.7940616470004898, "FB": 1, "quest_estimate": 4.30729720357974, "trial_time": 2.9982766039902344}
{"FBDuration": 0.5, "FBonset": 0, "ITI": 0.014369837394607954, "displayFB": true, "onset": 264.1375418828237, "punishment_amount": 0, "responseWindow": 1.5, "reward_amount": 1, "stim": {"motionDirection": "out", "oriBase": 30, "oriDirection": -1, "oriStrength": "medium", "speedDirection": 1, "speedStrength": "medium", "speed_start": 0.12, "speed_end": 0.12146697836604672, "ori_start": 30, "ori_end": 25.73643727845608, "motion_direction": "out"}, "stimResponseInterval": 0.7120424591392429, "stimulusDuration": 1.5, "trial_count": 58, "ts": "orientation", "exp_stage": "adaptive_procedure", "decision_var": 4.26356272154392, "response": "left", "rt": 0.3805334720091196, "FB": 1, "quest_estimate": 4.306166899991975, "trial_time": 3.1293068489903817}
{"FBDuration": 0.5, "FBonset": 0, "ITI": 0.32839770532794077, "displayFB": true, "onset": 268.36395417935756, "punishment_amount": 0, "responseWindow": 1.5, "reward_amount": 1, "stim": {"motionDirection": "out", "oriBase": -60, "oriDirection": -1, "oriStrength": "medium", "speedDirection": 1, "speedStrength": "medium", "speed_start": 0.12, "speed_end": 0.12146697836604672, "ori_start": -60, "ori_end": -64.26281712896285, "motion_direction": "out"}, "stimResponseInterval": 0.6757538360819182, "stimulusDuration": 1.5, "trial_count": 59, "ts": "orientation", "exp_stage": "adaptive_procedure", "decision_var": 4.262817128962851, "response": "left", "rt": 0.3098163579998072, "FB": 1, "quest_estimate": 4.3051998631777195, "trial_time": 3.0150337040104205}
{"FBDuration": 0.5, "FBonset": 0, "ITI": 0.4110171109250216, "displayFB": true, "onset": 272.8681057207674, "punishment_amount": 0, "responseWindow": 1.5, "reward_amount": 1, "stim": {"motionDirection": "out", "oriBase": 30, "oriDirection": 1, "oriStrength": "medium", "speedDirection": 1, "speedStrength": "medium", "speed_start": 0.12, "speed_end": 0.12146697836604672, "ori_start": 30, "ori_end": 34.26219142936739, "motion_direction": "out"}, "stimResponseInterval": 0.47073517581180957, "stimulusDuration": 1.5, "trial_count": 60, "ts": "orientation", "exp_stage": "adaptive_procedure", "decision_var": 4.262191429367395, "response": "left", "rt": 0.4737839540030109, "FB": 0, "quest_estimate": 4.307896549534185, "trial_time": 2.973940345007577}
{"FBDuration": 0.5, "FBonset": 0, "ITI": 0.2992064753967296, "displayFB": true, "onset": 277.24985800750426, "punishment_amount": 0, "responseWindow": 1.5, "reward_amount": 1, "stim": {"motionDirection": "in", "oriBase": -60, "oriDirection": -1, "oriStrength": "medium", "speedDirection": 1, "speedStrength": "medium", "speed_start": 0.12, "speed_end": 0.12146697836604672, "ori_start": -60, "ori_end": -64.26397007022598, "motion_direction": "in"}, "stimResponseInterval": 0.3295767856234527, "stimulusDuration": 1.5, "trial_count": 61, "ts": "orientation", "exp_stage": "adaptive_procedure", "decision_var": 4.263970070225973, "response": "left", "rt": 0.3057834890059894, "FB": 1, "quest_estimate": 4.306688471087625, "trial_time": 2.665941577986814}
{"FBDuration": 0.5, "FBonset": 0, "ITI": 0.963797435281547, "displayFB": true, "onset": 281.37864126852446, "punishment_amount": 0, "responseWindow": 1.5, "reward_amount": 1, "stim": {"motionDirection": "in", "oriBase": -60, "oriDirection": -1, "oriStrength": "medium", "speedDirection": -1, "speedStrength": "medium", "speed_start": 0.12, "speed_end": 0.11853302163395327, "ori_start": -60, "ori_end": -64.26316168716232, "motion_direction": "in"}, "stimResponseInterval": 0.17516751197791325, "stimulusDuration": 1.5, "trial_count": 62, "ts": "orientation", "exp_stage": "adaptive_procedure", "decision_var": 4.263161687162331, "response": "left", "rt": 0.340910607992555, "FB": 1, "quest_estimate": 4.305654005833013, "trial_time": 2.552684523994685}
{"FBDuration": 0.5, "FBonset": 0, "ITI": 0.12582513171726395, "displayFB": true, "onset": 286.0176062157839, "punishment_amount": 0, "responseWindow": 1.5, "reward_amount": 1, "stim": {"motionDirection": "out", "oriBase": 30, "oriDirection": -1, "oriStrength": "medium", "speedDirection": 1, "speedStrength": "medium", "speed_start": 0.12, "speed_end": 0.12146697836604672, "ori_start": 30, "ori_end": 25.737516229182795, "motion_direction": "out"}, "stimResponseInterval": 0.6917791777928024, "stimulusDuration": 1.5, "trial_count": 63, "ts": "orientation", "exp_stage": "adaptive_procedure", "decision_var": 4.262483770817205, "response": "left", "rt": 0.2774194559897296, "FB": 1, "quest_estimate": 4.304770312718883, "trial_time": 3.0024199210020015}
{"FBDuration": 0.5, "FBonset": 0, "ITI": 0.962496269666187, "displayFB": true, "onset": 290.335210525294, "punishment_amount": 0, "responseWindow": 1.5, "reward_amount": 1, "stim": {"motionDirection": "in", "oriBase": 30, "oriDirection": 1, "oriStrength": "medium", "speedDirection": -1, "speedStrength": "medium", "speed_start": 0.12, "speed_end": 0.11853302163395327, "ori_start": 30, "ori_end": 34.261914920913455, "motion_direction": "in"}, "stimResponseInterval": 0.7634087547215005, "stimulusDuration": 1.5, "trial_count": 64, "ts": "orientation", "exp_stage": "adaptive_procedure", "decision_var": 4.261914920913455, "response": "right", "rt": 0.31000129399762955, "FB": 1, "quest_estimate": 4.304016750580292, "trial_time": 3.107395165003254}
