{"FBDuration": 0.5, "FBonset": 0, "ITI": 0.6989390440635173, "displayFB": true, "onset": 2, "punishment_amount": 0, "responseWindow": 1.5, "reward_amount": 1, "stim": {"motionDirection": "in", "oriBase": 30, "oriDirection": -1, "oriStrength": "medium", "speedDirection": -1, "speedStrength": "medium", "speed_start": 0.12, "speed_end": 0.11499813684259698, "ori_start": 30, "ori_end": 25.695983249419708, "motion_direction": "in"}, "stimResponseInterval": 0.6658963500211934, "stimulusDuration": 1.5, "trial_count": 1, "ts": "motion", "exp_stage": "adaptive_procedure", "decision_var": 0.0050018631574030165, "response": "left", "rt": 0.3410232239984907, "FB": 0, "quest_estimate": 0.00514875259173643, "trial_time": 3.0510616489918903}
{"FBDuration": 0.5, "FBonset": 0, "ITI": 0.1395761723616733, "displayFB": true, "onset": 6.864835394084711, "punishment_amount": 0, "responseWindow": 1.5, "reward_amount": 1, "stim": {"motionDirection": "out", "oriBase": 30, "oriDirection": -1, "oriStrength": "medium", "speedDirection": 1, "speedStrength": "medium", "speed_start": 0.12, "speed_end": 0.12883798035887464, "ori_start": 30, "ori_end": 25.695983249419708, "motion_direction": "out"}, "stimResponseInterval": 0.8427641547229716, "stimulusDuration": 1.5, "trial_count": 2, "ts": "motion", "exp_stage": "adaptive_procedure", "decision_var": 0.008837980358874654, "response": "left", "rt": 0.3514651120058261, "FB": 0, "quest_estimate": 0.008995971197578723, "trial_time": 3.2262496020121034}
{"FBDuration": 0.5, "FBonset": 0, "ITI": 0.33346545672662553, "displayFB": true, "onset": 11.347175721169355, "punishment_amount": 0, "responseWindow": 1.5, "reward_amount": 1, "stim": {"motionDirection": "in", "oriBase": -60, "oriDirection": -1, "oriStrength": "medium", "speedDirection": -1, "speedStrength": "medium", "speed_start": 0.12, "speed_end": 0.10719547985829156, "ori_start": -60, "ori_end": -64.30401675058029, "motion_direction": "in"}, "stimResponseInterval": 0.2656162356841544, "stimulusDuration": 1.5, "trial_count": 3, "ts": "motion", "exp_stage": "adaptive_procedure", "decision_var": 0.012804520141708436, "response": "down", "rt": 0.33213551799417473, "FB": 1, "quest_estimate": 0.007877395057659657, "trial_time": 2.6316154730011476}
{"FBDuration": 0.5, "FBonset": 0, "ITI": 0.7194245436677353, "displayFB": true, "onset": 15.446257413580135, "punishment_amount": 0, "responseWindow": 1.5, "reward_amount": 1, "stim": {"motionDirection": "in", "oriBase": 30, "oriDirection": -1, "oriStrength": "medium", "speedDirection": -1, "speedStrength": "medium", "speed_start": 0.12, "speed_end": 0.10835032726254223, "ori_start": 30, "ori_end": 25.695983249419708, "motion_direction": "in"}, "stimResponseInterval": 0.8892645945643416, "stimulusDuration": 1.5, "trial_count": 4, "ts": "motion", "exp_stage": "adaptive_procedure", "decision_var": 0.011649672737457768, "response": "down", "rt": 0.27809433100628667, "FB": 1, "quest_estimate": 0.006779626715171967, "trial_time": 3.2049551400123164}
{"FBDuration": 0.5, "FBonset": 0, "ITI": 0.16060347098551409, "displayFB": true, "onset": 20.55494655181221, "punishment_amount": 0, "responseWindow": 1.5, "reward_amount": 1, "stim": {"motionDirection": "out", "oriBase": -60, "oriDirection": 1, "oriStrength": "medium", "speedDirection": -1, "speedStrength": "medium", "speed_start": 0.12, "speed_end": 0.10948539690455839, "ori_start": -60, "ori_end": -55.69598324941971, "motion_direction": "out"}, "stimResponseInterval": 0.8181783062484655, "stimulusDuration": 1.5, "trial_count": 5, "ts": "motion", "exp_stage": "adaptive_procedure", "decision_var": 0.010514603095441617, "response": "down", "rt": 0.25496144000499044, "FB": 1, "quest_estimate": 0.0057021964141451, "trial_time": 3.1039325250021648}
{"FBDuration": 0.5, "FBonset": 0, "ITI": 0.14913030106981984, "displayFB": true, "onset": 25.03372832904619, "punishment_amount": 0, "responseWindow": 1.5, "reward_amount": 1, "stim": {"motionDirection": "in", "oriBase": 30, "oriDirection": 1, "oriStrength": "medium", "speedDirection": 1, "speedStrength": "medium", "speed_start": 0.12, "speed_end": 0.12939864874224988, "ori_start": 30, "ori_end": 34.30401675058029, "motion_direction": "in"}, "stimResponseInterval": 0.32501073457446505, "stimulusDuration": 1.5, "trial_count": 6, "ts": "motion", "exp_stage": "adaptive_procedure", "decision_var": 0.009398648742249889, "response": "up", "rt": 0.3353201339923544, "FB": 1, "quest_estimate": 0.004644664543728146, "trial_time": 2.697985309001524}
{"FBDuration": 0.5, "FBonset": 0, "ITI": 0.9844398137326134, "displayFB": true, "onset": 29.007869364690475, "punishment_amount": 0, "responseWindow": 1.5, "reward_amount": 1, "stim": {"motionDirection": "out", "oriBase": 30, "oriDirection": -1, "oriStrength": "medium", "speedDirection": 1, "speedStrength": "medium", "speed_start": 0.12, "speed_end": 0.1283013608754927, "ori_start": 30, "ori_end": 25.695983249419708, "motion_direction": "out"}, "stimResponseInterval": 0.5505024446638851, "stimulusDuration": 1.5, "trial_count": 7, "ts": "motion", "exp_stage": "adaptive_procedure", "decision_var": 0.008301360875492707, "response": "up", "rt": 0.31694252700253855, "FB": 1, "quest_estimate": 0.003606619583647261, "trial_time": 2.8989289889868814}
{"FBDuration": 0.5, "FBonset": 0, "ITI": 0.39748421452443494, "displayFB": true, "onset": 34.042811623086976, "punishment_amount": 0, "responseWindow": 1.5, "reward_amount": 1, "stim": {"motionDirection": "in", "oriBase": -60, "oriDirection": -1, "oriStrength": "medium", "speedDirection": 1, "speedStrength": "medium", "speed_start": 0.12, "speed_end": 0.12722230878735624, "ori_start": -60, "ori_end": -64.30401675058029, "motion_direction": "in"}, "stimResponseInterval": 0.02109111118435847, "stimulusDuration": 1.5, "trial_count": 8, "ts": "motion", "exp_stage": "adaptive_procedure", "decision_var": 0.0072223087873562394, "response": "up", "rt": 0.5704184639907908, "FB": 1, "quest_estimate": 0.0025876760983711555, "trial_time": 2.6242034770111786}
{"FBDuration": 0.5, "FBonset": 0, "ITI": 0.7134609674653651, "displayFB": true, "onset": 37.96138694879577, "punishment_amount": 0, "responseWindow": 1.5, "reward_amount": 1, "stim": {"motionDirection": "in", "oriBase": 30, "oriDirection": -1, "oriStrength": "medium", "speedDirection": 1, "speedStrength": "medium", "speed_start": 0.12, "speed_end": 0.12616107845809624, "ori_start": 30, "ori_end": 25.695983249419708, "motion_direction": "in"}, "stimResponseInterval": 0.26857718605406977, "stimulusDuration": 1.5, "trial_count": 9, "ts": "motion", "exp_stage": "adaptive_procedure", "decision_var": 0.006161078458096242, "response": "up", "rt": 0.4525564450013917, "FB": 1, "quest_estimate": 0.001587472787469131, "trial_time": 2.7535665949981194}
{"FBDuration": 0.5, "FBonset": 0, "ITI": 0.14979730831168325, "displayFB": true, "onset": 42.4434251023152, "punishment_amount": 0, "responseWindow": 1.5, "reward_amount": 1, "stim": {"motionDirection": "out", "oriBase": -60, "oriDirection": 1, "oriStrength": "medium", "speedDirection": 1, "speedStrength": "medium", "speed_start": 0.12, "speed_end": 0.12511727139387246, "ori_start": -60, "ori_end": -55.69598324941971, "motion_direction": "out"}, "stimResponseInterval": 0.6781932118371041, "stimulusDuration": 1.5, "trial_count": 10, "ts": "motion", "exp_stage": "adaptive_procedure", "decision_var": 0.005117271393872469, "response": "down", "rt": 0.27627682700403966, "FB": 0, "quest_estimate": 0.005083631652760517, "trial_time": 2.991799384006299}
{"FBDuration": 0.5, "FBonset": 0, "ITI": 0.42199179432532863, "displayFB": true, "onset": 46.77141562246399, "punishment_amount": 0, "responseWindow": 1.5, "reward_amount": 1, "stim": {"motionDirection": "out", "oriBase": -60, "oriDirection": 1, "oriStrength": "medium", "speedDirection": 1, "speedStrength": "medium", "speed_start": 0.12, "speed_end": 0.12874197000642074, "ori_start": -60, "ori_end": -55.69598324941971, "motion_direction": "out"}, "stimResponseInterval": 0.21357384046841354, "stimulusDuration": 1.5, "trial_count": 11, "ts": "motion", "exp_stage": "adaptive_procedure", "decision_var": 0.008741970006420748, "response": "down", "rt": 0.3833580930077005, "FB": 0, "quest_estimate": 0.008711286048685152, "trial_time": 2.6393235069990624}
{"FBDuration": 0.5, "FBonset": 0, "ITI": 0.2882724892931857, "displayFB": true, "onset": 50.90698125725773, "punishment_amount": 0, "responseWindow": 1.5, "reward_amount": 1, "stim": {"motionDirection": "in", "oriBase": -60, "oriDirection": 1, "oriStrength": "medium", "speedDirection": -1, "speedStrength": "medium", "speed_start": 0.12, "speed_end": 0.10753164551580972, "ori_start": -60, "ori_end": -55.69598324941971, "motion_direction": "in"}, "stimResponseInterval": 0.6882837605103609, "stimulusDuration": 1.5, "trial_count": 12, "ts": "motion", "exp_stage": "adaptive_procedure", "decision_var": 0.012468354484190272, "response": "down", "rt": 0.31709834998764563, "FB": 1, "quest_estimate": 0.007658535708299698, "trial_time": 3.0481370920024347}
{"FBDuration": 0.5, "FBonset": 0, "ITI": 0.5971647280328525, "displayFB": true, "onset": 55.38353750706128, "punishment_amount": 0, "responseWindow": 1.5, "reward_amount": 1, "stim": {"motionDirection": "in", "oriBase": -60, "oriDirection": -1, "oriStrength": "medium", "speedDirection": 1, "speedStrength": "medium", "speed_start": 0.12, "speed_end": 0.13138394464406172, "ori_start": -60, "ori_end": -64.30401675058029, "motion_direction": "in"}, "stimResponseInterval": 0.6055054112382783, "stimulusDuration": 1.5, "trial_count": 13, "ts": "motion", "exp_stage": "adaptive_procedure", "decision_var": 0.011383944644061741, "response": "up", "rt": 0.378946716999053, "FB": 1, "quest_estimate": 0.006623851693561465, "trial_time": 3.019528539007297}
{"FBDuration": 0.5, "FBonset": 0, "ITI": 0.021018867888804582, "displayFB": true, "onset": 60.08620764633241, "punishment_amount": 0, "responseWindow": 1.5, "reward_amount": 1, "stim": {"motionDirection": "in", "oriBase": -60, "oriDirection": 1, "oriStrength": "medium", "speedDirection": 1, "speedStrength": "medium", "speed_start": 0.12, "speed_end": 0.13031662936513533, "ori_start": -60, "ori_end": -55.69598324941971, "motion_direction": "in"}, "stimResponseInterval": 0.3071375118696529, "stimulusDuration": 1.5, "trial_count": 14, "ts": "motion", "exp_stage": "adaptive_procedure", "decision_var": 0.01031662936513534, "response": "up", "rt": 0.3516615399857983, "FB": 1, "quest_estimate": 0.00560684463324615, "trial_time": 2.6928767759964103}
{"FBDuration": 0.5, "FBonset": 0, "ITI": 0.6398299062315114, "displayFB": true, "onset": 63.914364026090865, "punishment_amount": 0, "responseWindow": 1.5, "reward_amount": 1, "stim": {"motionDirection": "out", "oriBase": 30, "oriDirection": 1, "oriStrength": "medium", "speedDirection": 1, "speedStrength": "medium", "speed_start": 0.12, "speed_end": 0.12926606807356322, "ori_start": 30, "ori_end": 34.30401675058029, "motion_direction": "out"}, "stimResponseInterval": 0.7732300779030647, "stimulusDuration": 1.5, "trial_count": 15, "ts": "motion", "exp_stage": "adaptive_procedure", "decision_var": 0.009266068073563213, "response": "down", "rt": 0.37759331600682344, "FB": 0, "quest_estimate": 0.009167702793744105, "trial_time": 3.192304572003195}
{"FBDuration": 0.5, "FBonset": 0, "ITI": 0.46990592656790486, "displayFB": true, "onset": 68.82742401022544, "punishment_amount": 0, "responseWindow": 1.5, "reward_amount": 1, "stim": {"motionDirection": "out", "oriBase": 30, "oriDirection": -1, "oriStrength": "medium", "speedDirection": -1, "speedStrength": "medium", "speed_start": 0.12, "speed_end": 0.10708573622463458, "ori_start": 30, "ori_end": 25.695983249419708, "motion_direction": "out"}, "stimResponseInterval": 0.30040425713467034, "stimulusDuration": 1.5, "trial_count": 16, "ts": "motion", "exp_stage": "adaptive_procedure", "decision_var": 0.01291426377536542, "response": "down", "rt": 0.34868193499278277, "FB": 1, "quest_estimate": 0.008136388345223872, "trial_time": 2.679720393003663}
{"FBDuration": 0.5, "FBonset": 0, "ITI": 0.8993621350347869, "displayFB": true, "onset": 73.09773419392802, "punishment_amount": 0, "responseWindow": 1.5, "reward_amount": 1, "stim": {"motionDirection": "out", "oriBase": -60, "oriDirection": 1, "oriStrength": "medium", "speedDirection": 1, "speedStrength": "medium", "speed_start": 0.12, "speed_end": 0.13185377781183774, "ori_start": -60, "ori_end": -55.69598324941971, "motion_direction": "out"}, "stimResponseInterval": 0.9530531705653154, "stimulusDuration": 1.5, "trial_count": 17, "ts": "motion", "exp_stage": "adaptive_procedure", "decision_var": 0.011853777811837739, "response": "up", "rt": 0.32348838400503155, "FB": 1, "quest_estimate": 0.007122128911365336, "trial_time": 3.3061064579960657}
{"FBDuration": 0.5, "FBonset": 0, "ITI": 0.6628273127995343, "displayFB": true, "onset": 78.45014949952812, "punishment_amount": 0, "responseWindow": 1.5, "reward_amount": 1, "stim": {"motionDirection": "out", "oriBase": 30, "oriDirection": 1, "oriStrength": "medium", "speedDirection": -1, "speedStrength": "medium", "speed_start": 0.12, "speed_end": 0.10919050444337379, "ori_start": 30, "ori_end": 34.30401675058029, "motion_direction": "out"}, "stimResponseInterval": 0.9300332547113106, "stimulusDuration": 1.5, "trial_count": 18, "ts": "motion", "exp_stage": "adaptive_procedure", "decision_var": 0.010809495556626206, "response": "down", "rt": 0.36968454500311054, "FB": 1, "quest_estimate": 0.006124555286954811, "trial_time": 3.328893647994846}
{"FBDuration": 0.5, "FBonset": 0, "ITI": 0.36508093202067216, "displayFB": true, "onset": 83.54301006703896, "punishment_amount": 0, "responseWindow": 1.5, "reward_amount": 1, "stim": {"motionDirection": "in", "oriBase": -60, "oriDirection": 1, "oriStrength": "medium", "speedDirection": -1, "speedStrength": "medium", "speed_start": 0.12, "speed_end": 0.11021901104488874, "ori_start": -60, "ori_end": -55.69598324941971, "motion_direction": "in"}, "stimResponseInterval": 0.504237167271409, "stimulusDuration": 1.5, "trial_count": 19, "ts": "motion", "exp_stage": "adaptive_procedure", "decision_var": 0.009780988955111265, "response": "down", "rt": 0.29162736699800007, "FB": 1, "quest_estimate": 0.005143322556654603, "trial_time": 2.8358694769995054}
{"FBDuration": 0.5, "FBonset": 0, "ITI": 0.7524586315764803, "displayFB": true, "onset": 87.91232816633105, "punishment_amount": 0, "responseWindow": 1.5, "reward_amount": 1, "stim": {"motionDirection": "out", "oriBase": 30, "oriDirection": 1, "oriStrength": "medium", "speedDirection": 1, "speedStrength": "medium", "speed_start": 0.12, "speed_end": 0.12876808514877272, "ori_start": 30, "ori_end": 34.30401675058029, "motion_direction": "out"}, "stimResponseInterval": 0.18482260766893477, "stimulusDuration": 1.5, "trial_count": 20, "ts": "motion", "exp_stage": "adaptive_procedure", "decision_var": 0.008768085148772718, "response": "up", "rt": 0.3727305320062442, "FB": 1, "quest_estimate": 0.004178108605959817, "trial_time": 2.595478497009026}
{"FBDuration": 0.5, "FBonset": 0, "ITI": 0.3999756569448035, "displayFB": true, "onset": 92.34960940557647, "punishment_amount": 0, "responseWindow": 1.5, "reward_amount": 1, "stim": {"motionDirection": "out", "oriBase": 30, "oriDirection": 1, "oriStrength": "medium", "speedDirection": 1, "speedStrength": "medium", "speed_start": 0.12, "speed_end": 0.12777019254035807, "ori_start": 30, "ori_end": 34.30401675058029, "motion_direction": "out"}, "stimResponseInterval": 0.29479653228943037, "stimulusDuration": 1.5, "trial_count": 21, "ts": "motion", "exp_stage": "adaptive_procedure", "decision_var": 0.007770192540358066, "response": "up", "rt": 0.32344415500119794, "FB": 1, "quest_estimate": 0.0032287169088110884, "trial_time": 2.6539162099943496}
{"FBDuration": 0.5, "FBonset": 0, "ITI": 0.4444029968943154, "displayFB": true, "onset": 96.5443815948107, "punishment_amount": 0, "responseWindow": 1.5, "reward_amount": 1, "stim": {"motionDirection": "out", "oriBase": -60, "oriDirection": -1, "oriStrength": "medium", "speedDirection": -1, "speedStrength": "medium", "speed_start": 0.12, "speed_end": 0.11321296678466161, "ori_start": -60, "ori_end": -64.30401675058029, "motion_direction": "out"}, "stimResponseInterval": 0.8258075686416904, "stimulusDuration": 1.5, "trial_count": 22, "ts": "motion", "exp_stage": "adaptive_procedure", "decision_var": 0.006787033215338384, "response": "up", "rt": 0.3256500689894892, "FB": 0, "quest_estimate": 0.006553224391458334, "trial_time": 3.194440746010514}
{"FBDuration": 0.5, "FBonset": 0, "ITI": 0.4711795177034951, "displayFB": true, "onset": 101.3145921603467, "punishment_amount": 0, "responseWindow": 1.5, "reward_amount": 1, "stim": {"motionDirection": "out", "oriBase": -60, "oriDirection": 1, "oriStrength": "medium", "speedDirection": -1, "speedStrength": "medium", "speed_start": 0.12, "speed_end": 0.10979811452660265, "ori_start": -60, "ori_end": -55.69598324941971, "motion_direction": "out"}, "stimResponseInterval": 0.6772835696063386, "stimulusDuration": 1.5, "trial_count": 23, "ts": "motion", "exp_stage": "adaptive_procedure", "decision_var": 0.010201885473397336, "response": "down", "rt": 0.33854055700066965, "FB": 1, "quest_estimate": 0.005590344368213138, "trial_time": 3.062750157987466}
{"FBDuration": 0.5, "FBonset": 0, "ITI": 0.7983662265902853, "displayFB": true, "onset": 105.96305524765654, "punishment_amount": 0, "responseWindow": 1.5, "reward_amount": 1, "stim": {"motionDirection": "out", "oriBase": -60, "oriDirection": -1, "oriStrength": "medium", "speedDirection": 1, "speedStrength": "medium", "speed_start": 0.12, "speed_end": 0.12920958129014462, "ori_start": -60, "ori_end": -64.30401675058029, "motion_direction": "out"}, "stimResponseInterval": 0.4606891006896978, "stimulusDuration": 1.5, "trial_count": 24, "ts": "motion", "exp_stage": "adaptive_procedure", "decision_var": 0.009209581290144618, "response": "up", "rt": 0.31087022299470846, "FB": 1, "quest_estimate": 0.00464262468641808, "trial_time": 2.799657148992992}
{"FBDuration": 0.5, "FBonset": 0, "ITI": 0.8172295318101475, "displayFB": true, "onset": 110.72211057493652, "punishment_amount": 0, "responseWindow": 1.5, "reward_amount": 1, "stim": {"motionDirection": "out", "oriBase": 30, "oriDirection": 1, "oriStrength": "medium", "speedDirection": -1, "speedStrength": "medium", "speed_start": 0.12, "speed_end": 0.1117682794562467, "ori_start": 30, "ori_end": 34.30401675058029, "motion_direction": "out"}, "stimResponseInterval": 0.024309770071690884, "stimulusDuration": 1.5, "trial_count": 25, "ts": "motion", "exp_stage": "adaptive_procedure", "decision_var": 0.008231720543753297, "response": "up", "rt": 0.4429130049975356, "FB": 0, "quest_estimate": 0.007961383876895774, "trial_time": 2.5067495129915187}
{"FBDuration": 0.5, "FBonset": 0, "ITI": 0.6855316483083858, "displayFB": true, "onset": 115.06364987681836, "punishment_amount": 0, "responseWindow": 1.5, "reward_amount": 1, "stim": {"motionDirection": "in", "oriBase": 30, "oriDirection": -1, "oriStrength": "medium", "speedDirection": -1, "speedStrength": "medium", "speed_start": 0.12, "speed_end": 0.10837328780459132, "ori_start": 30, "ori_end": 25.695983249419708, "motion_direction": "in"}, "stimResponseInterval": 0.6791842444993708, "stimulusDuration": 1.5, "trial_count": 26, "ts": "motion", "exp_stage": "adaptive_procedure", "decision_var": 0.011626712195408666, "response": "down", "rt": 0.3163072409952292, "FB": 1, "quest_estimate": 0.007001600020661081, "trial_time": 3.0272568330110516}
{"FBDuration": 0.5, "FBonset": 0, "ITI": 0.37075589052067304, "displayFB": true, "onset": 119.92836576962611, "punishment_amount": 0, "responseWindow": 1.5, "reward_amount": 1, "stim": {"motionDirection": "out", "oriBase": -60, "oriDirection": 1, "oriStrength": "medium", "speedDirection": -1, "speedStrength": "medium", "speed_start": 0.12, "speed_end": 0.10935948478637803, "ori_start": -60, "ori_end": -55.69598324941971, "motion_direction": "out"}, "stimResponseInterval": 0.2731210625507585, "stimulusDuration": 1.5, "trial_count": 27, "ts": "motion", "exp_stage": "adaptive_procedure", "decision_var": 0.010640515213621964, "response": "up", "rt": 0.6375063960003899, "FB": 0, "quest_estimate": 0.010366179246569539, "trial_time": 2.946912876999704}
{"FBDuration": 0.5, "FBonset": 0, "ITI": 0.9430367712879981, "displayFB": true, "onset": 124.07224272269754, "punishment_amount": 0, "responseWindow": 1.5, "reward_amount": 1, "stim": {"motionDirection": "in", "oriBase": -60, "oriDirection": -1, "oriStrength": "medium", "speedDirection": -1, "speedStrength": "medium", "speed_start": 0.12, "speed_end": 0.1059341377536828, "ori_start": -60, "ori_end": -64.30401675058029, "motion_direction": "in"}, "stimResponseInterval": 0.1486018335076016, "stimulusDuration": 1.5, "trial_count": 28, "ts": "motion", "exp_stage": "adaptive_procedure", "decision_var": 0.014065862246317208, "response": "down", "rt": 0.4100015459989663, "FB": 1, "quest_estimate": 0.009395657422187939, "trial_time": 2.602476125000976}
{"FBDuration": 0.5, "FBonset": 0, "ITI": 0.901386399628366, "displayFB": true, "onset": 128.66388132749313, "punishment_amount": 0, "responseWindow": 1.5, "reward_amount": 1, "stim": {"motionDirection": "in", "oriBase": 30, "oriDirection": 1, "oriStrength": "medium", "speedDirection": -1, "speedStrength": "medium", "speed_start": 0.12, "speed_end": 0.10692796048100747, "ori_start": 30, "ori_end": 34.30401675058029, "motion_direction": "in"}, "stimResponseInterval": 0.7506617329243634, "stimulusDuration": 1.5, "trial_count": 29, "ts": "motion", "exp_stage": "adaptive_procedure", "decision_var": 0.01307203951899253, "response": "up", "rt": 0.3829039609991014, "FB": 0, "quest_estimate": 0.012800118506613854, "trial_time": 3.1716394050017698}
{"FBDuration": 0.5, "FBonset": 0, "ITI": 0.632799170463255, "displayFB": true, "onset": 133.81592946004585, "punishment_amount": 0, "responseWindow": 1.5, "reward_amount": 1, "stim": {"motionDirection": "out", "oriBase": -60, "oriDirection": -1, "oriStrength": "medium", "speedDirection": 1, "speedStrength": "medium", "speed_start": 0.12, "speed_end": 0.13652457114964794, "ori_start": -60, "ori_end": -64.30401675058029, "motion_direction": "out"}, "stimResponseInterval": 0.24266900009141612, "stimulusDuration": 1.5, "trial_count": 30, "ts": "motion", "exp_stage": "adaptive_procedure", "decision_var": 0.01652457114964794, "response": "up", "rt": 0.33029413101030514, "FB": 1, "quest_estimate": 0.011819934640750089, "trial_time": 2.6107197679957608}
{"FBDuration": 0.5, "FBonset": 0, "ITI": 0.9422904697240111, "displayFB": true, "onset": 138.19139763060053, "punishment_amount": 0, "responseWindow": 1.5, "reward_amount": 1, "stim": {"motionDirection": "out", "oriBase": -60, "oriDirection": -1, "oriStrength": "medium", "speedDirection": -1, "speedStrength": "medium", "speed_start": 0.12, "speed_end": 0.10447637948250132, "ori_start": -60, "ori_end": -64.30401675058029, "motion_direction": "out"}, "stimResponseInterval": 0.3053258325240722, "stimulusDuration": 1.5, "trial_count": 31, "ts": "motion", "exp_stage": "adaptive_procedure", "decision_var": 0.015523620517498678, "response": "down", "rt": 0.3149606090009911, "FB": 1, "quest_estimate": 0.010854162190428479, "trial_time": 2.6512705589993857}
{"FBDuration": 0.5, "FBonset": 0, "ITI": 0.4336049618453236, "displayFB": true, "onset": 142.9390139328486, "punishment_amount": 0, "responseWindow": 1.5, "reward_amount": 1, "stim": {"motionDirection": "in", "oriBase": -60, "oriDirection": -1, "oriStrength": "medium", "speedDirection": -1, "speedStrength": "medium", "speed_start": 0.12, "speed_end": 0.10546338230178892, "ori_start": -60, "ori_end": -64.30401675058029, "motion_direction": "in"}, "stimResponseInterval": 0.77116312931259, "stimulusDuration": 1.5, "trial_count": 32, "ts": "motion", "exp_stage": "adaptive_procedure", "decision_var": 0.014536617698211067, "response": "down", "rt": 0.2884110779996263, "FB": 1, "quest_estimate": 0.009902568610869474, "trial_time": 3.0958081009885063}
{"FBDuration": 0.5, "FBonset": 0, "ITI": 0.5653631458967372, "displayFB": true, "onset": 147.64378202400653, "punishment_amount": 0, "responseWindow": 1.5, "reward_amount": 1, "stim": {"motionDirection": "out", "oriBase": -60, "oriDirection": -1, "oriStrength": "medium", "speedDirection": -1, "speedStrength": "medium", "speed_start": 0.12, "speed_end": 0.10643676522330617, "ori_start": -60, "ori_end": -64.30401675058029, "motion_direction": "out"}, "stimResponseInterval": 0.32947021828126877, "stimulusDuration": 1.5, "trial_count": 33, "ts": "motion", "exp_stage": "adaptive_procedure", "decision_var": 0.013563234776693835, "response": "up", "rt": 0.2851877799985232, "FB": 0, "quest_estimate": 0.013242961031013599, "trial_time": 2.6469947650039103}
{"FBDuration": 0.5, "FBonset": 0, "ITI": 0.7618768341059945, "displayFB": true, "onset": 152.03861538818452, "punishment_amount": 0, "responseWindow": 1.5, "reward_amount": 1, "stim": {"motionDirection": "in", "oriBase": -60, "oriDirection": 1, "oriStrength": "medium", "speedDirection": 1, "speedStrength": "medium", "speed_start": 0.12, "speed_end": 0.13694615131326454, "ori_start": -60, "ori_end": -55.69598324941971, "motion_direction": "in"}, "stimResponseInterval": 0.9591350072179163, "stimulusDuration": 1.5, "trial_count": 34, "ts": "motion", "exp_stage": "adaptive_procedure", "decision_var": 0.016946151313264532, "response": "up", "rt": 0.3880253670067759, "FB": 1, "quest_estimate": 0.012282579954994988, "trial_time": 3.3887331089936197}
{"FBDuration": 0.5, "FBonset": 0, "ITI": 0.011958027764487955, "displayFB": true, "onset": 157.25962722950842, "punishment_amount": 0, "responseWindow": 1.5, "reward_amount": 1, "stim": {"motionDirection": "out", "oriBase": 30, "oriDirection": -1, "oriStrength": "medium", "speedDirection": 1, "speedStrength": "medium", "speed_start": 0.12, "speed_end": 0.13596613374252087, "ori_start": 30, "ori_end": 25.695983249419708, "motion_direction": "out"}, "stimResponseInterval": 0.552991361484199, "stimulusDuration": 1.5, "trial_count": 35, "ts": "motion", "exp_stage": "adaptive_procedure", "decision_var": 0.015966133742520858, "response": "up", "rt": 0.2946778030018322, "FB": 1, "quest_estimate": 0.011335900171729044, "trial_time": 2.886876499003847}
{"FBDuration": 0.5, "FBonset": 0, "ITI": 0.8483950199560331, "displayFB": true, "onset": 161.3245766187571, "punishment_amount": 0, "responseWindow": 1.5, "reward_amount": 1, "stim": {"motionDirection": "out", "oriBase": 30, "oriDirection": -1, "oriStrength": "medium", "speedDirection": -1, "speedStrength": "medium", "speed_start": 0.12, "speed_end": 0.10500034142801198, "ori_start": 30, "ori_end": 25.695983249419708, "motion_direction": "out"}, "stimResponseInterval": 0.5702055929720262, "stimulusDuration": 1.5, "trial_count": 36, "ts": "motion", "exp_stage": "adaptive_procedure", "decision_var": 0.014999658571988012, "response": "down", "rt": 0.3048490329965716, "FB": 1, "quest_estimate": 0.010402591235870208, "trial_time": 2.918015634000767}
{"FBDuration": 0.5, "FBonset": 0, "ITI": 0.41564151732224286, "displayFB": true, "onset": 166.24317723168517, "punishment_amount": 0, "responseWindow": 1.5, "reward_amount": 1, "stim": {"motionDirection": "in", "oriBase": -60, "oriDirection": -1, "oriStrength": "medium", "speedDirection": 1, "speedStrength": "medium", "speed_start": 0.12, "speed_end": 0.13404610030390005, "ori_start": -60, "ori_end": -64.30401675058029, "motion_direction": "in"}, "stimResponseInterval": 0.5691490902480141, "stimulusDuration": 1.5, "trial_count": 37, "ts": "motion", "exp_stage": "adaptive_procedure", "decision_var": 0.014046100303900057, "response": "up", "rt": 0.2678041679901071, "FB": 1, "quest_estimate": 0.00948245145446966, "trial_time": 2.879382782994071}
{"FBDuration": 0.5, "FBonset": 0, "ITI": 0.3521214224134249, "displayFB": true, "onset": 170.72796783925543, "punishment_amount": 0, "responseWindow": 1.5, "reward_amount": 1, "stim": {"motionDirection": "in", "oriBase": 30, "oriDirection": -1, "oriStrength": "medium", "speedDirection": -1, "speedStrength": "medium", "speed_start": 0.12, "speed_end": 0.10689460625468458, "ori_start": 30, "ori_end": 25.695983249419708, "motion_direction": "in"}, "stimResponseInterval": 0.19821596197770874, "stimulusDuration": 1.5, "trial_count": 38, "ts": "motion", "exp_stage": "adaptive_procedure", "decision_var": 0.01310539374531542, "response": "down", "rt": 0.3619271780044073, "FB": 1, "quest_estimate": 0.008575086603565457, "trial_time": 2.6026532870018855}
{"FBDuration": 0.5, "FBonset": 0, "ITI": 0.46381369792880867, "displayFB": true, "onset": 174.77830522364656, "punishment_amount": 0, "responseWindow": 1.5, "reward_amount": 1, "stim": {"motionDirection": "out", "oriBase": -60, "oriDirection": 1, "oriStrength": "medium", "speedDirection": 1, "speedStrength": "medium", "speed_start": 0.12, "speed_end": 0.13217696629505643, "ori_start": -60, "ori_end": -55.69598324941971, "motion_direction": "out"}, "stimResponseInterval": 0.2769561194611967, "stimulusDuration": 1.5, "trial_count": 39, "ts": "motion", "exp_stage": "adaptive_procedure", "decision_var": 0.012176966295056435, "response": "up", "rt": 0.3113607130071614, "FB": 1, "quest_estimate": 0.007680327139468465, "trial_time": 2.6324076690070797}
{"FBDuration": 0.5, "FBonset": 0, "ITI": 0.027298242301151743, "displayFB": true, "onset": 179.01907504103656, "punishment_amount": 0, "responseWindow": 1.5, "reward_amount": 1, "stim": {"motionDirection": "out", "oriBase": -60, "oriDirection": -1, "oriStrength": "medium", "speedDirection": 1, "speedStrength": "medium", "speed_start": 0.12, "speed_end": 0.13126083531245647, "ori_start": -60, "ori_end": -64.30401675058029, "motion_direction": "out"}, "stimResponseInterval": 0.23622830301266495, "stimulusDuration": 1.5, "trial_count": 40, "ts": "motion", "exp_stage": "adaptive_procedure", "decision_var": 0.011260835312456488, "response": "up", "rt": 0.2920097549940692, "FB": 1, "quest_estimate": 0.00679781645309218, "trial_time": 2.567575710010715}
{"FBDuration": 0.5, "FBonset": 0, "ITI": 0.8415415595535296, "displayFB": true, "onset": 182.78260158635038, "punishment_amount": 0, "responseWindow": 1.5, "reward_amount": 1, "stim": {"motionDirection": "out", "oriBase": -60, "oriDirection": -1, "oriStrength": "medium", "speedDirection": 1, "speedStrength": "medium", "speed_start": 0.12, "speed_end": 0.13035633891222964, "ori_start": -60, "ori_end": -64.30401675058029, "motion_direction": "out"}, "stimResponseInterval": 0.5890371862864259, "stimulusDuration": 1.5, "trial_count": 41, "ts": "motion", "exp_stage": "adaptive_procedure", "decision_var": 0.010356338912229653, "response": "up", "rt": 0.30704714499006514, "FB": 1, "quest_estimate": 0.0059274132854604256, "trial_time": 2.9401542830019025}
{"FBDuration": 0.5, "FBonset": 0, "ITI": 0.8612188084433381, "displayFB": true, "onset": 187.71318033219035, "punishment_amount": 0, "responseWindow": 1.5, "reward_amount": 1, "stim": {"motionDirection": "in", "oriBase": -60, "oriDirection": 1, "oriStrength": "medium", "speedDirection": -1, "speedStrength": "medium", "speed_start": 0.12, "speed_end": 0.1105364713124975, "ori_start": -60, "ori_end": -55.69598324941971, "motion_direction": "in"}, "stimResponseInterval": 0.9304078781095444, "stimulusDuration": 1.5, "trial_count": 42, "ts": "motion", "exp_stage": "adaptive_procedure", "decision_var": 0.009463528687502505, "response": "down", "rt": 0.3265617130091414, "FB": 1, "quest_estimate": 0.005068895497820372, "trial_time": 3.2898638379992917}
{"FBDuration": 0.5, "FBonset": 0, "ITI": 0.474441700567357, "displayFB": true, "onset": 193.00480701874324, "punishment_amount": 0, "responseWindow": 1.5, "reward_amount": 1, "stim": {"motionDirection": "out", "oriBase": 30, "oriDirection": -1, "oriStrength": "medium", "speedDirection": -1, "speedStrength": "medium", "speed_start": 0.12, "speed_end": 0.11141788756089517, "ori_start": 30, "ori_end": 25.695983249419708, "motion_direction": "out"}, "stimResponseInterval": 0.20525085779799435, "stimulusDuration": 1.5, "trial_count": 43, "ts": "motion", "exp_stage": "adaptive_procedure", "decision_var": 0.008582112439104825, "response": "down", "rt": 0.3579336179973325, "FB": 1, "quest_estimate": 0.004222054539882725, "trial_time": 2.6070924010127783}
{"FBDuration": 0.5, "FBonset": 0, "ITI": 0.8003877858732769, "displayFB": true, "onset": 197.1844995771086, "punishment_amount": 0, "responseWindow": 1.5, "reward_amount": 1, "stim": {"motionDirection": "in", "oriBase": 30, "oriDirection": 1, "oriStrength": "medium", "speedDirection": -1, "speedStrength": "medium", "speed_start": 0.12, "speed_end": 0.11228825747332886, "ori_start": 30, "ori_end": 34.30401675058029, "motion_direction": "in"}, "stimResponseInterval": 0.9625778535690093, "stimulusDuration": 1.5, "trial_count": 44, "ts": "motion", "exp_stage": "adaptive_procedure", "decision_var": 0.007711742526671131, "response": "down", "rt": 0.27133975899778306, "FB": 1, "quest_estimate": 0.0033865975799128104, "trial_time": 3.265971550004906}
{"FBDuration": 0.5, "FBonset": 0, "ITI": 0.5995480237387785, "displayFB": true, "onset": 202.44746521655088, "punishment_amount": 0, "responseWindow": 1.5, "reward_amount": 1, "stim": {"motionDirection": "in", "oriBase": 30, "oriDirection": 1, "oriStrength": "medium", "speedDirection": -1, "speedStrength": "medium", "speed_start": 0.12, "speed_end": 0.11314787645644608, "ori_start": 30, "ori_end": 34.30401675058029, "motion_direction": "in"}, "stimResponseInterval": 0.2787249783277662, "stimulusDuration": 1.5, "trial_count": 45, "ts": "motion", "exp_stage": "adaptive_procedure", "decision_var": 0.006852123543553905, "response": "down", "rt": 0.39884115899621975, "FB": 1, "quest_estimate": 0.0025624318741206756, "trial_time": 2.7153818199876696}
{"FBDuration": 0.5, "FBonset": 0, "ITI": 0.42664083455888924, "displayFB": true, "onset": 206.82573821861743, "punishment_amount": 0, "responseWindow": 1.5, "reward_amount": 1, "stim": {"motionDirection": "out", "oriBase": -60, "oriDirection": -1, "oriStrength": "medium", "speedDirection": -1, "speedStrength": "medium", "speed_start": 0.12, "speed_end": 0.11399684615356276, "ori_start": -60, "ori_end": -64.30401675058029, "motion_direction": "out"}, "stimResponseInterval": 0.47365073327577845, "stimulusDuration": 1.5, "trial_count": 46, "ts": "motion", "exp_stage": "adaptive_procedure", "decision_var": 0.006003153846437237, "response": "up", "rt": 0.29796215299575124, "FB": 0, "quest_estimate": 0.005451853895760694, "trial_time": 2.8016300340095768}
{"FBDuration": 0.5, "FBonset": 0, "ITI": 0.698571764363332, "displayFB": true, "onset": 211.2260297864521, "punishment_amount": 0, "responseWindow": 1.5, "reward_amount": 1, "stim": {"motionDirection": "out", "oriBase": 30, "oriDirection": -1, "oriStrength": "medium", "speedDirection": -1, "speedStrength": "medium", "speed_start": 0.12, "speed_end": 0.11104770185446919, "ori_start": 30, "ori_end": 25.695983249419708, "motion_direction": "out"}, "stimResponseInterval": 0.587737797657025, "stimulusDuration": 1.5, "trial_count": 47, "ts": "motion", "exp_stage": "adaptive_procedure", "decision_var": 0.008952298145530807, "response": "up", "rt": 0.28743619201122783, "FB": 0, "quest_estimate": 0.008413620036615978, "trial_time": 2.9095477639930323}
{"FBDuration": 0.5, "FBonset": 0, "ITI": 0.29546132663162616, "displayFB": true, "onset": 216.01233934847247, "punishment_amount": 0, "responseWindow": 1.5, "reward_amount": 1, "stim": {"motionDirection": "in", "oriBase": 30, "oriDirection": -1, "oriStrength": "medium", "speedDirection": 1, "speedStrength": "medium", "speed_start": 0.12, "speed_end": 0.13196004844061998, "ori_start": 30, "ori_end": 25.695983249419708, "motion_direction": "in"}, "stimResponseInterval": 0.3432981344831305, "stimulusDuration": 1.5, "trial_count": 48, "ts": "motion", "exp_stage": "adaptive_procedure", "decision_var": 0.011960048440619972, "response": "up", "rt": 0.29000755099696107, "FB": 1, "quest_estimate": 0.007562061837985919, "trial_time": 2.6621677609946346}
{"FBDuration": 0.5, "FBonset": 0, "ITI": 0.15465338198353173, "displayFB": true, "onset": 220.1510988095872, "punishment_amount": 0, "responseWindow": 1.5, "reward_amount": 1, "stim": {"motionDirection": "in", "oriBase": -60, "oriDirection": -1, "oriStrength": "medium", "speedDirection": 1, "speedStrength": "medium", "speed_start": 0.12, "speed_end": 0.1310892356407227, "ori_start": -60, "ori_end": -64.30401675058029, "motion_direction": "in"}, "stimResponseInterval": 0.9746065708454426, "stimulusDuration": 1.5, "trial_count": 49, "ts": "motion", "exp_stage": "adaptive_procedure", "decision_var": 0.011089235640722693, "response": "down", "rt": 0.3144683680002345, "FB": 0, "quest_estimate": 0.010552646481050094, "trial_time": 3.331794422992971}
{"FBDuration": 0.5, "FBonset": 0, "ITI": 0.7414649511204834, "displayFB": true, "onset": 224.7803587624162, "punishment_amount": 0, "responseWindow": 1.5, "reward_amount": 1, "stim": {"motionDirection": "in", "oriBase": 30, "oriDirection": 1, "oriStrength": "medium", "speedDirection": -1, "speedStrength": "medium", "speed_start": 0.12, "speed_end": 0.10588306041083806, "ori_start": 30, "ori_end": 34.30401675058029, "motion_direction": "in"}, "stimResponseInterval": 0.20715866850655162, "stimulusDuration": 1.5, "trial_count": 50, "ts": "motion", "exp_stage": "adaptive_procedure", "decision_var": 0.014116939589161936, "response": "down", "rt": 0.343547458993271, "FB": 1, "quest_estimate": 0.00969417549488557, "trial_time": 2.5823646440112498}
{"FBDuration": 0.5, "FBonset": 0, "ITI": 0.03342739563086827, "displayFB": true, "onset": 229.22898238204323, "punishment_amount": 0, "responseWindow": 1.5, "reward_amount": 1, "stim": {"motionDirection": "in", "oriBase": -60, "oriDirection": 1, "oriStrength": "medium", "speedDirection": 1, "speedStrength": "medium", "speed_start": 0.12, "speed_end": 0.1332409609239734, "ori_start": -60, "ori_end": -55.69598324941971, "motion_direction": "in"}, "stimResponseInterval": 0.586163952315981, "stimulusDuration": 1.5, "trial_count": 51, "ts": "motion", "exp_stage": "adaptive_procedure", "decision_var": 0.013240960923973394, "response": "up", "rt": 0.3036541239998769, "FB": 1, "quest_estimate": 0.008846670300189305, "trial_time": 2.9258845900039887}
{"FBDuration": 0.5, "FBonset": 0, "ITI": 0.4534379188499922, "displayFB": true, "onset": 233.34857372999008, "punishment_amount": 0, "responseWindow": 1.5, "reward_amount": 1, "stim": {"motionDirection": "in", "oriBase": 30, "oriDirection": -1, "oriStrength": "medium", "speedDirection": 1, "speedStrength": "medium", "speed_start": 0.12, "speed_end": 0.13237568606906733, "ori_start": 30, "ori_end": 25.695983249419708, "motion_direction": "in"}, "stimResponseInterval": 0.9818407037894445, "stimulusDuration": 1.5, "trial_count": 52, "ts": "motion", "exp_stage": "adaptive_procedure", "decision_var": 0.012375686069067339, "response": "up", "rt": 0.3346352590015158, "FB": 1, "quest_estimate": 0.008009905833060306, "trial_time": 3.350819646992022}
{"FBDuration": 0.5, "FBonset": 0, "ITI": 0.9660298702392678, "displayFB": true, "onset": 238.2838523526295, "punishment_amount": 0, "responseWindow": 1.5, "reward_amount": 1, "stim": {"motionDirection": "out", "oriBase": 30, "oriDirection": -1, "oriStrength": "medium", "speedDirection": 1, "speedStrength": "medium", "speed_start": 0.12, "speed_end": 0.13152082353922923, "ori_start": 30, "ori_end": 25.695983249419708, "motion_direction": "out"}, "stimResponseInterval": 0.3806191671610035, "stimulusDuration": 1.5, "trial_count": 53, "ts": "motion", "exp_stage": "adaptive_procedure", "decision_var": 0.011520823539229244, "response": "up", "rt": 0.32799539000552613, "FB": 1, "quest_estimate": 0.007183570279648666, "trial_time": 2.743002108996734}
{"FBDuration": 0.5, "FBonset": 0, "ITI": 0.46532671730430786, "displayFB": true, "onset": 243.1305013900298, "punishment_amount": 0, "responseWindow": 1.5, "reward_amount": 1, "stim": {"motionDirection": "out", "oriBase": -60, "oriDirection": 1, "oriStrength": "medium", "speedDirection": -1, "speedStrength": "medium", "speed_start": 0.12, "speed_end": 0.10932394043202834, "ori_start": -60, "ori_end": -55.69598324941971, "motion_direction": "out"}, "stimResponseInterval": 0.6403761292329007, "stimulusDuration": 1.5, "trial_count": 54, "ts": "motion", "exp_stage": "adaptive_procedure", "decision_var": 0.010676059567971657, "response": "down", "rt": 0.271073815994896, "FB": 1, "quest_estimate": 0.0063675556603342495, "trial_time": 2.952102859999286}
{"FBDuration": 0.5, "FBonset": 0, "ITI": 0.8598052658918107, "displayFB": true, "onset": 247.736204236567, "punishment_amount": 0, "responseWindow": 1.5, "reward_amount": 1, "stim": {"motionDirection": "in", "oriBase": -60, "oriDirection": -1, "oriStrength": "medium", "speedDirection": -1, "speedStrength": "medium", "speed_start": 0.12, "speed_end": 0.1101587282062536, "ori_start": -60, "ori_end": -64.30401675058029, "motion_direction": "in"}, "stimResponseInterval": 0.9956805241679649, "stimulusDuration": 1.5, "trial_count": 55, "ts": "motion", "exp_stage": "adaptive_procedure", "decision_var": 0.0098412717937464, "response": "down", "rt": 0.4896722240082454, "FB": 1, "quest_estimate": 0.0055616737271236005, "trial_time": 3.5229897090030136}
{"FBDuration": 0.5, "FBonset": 0, "ITI": 0.4732534797028378, "displayFB": true, "onset": 253.0916900266268, "punishment_amount": 0, "responseWindow": 1.5, "reward_amount": 1, "stim": {"motionDirection": "out", "oriBase": 30, "oriDirection": 1, "oriStrength": "medium", "speedDirection": -1, "speedStrength": "medium", "speed_start": 0.12, "speed_end": 0.11098374315088164, "ori_start": 30, "ori_end": 34.30401675058029, "motion_direction": "out"}, "stimResponseInterval": 0.43454140776727357, "stimulusDuration": 1.5, "trial_count": 56, "ts": "motion", "exp_stage": "adaptive_procedure", "decision_var": 0.009016256849118352, "response": "down", "rt": 0.3233609349990729, "FB": 1, "quest_estimate": 0.004765747273965289, "trial_time": 2.791592141991714}
{"FBDuration": 0.5, "FBonset": 0, "ITI": 0.6340287699246185, "displayFB": true, "onset": 257.4994849140969, "punishment_amount": 0, "responseWindow": 1.5, "reward_amount": 1, "stim": {"motionDirection": "in", "oriBase": 30, "oriDirection": 1, "oriStrength": "medium", "speedDirection": 1, "speedStrength": "medium", "speed_start": 0.12, "speed_end": 0.12820081773341127, "ori_start": 30, "ori_end": 34.30401675058029, "motion_direction": "in"}, "stimResponseInterval": 0.8038806130432676, "stimulusDuration": 1.5, "trial_count": 57, "ts": "motion", "exp_stage": "adaptive_procedure", "decision_var": 0.008200817733411275, "response": "up", "rt": 0.3119215909973718, "FB": 1, "quest_estimate": 0.003979609673284, "trial_time": 3.160588654005551}
{"FBDuration": 0.5, "FBonset": 0, "ITI": 0.22056624129224256, "displayFB": true, "onset": 262.43739429706477, "punishment_amount": 0, "responseWindow": 1.5, "reward_amount": 1, "stim": {"motionDirection": "out", "oriBase": 30, "oriDirection": 1, "oriStrength": "medium", "speedDirection": 1, "speedStrength": "medium", "speed_start": 0.12, "speed_end": 0.12739476356499685, "ori_start": 30, "ori_end": 34.30401675058029, "motion_direction": "out"}, "stimResponseInterval": 0.5228050681105407, "stimulusDuration": 1.5, "trial_count": 58, "ts": "motion", "exp_stage": "adaptive_procedure", "decision_var": 0.00739476356499684, "response": "up", "rt": 0.30413670200505294, "FB": 1, "quest_estimate": 0.0032031044253536464, "trial_time": 2.8696397989988327}
{"FBDuration": 0.5, "FBonset": 0, "ITI": 0.1655931313870369, "displayFB": true, "onset": 266.68076560646756, "punishment_amount": 0, "responseWindow": 1.5, "reward_amount": 1, "stim": {"motionDirection": "out", "oriBase": 30, "oriDirection": 1, "oriStrength": "medium", "speedDirection": -1, "speedStrength": "medium", "speed_start": 0.12, "speed_end": 0.1134020906092055, "ori_start": 30, "ori_end": 34.30401675058029, "motion_direction": "out"}, "stimResponseInterval": 0.6985175392902154, "stimulusDuration": 1.5, "trial_count": 59, "ts": "motion", "exp_stage": "adaptive_procedure", "decision_var": 0.0065979093907945, "response": "down", "rt": 0.28652926899667364, "FB": 1, "quest_estimate": 0.0024360847190015855, "trial_time": 3.0199481199961156}
{"FBDuration": 0.5, "FBonset": 0, "ITI": 0.7218594048779554, "displayFB": true, "onset": 271.0448762771448, "punishment_amount": 0, "responseWindow": 1.5, "reward_amount": 1, "stim": {"motionDirection": "in", "oriBase": 30, "oriDirection": 1, "oriStrength": "medium", "speedDirection": 1, "speedStrength": "medium", "speed_start": 0.12, "speed_end": 0.1258100760477721, "ori_start": 30, "ori_end": 34.30401675058029, "motion_direction": "in"}, "stimResponseInterval": 0.3280468911268044, "stimulusDuration": 1.5, "trial_count": 60, "ts": "motion", "exp_stage": "adaptive_procedure", "decision_var": 0.005810076047772131, "response": "up", "rt": 0.3754682739963755, "FB": 1, "quest_estimate": 0.0016784130022527016, "trial_time": 2.7419998230034253}
{"FBDuration": 0.5, "FBonset": 0, "ITI": 0.9831169144966365, "displayFB": true, "onset": 275.59478257314953, "punishment_amount": 0, "responseWindow": 1.5, "reward_amount": 1, "stim": {"motionDirection": "in", "oriBase": 30, "oriDirection": 1, "oriStrength": "medium", "speedDirection": 1, "speedStrength": "medium", "speed_start": 0.12, "speed_end": 0.12503109007161983, "ori_start": 30, "ori_end": 34.30401675058029, "motion_direction": "in"}, "stimResponseInterval": 0.873740895629028, "stimulusDuration": 1.5, "trial_count": 61, "ts": "motion", "exp_stage": "adaptive_procedure", "decision_var": 0.005031090071619851, "response": "down", "rt": 0.501331035993644, "FB": 0, "quest_estimate": 0.0043333470727750095, "trial_time": 3.4169377259968314}
{"FBDuration": 0.5, "FBonset": 0, "ITI": 0.6916470652353166, "displayFB": true, "onset": 280.9516403832752, "punishment_amount": 0, "responseWindow": 1.5, "reward_amount": 1, "stim": {"motionDirection": "in", "oriBase": -60, "oriDirection": 1, "oriStrength": "medium", "speedDirection": -1, "speedStrength": "medium", "speed_start": 0.12, "speed_end": 0.11226477318153474, "ori_start": -60, "ori_end": -55.69598324941971, "motion_direction": "in"}, "stimResponseInterval": 0.228052424224497, "stimulusDuration": 1.5, "trial_count": 62, "ts": "motion", "exp_stage": "adaptive_procedure", "decision_var": 0.007735226818465252, "response": "down", "rt": 0.3312266120046843, "FB": 1, "quest_estimate": 0.0035688008966792, "trial_time": 2.5955235269939294}
{"FBDuration": 0.5, "FBonset": 0, "ITI": 0.2353041312216516, "displayFB": true, "onset": 285.371339872735, "punishment_amount": 0, "responseWindow": 1.5, "reward_amount": 1, "stim": {"motionDirection": "in", "oriBase": -60, "oriDirection": 1, "oriStrength": "medium", "speedDirection": 1, "speedStrength": "medium", "speed_start": 0.12, "speed_end": 0.1269515545894229, "ori_start": -60, "ori_end": -55.69598324941971, "motion_direction": "in"}, "stimResponseInterval": 0.22108093592847733, "stimulusDuration": 1.5, "trial_count": 63, "ts": "motion", "exp_stage": "adaptive_procedure", "decision_var": 0.006951554589422905, "response": "up", "rt": 0.31965032299922314, "FB": 1, "quest_estimate": 0.0028134187904795688, "trial_time": 2.575753037002869}
{"FBDuration": 0.5, "FBonset": 0, "ITI": 0.3724490730103974, "displayFB": true, "onset": 289.3277249398851, "punishment_amount": 0, "responseWindow": 1.5, "reward_amount": 1, "stim": {"motionDirection": "in", "oriBase": 30, "oriDirection": -1, "oriStrength": "medium", "speedDirection": 1, "speedStrength": "medium", "speed_start": 0.12, "speed_end": 0.12617661432021393, "ori_start": 30, "ori_end": 25.695983249419708, "motion_direction": "in"}, "stimResponseInterval": 0.06385641956134736, "stimulusDuration": 1.5, "trial_count": 64, "ts": "motion", "exp_stage": "adaptive_procedure", "decision_var": 0.006176614320213943, "response": "down", "rt": 0.42884052501176484, "FB": 0, "quest_estimate": 0.005465919099847727, "trial_time": 2.5230234030022984}
