{"FBDuration": 0.5, "FBonset": 0, "ITI": 0.21266227886190858, "displayFB": true, "onset": 211.05409184036185, "punishment_amount": 0, "responseWindow": 1.5, "reward_amount": 1, "stim": {"motionDirection": "out", "oriBase": -60, "oriDirection": -1, "oriStrength": "medium", "speedDirection": -1, "speedStrength": "medium", "speed_start": 0.12, "speed_end": 0.01999999999999999, "ori_start": -60, "ori_end": -90, "motion_direction": "out"}, "stimResponseInterval": 0.9823025515666053, "stimulusDuration": 1.5, "trial_count": 48, "ts": "motion", "exp_stage": "adaptive_procedure", "decision_var": 0.1, "response": "down", "rt": 0.3222939260012936, "FB": 1, "trial_time": 3.3476372820005054}
{"FBDuration": 0.5, "FBonset": 0, "ITI": 0.7277012547575716, "displayFB": true, "onset": 51.2557889916843, "punishment_amount": 0, "responseWindow": 1.5, "reward_amount": 1, "stim": {"motionDirection": "in", "oriBase": -60, "oriDirection": -1, "oriStrength": "medium", "speedDirection": 1, "speedStrength": "medium", "speed_start": 0.12, "speed_end": 0.22, "ori_start": -60, "ori_end": -90, "motion_direction": "in"}, "stimResponseInterval": 0.44005800478363055, "stimulusDuration": 1.5, "trial_count": 12, "ts": "motion", "exp_stage": "adaptive_procedure", "decision_var": 0.1, "response": "up", "rt": 0.34202040400123224, "FB": 1, "trial_time": 2.8182580879947636}
{"FBDuration": 0.5, "FBonset": 0, "ITI": 0.6092848814410576, "displayFB": true, "onset": 55.9235482512255, "punishment_amount": 0, "responseWindow": 1.5, "reward_amount": 1, "stim": {"motionDirection": "in", "oriBase": -60, "oriDirection": 1, "oriStrength": "medium", "speedDirection": 1, "speedStrength": "medium", "speed_start": 0.12, "speed_end": 0.22, "ori_start": -60, "ori_end": -30, "motion_direction": "in"}, "stimResponseInterval": 0.6471560639516929, "stimulusDuration": 1.5, "trial_count": 13, "ts": "motion", "exp_stage": "adaptive_procedure", "decision_var": 0.1, "response": "up", "rt": 0.37259583399281837, "FB": 1, "trial_time": 3.0721800809988054}
{"FBDuration": 0.5, "FBonset": 0, "ITI": 0.9115367431097581, "displayFB": true, "onset": 241.72782236844785, "punishment_amount": 0, "responseWindow": 1.5, "reward_amount": 1, "stim": {"motionDirection": "in", "oriBase": -60, "oriDirection": -1, "oriStrength": "medium", "speedDirection": -1, "speedStrength": "medium", "speed_start": 0.12, "speed_end": 0.01999999999999999, "ori_start": -60, "ori_end": -90, "motion_direction": "in"}, "stimResponseInterval": 0.25909092756587015, "stimulusDuration": 1.5, "trial_count": 55, "ts": "motion", "exp_stage": "adaptive_procedure", "decision_var": 0.1, "response": "down", "rt": 0.28191049600718543, "FB": 1, "trial_time": 2.5970392519957386}
{"FBDuration": 0.5, "FBonset": 0, "ITI": 0.30879410794459927, "displayFB": true, "onset": 65.3635419508155, "punishment_amount": 0, "responseWindow": 1.5, "reward_amount": 1, "stim": {"motionDirection": "in", "oriBase": -60, "oriDirection": 1, "oriStrength": "medium", "speedDirection": -1, "speedStrength": "medium", "speed_start": 0.12, "speed_end": 0.01999999999999999, "ori_start": -60, "ori_end": -30, "motion_direction": "in"}, "stimResponseInterval": 0.10986105132277268, "stimulusDuration": 1.5, "trial_count": 15, "ts": "motion", "exp_stage": "adaptive_procedure", "decision_var": 0.1, "response": "down", "rt": 0.2689150419901125, "FB": 1, "trial_time": 2.4370806600054493}
{"FBDuration": 0.5, "FBonset": 0, "ITI": 0.8702754307833449, "displayFB": true, "onset": 46.264716429029676, "punishment_amount": 0, "responseWindow": 1.5, "reward_amount": 1, "stim": {"motionDirection": "out", "oriBase": -60, "oriDirection": 1, "oriStrength": "medium", "speedDirection": -1, "speedStrength": "medium", "speed_start": 0.12, "speed_end": 0.01999999999999999, "ori_start": -60, "ori_end": -30, "motion_direction": "out"}, "stimResponseInterval": 0.6207971318712757, "stimulusDuration": 1.5, "trial_count": 11, "ts": "motion", "exp_stage": "adaptive_procedure", "decision_var": 0.1, "response": "down", "rt": 0.24881582499074284, "FB": 1, "trial_time": 2.9234079419984482}
{"FBDuration": 0.5, "FBonset": 0, "ITI": 0.8068390322948424, "displayFB": true, "onset": 102.091865486604, "punishment_amount": 0, "responseWindow": 1.5, "reward_amount": 1, "stim": {"motionDirection": "out", "oriBase": 30, "oriDirection": 1, "oriStrength": "medium", "speedDirection": 1, "speedStrength": "medium", "speed_start": 0.12, "speed_end": 0.22, "ori_start": 30, "ori_end": 60, "motion_direction": "out"}, "stimResponseInterval": 0.34227411349165915, "stimulusDuration": 1.5, "trial_count": 23, "ts": "motion", "exp_stage": "adaptive_procedure", "decision_var": 0.1, "response": "up", "rt": 0.28430600301362574, "FB": 1, "trial_time": 2.6697311899915803}
{"FBDuration": 0.5, "FBonset": 0, "ITI": 0.31776238540852486, "displayFB": true, "onset": 233.41798100937504, "punishment_amount": 0, "responseWindow": 1.5, "reward_amount": 1, "stim": {"motionDirection": "out", "oriBase": 30, "oriDirection": 1, "oriStrength": "medium", "speedDirection": -1, "speedStrength": "medium", "speed_start": 0.12, "speed_end": 0.01999999999999999, "ori_start": 30, "ori_end": 60, "motion_direction": "out"}, "stimResponseInterval": 0.8722412161379642, "stimulusDuration": 1.5, "trial_count": 53, "ts": "motion", "exp_stage": "adaptive_procedure", "decision_var": 0.1, "response": "down", "rt": 0.2681632399908267, "FB": 1, "trial_time": 3.1976968079979997}
{"FBDuration": 0.5, "FBonset": 0, "ITI": 0.4137926585496351, "displayFB": true, "onset": 265.6909981473806, "punishment_amount": 0, "responseWindow": 1.5, "reward_amount": 1, "stim": {"motionDirection": "out", "oriBase": -60, "oriDirection": 1, "oriStrength": "medium", "speedDirection": -1, "speedStrength": "medium", "speed_start": 0.12, "speed_end": 0.01999999999999999, "ori_start": -60, "ori_end": -30, "motion_direction": "out"}, "stimResponseInterval": 0.6560362766534675, "stimulusDuration": 1.5, "trial_count": 60, "ts": "motion", "exp_stage": "adaptive_procedure", "decision_var": 0.1, "response": "down", "rt": 0.2429925379983615, "FB": 1, "trial_time": 2.9570687289960915}
{"FBDuration": 0.5, "FBonset": 0, "ITI": 0.15377281081645788, "displayFB": true, "onset": 133.29230430150042, "punishment_amount": 0, "responseWindow": 1.5, "reward_amount": 1, "stim": {"motionDirection": "in", "oriBase": 30, "oriDirection": 1, "oriStrength": "medium", "speedDirection": 1, "speedStrength": "medium", "speed_start": 0.12, "speed_end": 0.22, "ori_start": 30, "ori_end": 60, "motion_direction": "in"}, "stimResponseInterval": 0.5374342350902115, "stimulusDuration": 1.5, "trial_count": 30, "ts": "motion", "exp_stage": "adaptive_procedure", "decision_var": 0.1, "response": "up", "rt": 0.2786990489985328, "FB": 1, "trial_time": 2.848447374999523}
{"FBDuration": 0.5, "FBonset": 0, "ITI": 0.07273780966544985, "displayFB": true, "onset": 190.261960829006, "punishment_amount": 0, "responseWindow": 1.5, "reward_amount": 1, "stim": {"motionDirection": "out", "oriBase": -60, "oriDirection": -1, "oriStrength": "medium", "speedDirection": 1, "speedStrength": "medium", "speed_start": 0.12, "speed_end": 0.22, "ori_start": -60, "ori_end": -90, "motion_direction": "out"}, "stimResponseInterval": 0.04323380442345548, "stimulusDuration": 1.5, "trial_count": 43, "ts": "motion", "exp_stage": "adaptive_procedure", "decision_var": 0.1, "response": "up", "rt": 0.38913236699590925, "FB": 1, "trial_time": 2.4902320870023686}
{"FBDuration": 0.5, "FBonset": 0, "ITI": 0.6138498245130504, "displayFB": true, "onset": 137.4835113474071, "punishment_amount": 0, "responseWindow": 1.5, "reward_amount": 1, "stim": {"motionDirection": "out", "oriBase": -60, "oriDirection": -1, "oriStrength": "medium", "speedDirection": 1, "speedStrength": "medium", "speed_start": 0.12, "speed_end": 0.22, "ori_start": -60, "ori_end": -90, "motion_direction": "out"}, "stimResponseInterval": 0.6136686813472347, "stimulusDuration": 1.5, "trial_count": 31, "ts": "motion", "exp_stage": "adaptive_procedure", "decision_var": 0.1, "response": "up", "rt": 0.32761271500203293, "FB": 1, "trial_time": 2.9980070769961458}
{"FBDuration": 0.5, "FBonset": 0, "ITI": 0.8710439472888596, "displayFB": true, "onset": 246.39845003912347, "punishment_amount": 0, "responseWindow": 1.5, "reward_amount": 1, "stim": {"motionDirection": "out", "oriBase": 30, "oriDirection": -1, "oriStrength": "medium", "speedDirection": 1, "speedStrength": "medium", "speed_start": 0.12, "speed_end": 0.22, "ori_start": 30, "ori_end": 0, "motion_direction": "out"}, "stimResponseInterval": 0.8766066974873779, "stimulusDuration": 1.5, "trial_count": 56, "ts": "motion", "exp_stage": "adaptive_procedure", "decision_var": 0.1, "response": "up", "rt": 0.23510893099592067, "FB": 1, "trial_time": 3.15237278699351}
{"FBDuration": 0.5, "FBonset": 0, "ITI": 0.28483336731661835, "displayFB": true, "onset": 193.8779324430949, "punishment_amount": 0, "responseWindow": 1.5, "reward_amount": 1, "stim": {"motionDirection": "out", "oriBase": -60, "oriDirection": 1, "oriStrength": "medium", "speedDirection": -1, "speedStrength": "medium", "speed_start": 0.12, "speed_end": 0.01999999999999999, "ori_start": -60, "ori_end": -30, "motion_direction": "out"}, "stimResponseInterval": 0.25099328079951866, "stimulusDuration": 1.5, "trial_count": 44, "ts": "motion", "exp_stage": "adaptive_procedure", "decision_var": 0.1, "response": "down", "rt": 0.33004198101116344, "FB": 1, "trial_time": 2.620286068995483}
{"FBDuration": 0.5, "FBonset": 0, "ITI": 0.30871587077997564, "displayFB": true, "onset": 146.62394255459859, "punishment_amount": 0, "responseWindow": 1.5, "reward_amount": 1, "stim": {"motionDirection": "in", "oriBase": 30, "oriDirection": 1, "oriStrength": "medium", "speedDirection": -1, "speedStrength": "medium", "speed_start": 0.12, "speed_end": 0.01999999999999999, "ori_start": 30, "ori_end": 60, "motion_direction": "in"}, "stimResponseInterval": 0.8116083671575447, "stimulusDuration": 1.5, "trial_count": 33, "ts": "motion", "exp_stage": "adaptive_procedure", "decision_var": 0.1, "response": "down", "rt": 0.22667226300109178, "FB": 1, "trial_time": 3.095719831995666}
{"FBDuration": 0.5, "FBonset": 0, "ITI": 0.8292084172616245, "displayFB": true, "onset": 224.90178333737109, "punishment_amount": 0, "responseWindow": 1.5, "reward_amount": 1, "stim": {"motionDirection": "out", "oriBase": 30, "oriDirection": 1, "oriStrength": "medium", "speedDirection": 1, "speedStrength": "medium", "speed_start": 0.12, "speed_end": 0.22, "ori_start": 30, "ori_end": 60, "motion_direction": "out"}, "stimResponseInterval": 0.4400173304202952, "stimulusDuration": 1.5, "trial_count": 51, "ts": "motion", "exp_stage": "adaptive_procedure", "decision_var": 0.1, "response": "up", "rt": 0.3122629059944302, "FB": 1, "trial_time": 2.8007636980037205}
{"FBDuration": 0.5, "FBonset": 0, "ITI": 0.33296390331521974, "displayFB": true, "onset": 19.30368597145263, "punishment_amount": 0, "responseWindow": 1.5, "reward_amount": 1, "stim": {"motionDirection": "in", "oriBase": -60, "oriDirection": 1, "oriStrength": "medium", "speedDirection": -1, "speedStrength": "medium", "speed_start": 0.12, "speed_end": 0.01999999999999999, "ori_start": -60, "ori_end": -30, "motion_direction": "in"}, "stimResponseInterval": 0.881348012449561, "stimulusDuration": 1.5, "trial_count": 5, "ts": "motion", "exp_stage": "adaptive_procedure", "decision_var": 0.1, "response": "down", "rt": 0.21888464500079863, "FB": 1, "trial_time": 3.146060391998617}
{"FBDuration": 0.5, "FBonset": 0, "ITI": 0.845296611652615, "displayFB": true, "onset": 168.42432274566755, "punishment_amount": 0, "responseWindow": 1.5, "reward_amount": 1, "stim": {"motionDirection": "in", "oriBase": -60, "oriDirection": 1, "oriStrength": "medium", "speedDirection": -1, "speedStrength": "medium", "speed_start": 0.12, "speed_end": 0.01999999999999999, "ori_start": -60, "ori_end": -30, "motion_direction": "in"}, "stimResponseInterval": 0.37704632286158957, "stimulusDuration": 1.5, "trial_count": 38, "ts": "motion", "exp_stage": "adaptive_procedure", "decision_var": 0.1, "response": "down", "rt": 0.29358352300187107, "FB": 1, "trial_time": 2.7240068359969882}
{"FBDuration": 0.5, "FBonset": 0, "ITI": 0.16700088553123726, "displayFB": true, "onset": 11.380106881591878, "punishment_amount": 0, "responseWindow": 1.5, "reward_amount": 1, "stim": {"motionDirection": "in", "oriBase": -60, "oriDirection": -1, "oriStrength": "medium", "speedDirection": -1, "speedStrength": "medium", "speed_start": 0.12, "speed_end": 0.01999999999999999, "ori_start": -60, "ori_end": -90, "motion_direction": "in"}, "stimResponseInterval": 0.055295835360799406, "stimulusDuration": 1.5, "trial_count": 3, "ts": "motion", "exp_stage": "adaptive_procedure", "decision_var": 0.1, "response": "down", "rt": 0.2911016069992911, "FB": 1, "trial_time": 2.4025674360018456}
{"FBDuration": 0.5, "FBonset": 0, "ITI": 0.8736531262429716, "displayFB": true, "onset": 6.641025919330195, "punishment_amount": 0, "responseWindow": 1.5, "reward_amount": 1, "stim": {"motionDirection": "in", "oriBase": -60, "oriDirection": -1, "oriStrength": "medium", "speedDirection": -1, "speedStrength": "medium", "speed_start": 0.12, "speed_end": 0.01999999999999999, "ori_start": -60, "ori_end": -90, "motion_direction": "in"}, "stimResponseInterval": 0.365427836018711, "stimulusDuration": 1.5, "trial_count": 2, "ts": "motion", "exp_stage": "adaptive_procedure", "decision_var": 0.1, "response": "down", "rt": 0.25902964400302153, "FB": 1, "trial_time": 2.6518939259985927}
{"FBDuration": 0.5, "FBonset": 0, "ITI": 0.5237235847676613, "displayFB": true, "onset": 2, "punishment_amount": 0, "responseWindow": 1.5, "reward_amount": 1, "stim": {"motionDirection": "out", "oriBase": -60, "oriDirection": 1, "oriStrength": "medium", "speedDirection": 1, "speedStrength": "medium", "speed_start": 0.12, "speed_end": 0.18, "ori_start": -60, "ori_end": -30, "motion_direction": "out"}, "stimResponseInterval": 0.6173023345625335, "stimulusDuration": 1.5, "trial_count": 1, "ts": "motion", "exp_stage": "adaptive_procedure", "decision_var": 0.06, "response": "up", "rt": 0.2580792630033102, "FB": 1, "quest_estimate": 0.05405249303064265, "trial_time": 2.9049179239955265}
{"FBDuration": 0.5, "FBonset": 0, "ITI": 0.8736531262429716, "displayFB": true, "onset": 6.641025919330195, "punishment_amount": 0, "responseWindow": 1.5, "reward_amount": 1, "stim": {"motionDirection": "in", "oriBase": -60, "oriDirection": -1, "oriStrength": "medium", "speedDirection": -1, "speedStrength": "medium", "speed_start": 0.12, "speed_end": 0.05203764160274668, "ori_start": -60, "ori_end": -90, "motion_direction": "in"}, "stimResponseInterval": 0.365427836018711, "stimulusDuration": 1.5, "trial_count": 2, "ts": "motion", "exp_stage": "adaptive_procedure", "decision_var": 0.06796235839725331, "response": "down", "rt": 0.3864343829918653, "FB": 1, "quest_estimate": 0.04824131887873747, "trial_time": 2.792602033005096}
{"FBDuration": 0.5, "FBonset": 0, "ITI": 0.16700088553123726, "displayFB": true, "onset": 11.380106881591878, "punishment_amount": 0, "responseWindow": 1.5, "reward_amount": 1, "stim": {"motionDirection": "in", "oriBase": -60, "oriDirection": -1, "oriStrength": "medium", "speedDirection": -1, "speedStrength": "medium", "speed_start": 0.12, "speed_end": 0.06006316550538868, "ori_start": -60, "ori_end": -90, "motion_direction": "in"}, "stimResponseInterval": 0.055295835360799406, "stimulusDuration": 1.5, "trial_count": 3, "ts": "motion", "exp_stage": "adaptive_procedure", "decision_var": 0.05993683449461132, "response": "down", "rt": 0.36984914900676813, "FB": 1, "quest_estimate": 0.042536406297425625, "trial_time": 2.450786296001752}
{"FBDuration": 0.5, "FBonset": 0, "ITI": 0.6650178205300712, "displayFB": true, "onset": 15.102403602483914, "punishment_amount": 0, "responseWindow": 1.5, "reward_amount": 1, "stim": {"motionDirection": "out", "oriBase": 30, "oriDirection": 1, "oriStrength": "medium", "speedDirection": 1, "speedStrength": "medium", "speed_start": 0.12, "speed_end": 0.17205173705310048, "ori_start": 30, "ori_end": 60, "motion_direction": "out"}, "stimResponseInterval": 0.036264548438647015, "stimulusDuration": 1.5, "trial_count": 4, "ts": "motion", "exp_stage": "adaptive_procedure", "decision_var": 0.052051737053100476, "response": "up", "rt": 0.3099027950083837, "FB": 1, "quest_estimate": 0.03699576720046285, "trial_time": 2.392453546010074}
{"FBDuration": 0.5, "FBonset": 0, "ITI": 0.33296390331521974, "displayFB": true, "onset": 19.30368597145263, "punishment_amount": 0, "responseWindow": 1.5, "reward_amount": 1, "stim": {"motionDirection": "in", "oriBase": -60, "oriDirection": 1, "oriStrength": "medium", "speedDirection": -1, "speedStrength": "medium", "speed_start": 0.12, "speed_end": 0.0755497216461298, "ori_start": -60, "ori_end": -30, "motion_direction": "in"}, "stimResponseInterval": 0.881348012449561, "stimulusDuration": 1.5, "trial_count": 5, "ts": "motion", "exp_stage": "adaptive_procedure", "decision_var": 0.04445027835387019, "response": "down", "rt": 0.3046222499979194, "FB": 1, "quest_estimate": 0.031669184532726005, "trial_time": 3.249389010001323}
{"FBDuration": 0.5, "FBonset": 0, "ITI": 0.7348809403711318, "displayFB": true, "onset": 24.017997887217412, "punishment_amount": 0, "responseWindow": 1.5, "reward_amount": 1, "stim": {"motionDirection": "in", "oriBase": 30, "oriDirection": 1, "oriStrength": "medium", "speedDirection": -1, "speedStrength": "medium", "speed_start": 0.12, "speed_end": 0.0827543216990982, "ori_start": 30, "ori_end": 60, "motion_direction": "in"}, "stimResponseInterval": 0.01059627177391631, "stimulusDuration": 1.5, "trial_count": 6, "ts": "motion", "exp_stage": "adaptive_procedure", "decision_var": 0.037245678300901794, "response": "down", "rt": 0.5193317660014145, "FB": 1, "quest_estimate": 0.026597707351469685, "trial_time": 2.5672027739929035}
{"FBDuration": 0.5, "FBonset": 0, "ITI": 0.5586317205732403, "displayFB": true, "onset": 28.26347509936246, "punishment_amount": 0, "responseWindow": 1.5, "reward_amount": 1, "stim": {"motionDirection": "in", "oriBase": 30, "oriDirection": 1, "oriStrength": "medium", "speedDirection": 1, "speedStrength": "medium", "speed_start": 0.12, "speed_end": 0.15051868805975743, "ori_start": 30, "ori_end": 60, "motion_direction": "in"}, "stimResponseInterval": 0.34853836284323747, "stimulusDuration": 1.5, "trial_count": 7, "ts": "motion", "exp_stage": "adaptive_procedure", "decision_var": 0.030518688059757423, "response": "up", "rt": 0.29627897900354583, "FB": 1, "quest_estimate": 0.021809159012736452, "trial_time": 2.6710209000011673}
{"FBDuration": 0.5, "FBonset": 0, "ITI": 0.23467209681405743, "displayFB": true, "onset": 32.67064518277894, "punishment_amount": 0, "responseWindow": 1.5, "reward_amount": 1, "stim": {"motionDirection": "out", "oriBase": 30, "oriDirection": -1, "oriStrength": "medium", "speedDirection": -1, "speedStrength": "medium", "speed_start": 0.12, "speed_end": 0.09568719798757369, "ori_start": 30, "ori_end": 0, "motion_direction": "out"}, "stimResponseInterval": 0.8902636167651348, "stimulusDuration": 1.5, "trial_count": 8, "ts": "motion", "exp_stage": "adaptive_procedure", "decision_var": 0.024312802012426298, "response": "down", "rt": 0.280169075995218, "FB": 1, "quest_estimate": 0.01732042674616959, "trial_time": 3.201644150991342}
{"FBDuration": 0.5, "FBonset": 0, "ITI": 0.47549263936250485, "displayFB": true, "onset": 37.29558089635813, "punishment_amount": 0, "responseWindow": 1.5, "reward_amount": 1, "stim": {"motionDirection": "out", "oriBase": 30, "oriDirection": -1, "oriStrength": "medium", "speedDirection": -1, "speedStrength": "medium", "speed_start": 0.12, "speed_end": 0.10135805295028566, "ori_start": 30, "ori_end": 0, "motion_direction": "out"}, "stimResponseInterval": 0.30840573247947756, "stimulusDuration": 1.5, "trial_count": 9, "ts": "motion", "exp_stage": "adaptive_procedure", "decision_var": 0.018641947049714336, "response": NaN, "rt": NaN, "FB": NaN, "trial_time": 3.8379666229884606}
{"FBDuration": 0.5, "FBonset": 0, "ITI": 0.44859467982994417, "displayFB": true, "onset": 41.57947926820012, "punishment_amount": 0, "responseWindow": 1.5, "reward_amount": 1, "stim": {"motionDirection": "in", "oriBase": 30, "oriDirection": -1, "oriStrength": "medium", "speedDirection": 1, "speedStrength": "medium", "speed_start": 0.12, "speed_end": 0.15789297771860883, "ori_start": 30, "ori_end": 0, "motion_direction": "in"}, "stimResponseInterval": 0.7366424809996166, "stimulusDuration": 1.5, "trial_count": 10, "ts": "motion", "exp_stage": "adaptive_procedure", "decision_var": 0.03789297771860885, "response": "up", "rt": 0.2977702790085459, "FB": 1, "quest_estimate": 0.027357384184987288, "trial_time": 3.0842149749951204}
{"FBDuration": 0.5, "FBonset": 0, "ITI": 0.8702754307833449, "displayFB": true, "onset": 46.264716429029676, "punishment_amount": 0, "responseWindow": 1.5, "reward_amount": 1, "stim": {"motionDirection": "out", "oriBase": -60, "oriDirection": 1, "oriStrength": "medium", "speedDirection": -1, "speedStrength": "medium", "speed_start": 0.12, "speed_end": 0.08826616910340032, "ori_start": -60, "ori_end": -30, "motion_direction": "out"}, "stimResponseInterval": 0.6207971318712757, "stimulusDuration": 1.5, "trial_count": 11, "ts": "motion", "exp_stage": "adaptive_procedure", "decision_var": 0.031733830896599674, "response": "down", "rt": 0.28496344400628004, "FB": 1, "quest_estimate": 0.022811011656642698, "trial_time": 2.968796052999096}
{"FBDuration": 0.5, "FBonset": 0, "ITI": 0.7277012547575716, "displayFB": true, "onset": 51.2557889916843, "punishment_amount": 0, "responseWindow": 1.5, "reward_amount": 1, "stim": {"motionDirection": "in", "oriBase": -60, "oriDirection": -1, "oriStrength": "medium", "speedDirection": 1, "speedStrength": "medium", "speed_start": 0.12, "speed_end": 0.14600529553488362, "ori_start": -60, "ori_end": -90, "motion_direction": "in"}, "stimResponseInterval": 0.44005800478363055, "stimulusDuration": 1.5, "trial_count": 12, "ts": "motion", "exp_stage": "adaptive_procedure", "decision_var": 0.026005295534883628, "response": "up", "rt": 0.30516172999341507, "FB": 1, "quest_estimate": 0.018531273749801812, "trial_time": 2.791153107988066}
{"FBDuration": 0.5, "FBonset": 0, "ITI": 0.6092848814410576, "displayFB": true, "onset": 55.9235482512255, "punishment_amount": 0, "responseWindow": 1.5, "reward_amount": 1, "stim": {"motionDirection": "in", "oriBase": -60, "oriDirection": 1, "oriStrength": "medium", "speedDirection": 1, "speedStrength": "medium", "speed_start": 0.12, "speed_end": 0.14071694029037388, "ori_start": -60, "ori_end": -30, "motion_direction": "in"}, "stimResponseInterval": 0.6471560639516929, "stimulusDuration": 1.5, "trial_count": 13, "ts": "motion", "exp_stage": "adaptive_procedure", "decision_var": 0.02071694029037388, "response": "up", "rt": 0.2957901300105732, "FB": 1, "quest_estimate": 0.014523890310267261, "trial_time": 2.9726386349939276}
{"FBDuration": 0.5, "FBonset": 0, "ITI": 0.4858416101300418, "displayFB": true, "onset": 60.67998919661825, "punishment_amount": 0, "responseWindow": 1.5, "reward_amount": 1, "stim": {"motionDirection": "in", "oriBase": -60, "oriDirection": -1, "oriStrength": "medium", "speedDirection": 1, "speedStrength": "medium", "speed_start": 0.12, "speed_end": 0.13586262007091054, "ori_start": -60, "ori_end": -90, "motion_direction": "in"}, "stimResponseInterval": 0.6977111440672146, "stimulusDuration": 1.5, "trial_count": 14, "ts": "motion", "exp_stage": "adaptive_procedure", "decision_var": 0.01586262007091055, "response": "up", "rt": 0.2587174419895746, "FB": 1, "quest_estimate": 0.010788048604029092, "trial_time": 3.0172156379994703}
{"FBDuration": 0.5, "FBonset": 0, "ITI": 0.30879410794459927, "displayFB": true, "onset": 65.3635419508155, "punishment_amount": 0, "responseWindow": 1.5, "reward_amount": 1, "stim": {"motionDirection": "in", "oriBase": -60, "oriDirection": 1, "oriStrength": "medium", "speedDirection": -1, "speedStrength": "medium", "speed_start": 0.12, "speed_end": 0.10857483265750664, "ori_start": -60, "ori_end": -30, "motion_direction": "in"}, "stimResponseInterval": 0.10986105132277268, "stimulusDuration": 1.5, "trial_count": 15, "ts": "motion", "exp_stage": "adaptive_procedure", "decision_var": 0.01142516734249336, "response": "up", "rt": 0.5810099910013378, "FB": 0, "quest_estimate": 0.022991127942490773, "trial_time": 2.7164319639996393}
{"FBDuration": 0.5, "FBonset": 0, "ITI": 0.28128928358853944, "displayFB": true, "onset": 69.28219711008288, "punishment_amount": 0, "responseWindow": 1.5, "reward_amount": 1, "stim": {"motionDirection": "in", "oriBase": -60, "oriDirection": -1, "oriStrength": "medium", "speedDirection": -1, "speedStrength": "medium", "speed_start": 0.12, "speed_end": 0.09348689700513572, "ori_start": -60, "ori_end": -90, "motion_direction": "in"}, "stimResponseInterval": 0.48229428644808936, "stimulusDuration": 1.5, "trial_count": 16, "ts": "motion", "exp_stage": "adaptive_procedure", "decision_var": 0.02651310299486427, "response": "down", "rt": 0.2978578570036916, "FB": 1, "quest_estimate": 0.018930777026277393, "trial_time": 2.8130654059932567}
{"FBDuration": 0.5, "FBonset": 0, "ITI": 0.8042759377186286, "displayFB": true, "onset": 73.5457806801195, "punishment_amount": 0, "responseWindow": 1.5, "reward_amount": 1, "stim": {"motionDirection": "out", "oriBase": 30, "oriDirection": -1, "oriStrength": "medium", "speedDirection": 1, "speedStrength": "medium", "speed_start": 0.12, "speed_end": 0.1416050943765216, "ori_start": 30, "ori_end": 0, "motion_direction": "out"}, "stimResponseInterval": 0.566583902744942, "stimulusDuration": 1.5, "trial_count": 17, "ts": "motion", "exp_stage": "adaptive_procedure", "decision_var": 0.02160509437652161, "response": "up", "rt": 0.2876837749936385, "FB": 1, "quest_estimate": 0.015116104143373651, "trial_time": 2.9008300510031404}
{"FBDuration": 0.5, "FBonset": 0, "ITI": 0.6488915572058795, "displayFB": true, "onset": 78.41664052058307, "punishment_amount": 0, "responseWindow": 1.5, "reward_amount": 1, "stim": {"motionDirection": "out", "oriBase": -60, "oriDirection": 1, "oriStrength": "medium", "speedDirection": 1, "speedStrength": "medium", "speed_start": 0.12, "speed_end": 0.1370640993833777, "ori_start": -60, "ori_end": -30, "motion_direction": "out"}, "stimResponseInterval": 0.6536153474631101, "stimulusDuration": 1.5, "trial_count": 18, "ts": "motion", "exp_stage": "adaptive_procedure", "decision_var": 0.017064099383377704, "response": "up", "rt": 0.27536743199743796, "FB": 1, "quest_estimate": 0.011545842735374255, "trial_time": 2.9771116339979926}
{"FBDuration": 0.5, "FBonset": 0, "ITI": 0.6985068233058398, "displayFB": true, "onset": 83.21914742525206, "punishment_amount": 0, "responseWindow": 1.5, "reward_amount": 1, "stim": {"motionDirection": "in", "oriBase": 30, "oriDirection": -1, "oriStrength": "medium", "speedDirection": 1, "speedStrength": "medium", "speed_start": 0.12, "speed_end": 0.1328766225535656, "ori_start": 30, "ori_end": 0, "motion_direction": "in"}, "stimResponseInterval": 0.2863462300977424, "stimulusDuration": 1.5, "trial_count": 19, "ts": "motion", "exp_stage": "adaptive_procedure", "decision_var": 0.012876622553565607, "response": "up", "rt": 0.340535181996529, "FB": 1, "quest_estimate": 0.008214606503443925, "trial_time": 2.6684661350009264}
{"FBDuration": 0.5, "FBonset": 0, "ITI": 0.8790889722942787, "displayFB": true, "onset": 87.70400047865564, "punishment_amount": 0, "responseWindow": 1.5, "reward_amount": 1, "stim": {"motionDirection": "in", "oriBase": -60, "oriDirection": -1, "oriStrength": "medium", "speedDirection": 1, "speedStrength": "medium", "speed_start": 0.12, "speed_end": 0.12902390088916255, "ori_start": -60, "ori_end": -90, "motion_direction": "in"}, "stimResponseInterval": 0.43693917015158135, "stimulusDuration": 1.5, "trial_count": 20, "ts": "motion", "exp_stage": "adaptive_procedure", "decision_var": 0.009023900889162564, "response": "up", "rt": 0.31372805799765047, "FB": 1, "quest_estimate": 0.00511366152560052, "trial_time": 2.8071191329945577}
{"FBDuration": 0.5, "FBonset": 0, "ITI": 0.43166743482621783, "displayFB": true, "onset": 92.5200286211015, "punishment_amount": 0, "responseWindow": 1.5, "reward_amount": 1, "stim": {"motionDirection": "in", "oriBase": 30, "oriDirection": -1, "oriStrength": "medium", "speedDirection": -1, "speedStrength": "medium", "speed_start": 0.12, "speed_end": 0.1145151198202218, "ori_start": 30, "ori_end": 0, "motion_direction": "in"}, "stimResponseInterval": 0.95123053217897, "stimulusDuration": 1.5, "trial_count": 21, "ts": "motion", "exp_stage": "adaptive_procedure", "decision_var": 0.00548488017977819, "response": "up", "rt": 0.2534093350113835, "FB": 0, "quest_estimate": 0.015198542704797258, "trial_time": 3.2652120220009238}
{"FBDuration": 0.5, "FBonset": 0, "ITI": 0.41203032479315804, "displayFB": true, "onset": 97.4029265881067, "punishment_amount": 0, "responseWindow": 1.5, "reward_amount": 1, "stim": {"motionDirection": "out", "oriBase": -60, "oriDirection": -1, "oriStrength": "medium", "speedDirection": -1, "speedStrength": "medium", "speed_start": 0.12, "speed_end": 0.10246439100848836, "ori_start": -60, "ori_end": -90, "motion_direction": "out"}, "stimResponseInterval": 0.7769085737041346, "stimulusDuration": 1.5, "trial_count": 22, "ts": "motion", "exp_stage": "adaptive_procedure", "decision_var": 0.017535608991511624, "response": "down", "rt": 0.26916688100027386, "FB": 1, "quest_estimate": 0.011799839161664098, "trial_time": 3.0918216759891948}
{"FBDuration": 0.5, "FBonset": 0, "ITI": 0.8068390322948424, "displayFB": true, "onset": 102.091865486604, "punishment_amount": 0, "responseWindow": 1.5, "reward_amount": 1, "stim": {"motionDirection": "out", "oriBase": 30, "oriDirection": 1, "oriStrength": "medium", "speedDirection": 1, "speedStrength": "medium", "speed_start": 0.12, "speed_end": 0.1336012791297993, "ori_start": 30, "ori_end": 60, "motion_direction": "out"}, "stimResponseInterval": 0.34227411349165915, "stimulusDuration": 1.5, "trial_count": 23, "ts": "motion", "exp_stage": "adaptive_procedure", "decision_var": 0.013601279129799311, "response": "up", "rt": 0.2742720499954885, "FB": 1, "quest_estimate": 0.008617650368274409, "trial_time": 2.676654362003319}
{"FBDuration": 0.5, "FBonset": 0, "ITI": 0.5012973695830725, "displayFB": true, "onset": 106.7409786323905, "punishment_amount": 0, "responseWindow": 1.5, "reward_amount": 1, "stim": {"motionDirection": "out", "oriBase": -60, "oriDirection": 1, "oriStrength": "medium", "speedDirection": 1, "speedStrength": "medium", "speed_start": 0.12, "speed_end": 0.12995592929480485, "ori_start": -60, "ori_end": -30, "motion_direction": "out"}, "stimResponseInterval": 0.3389400725789088, "stimulusDuration": 1.5, "trial_count": 24, "ts": "motion", "exp_stage": "adaptive_procedure", "decision_var": 0.009955929294804856, "response": "down", "rt": 0.5090052300074603, "FB": 0, "quest_estimate": 0.019116982225983757, "trial_time": 2.884151035992545}
{"FBDuration": 0.5, "FBonset": 0, "ITI": 0.6967873964072375, "displayFB": true, "onset": 111.08121607455247, "punishment_amount": 0, "responseWindow": 1.5, "reward_amount": 1, "stim": {"motionDirection": "in", "oriBase": -60, "oriDirection": 1, "oriStrength": "medium", "speedDirection": 1, "speedStrength": "medium", "speed_start": 0.12, "speed_end": 0.14239932477139047, "ori_start": -60, "ori_end": -30, "motion_direction": "in"}, "stimResponseInterval": 0.7002266775931334, "stimulusDuration": 1.5, "trial_count": 25, "ts": "motion", "exp_stage": "adaptive_procedure", "decision_var": 0.022399324771390484, "response": "up", "rt": 0.2736297920055222, "FB": 1, "quest_estimate": 0.015668919524474884, "trial_time": 3.029990769995493}
{"FBDuration": 0.5, "FBonset": 0, "ITI": 0.12505669997233781, "displayFB": true, "onset": 115.97823014855284, "punishment_amount": 0, "responseWindow": 1.5, "reward_amount": 1, "stim": {"motionDirection": "in", "oriBase": 30, "oriDirection": -1, "oriStrength": "medium", "speedDirection": 1, "speedStrength": "medium", "speed_start": 0.12, "speed_end": 0.13842278783431197, "ori_start": 30, "ori_end": 0, "motion_direction": "in"}, "stimResponseInterval": 0.5809499152282807, "stimulusDuration": 1.5, "trial_count": 26, "ts": "motion", "exp_stage": "adaptive_procedure", "decision_var": 0.018422787834311977, "response": "up", "rt": 0.2768761560000712, "FB": 1, "quest_estimate": 0.012420967058504442, "trial_time": 2.8935956280038226}
{"FBDuration": 0.5, "FBonset": 0, "ITI": 0.3502296468128321, "displayFB": true, "onset": 120.18423676375346, "punishment_amount": 0, "responseWindow": 1.5, "reward_amount": 1, "stim": {"motionDirection": "in", "oriBase": -60, "oriDirection": -1, "oriStrength": "medium", "speedDirection": 1, "speedStrength": "medium", "speed_start": 0.12, "speed_end": 0.13470786691280595, "ori_start": -60, "ori_end": -90, "motion_direction": "in"}, "stimResponseInterval": 0.16476235403795436, "stimulusDuration": 1.5, "trial_count": 27, "ts": "motion", "exp_stage": "adaptive_procedure", "decision_var": 0.014707866912805963, "response": "up", "rt": 0.34423470598994754, "FB": 1, "quest_estimate": 0.0093682794617794, "trial_time": 2.5680673419992672}
{"FBDuration": 0.5, "FBonset": 0, "ITI": 0.24776207045142473, "displayFB": true, "onset": 124.19922876460424, "punishment_amount": 0, "responseWindow": 1.5, "reward_amount": 1, "stim": {"motionDirection": "out", "oriBase": 30, "oriDirection": 1, "oriStrength": "medium", "speedDirection": 1, "speedStrength": "medium", "speed_start": 0.12, "speed_end": 0.13124204046938354, "ori_start": 30, "ori_end": 60, "motion_direction": "out"}, "stimResponseInterval": 0.9721999069038243, "stimulusDuration": 1.5, "trial_count": 28, "ts": "motion", "exp_stage": "adaptive_procedure", "decision_var": 0.011242040469383555, "response": "up", "rt": 0.28636415499204304, "FB": 1, "quest_estimate": 0.006504106307933424, "trial_time": 3.303934713010676}
{"FBDuration": 0.5, "FBonset": 0, "ITI": 0.4658745301462458, "displayFB": true, "onset": 128.91919074195948, "punishment_amount": 0, "responseWindow": 1.5, "reward_amount": 1, "stim": {"motionDirection": "out", "oriBase": -60, "oriDirection": -1, "oriStrength": "medium", "speedDirection": -1, "speedStrength": "medium", "speed_start": 0.12, "speed_end": 0.11198815140607776, "ori_start": -60, "ori_end": -90, "motion_direction": "out"}, "stimResponseInterval": 0.4072390293947048, "stimulusDuration": 1.5, "trial_count": 29, "ts": "motion", "exp_stage": "adaptive_procedure", "decision_var": 0.008011848593922233, "response": "up", "rt": 0.2788356250093784, "FB": 0, "quest_estimate": 0.01596387002908157, "trial_time": 2.7451199250062928}
{"FBDuration": 0.5, "FBonset": 0, "ITI": 0.15377281081645788, "displayFB": true, "onset": 133.29230430150042, "punishment_amount": 0, "responseWindow": 1.5, "reward_amount": 1, "stim": {"motionDirection": "in", "oriBase": 30, "oriDirection": 1, "oriStrength": "medium", "speedDirection": 1, "speedStrength": "medium", "speed_start": 0.12, "speed_end": 0.13903334999770955, "ori_start": 30, "ori_end": 60, "motion_direction": "in"}, "stimResponseInterval": 0.5374342350902115, "stimulusDuration": 1.5, "trial_count": 30, "ts": "motion", "exp_stage": "adaptive_procedure", "decision_var": 0.019033349997709552, "response": "up", "rt": 0.24978328100405633, "FB": 1, "quest_estimate": 0.012862627228423656, "trial_time": 2.842709269010811}
{"FBDuration": 0.5, "FBonset": 0, "ITI": 0.6138498245130504, "displayFB": true, "onset": 137.4835113474071, "punishment_amount": 0, "responseWindow": 1.5, "reward_amount": 1, "stim": {"motionDirection": "out", "oriBase": -60, "oriDirection": -1, "oriStrength": "medium", "speedDirection": 1, "speedStrength": "medium", "speed_start": 0.12, "speed_end": 0.1355264572793924, "ori_start": -60, "ori_end": -90, "motion_direction": "out"}, "stimResponseInterval": 0.6136686813472347, "stimulusDuration": 1.5, "trial_count": 31, "ts": "motion", "exp_stage": "adaptive_procedure", "decision_var": 0.015526457279392405, "response": "up", "rt": 0.2790051469928585, "FB": 1, "quest_estimate": 0.009937936693004655, "trial_time": 2.9313834230124485}
{"FBDuration": 0.5, "FBonset": 0, "ITI": 0.12096353798319504, "displayFB": true, "onset": 142.21102985326738, "punishment_amount": 0, "responseWindow": 1.5, "reward_amount": 1, "stim": {"motionDirection": "out", "oriBase": 30, "oriDirection": 1, "oriStrength": "medium", "speedDirection": -1, "speedStrength": "medium", "speed_start": 0.12, "speed_end": 0.10776404671189618, "ori_start": 30, "ori_end": 60, "motion_direction": "out"}, "stimResponseInterval": 0.7919491633480038, "stimulusDuration": 1.5, "trial_count": 32, "ts": "motion", "exp_stage": "adaptive_procedure", "decision_var": 0.012235953288103806, "response": "down", "rt": 0.27088577099493705, "FB": 1, "quest_estimate": 0.00718379268725064, "trial_time": 3.1102489559998503}
{"FBDuration": 0.5, "FBonset": 0, "ITI": 0.30871587077997564, "displayFB": true, "onset": 146.62394255459859, "punishment_amount": 0, "responseWindow": 1.5, "reward_amount": 1, "stim": {"motionDirection": "in", "oriBase": 30, "oriDirection": 1, "oriStrength": "medium", "speedDirection": -1, "speedStrength": "medium", "speed_start": 0.12, "speed_end": 0.11084899390227143, "ori_start": 30, "ori_end": 60, "motion_direction": "in"}, "stimResponseInterval": 0.8116083671575447, "stimulusDuration": 1.5, "trial_count": 33, "ts": "motion", "exp_stage": "adaptive_procedure", "decision_var": 0.009151006097728558, "response": "down", "rt": 0.4025308319978649, "FB": 1, "quest_estimate": 0.004593143836406022, "trial_time": 3.2651923789962893}
{"FBDuration": 0.5, "FBonset": 0, "ITI": 0.090021557692052, "displayFB": true, "onset": 151.2442667925361, "punishment_amount": 0, "responseWindow": 1.5, "reward_amount": 1, "stim": {"motionDirection": "in", "oriBase": 30, "oriDirection": 1, "oriStrength": "medium", "speedDirection": -1, "speedStrength": "medium", "speed_start": 0.12, "speed_end": 0.11373990767323758, "ori_start": 30, "ori_end": 60, "motion_direction": "in"}, "stimResponseInterval": 0.6864587024461417, "stimulusDuration": 1.5, "trial_count": 34, "ts": "motion", "exp_stage": "adaptive_procedure", "decision_var": 0.0062600923267624176, "response": "down", "rt": 0.28237262699985877, "FB": 1, "quest_estimate": 0.0021583323319325637, "trial_time": 3.0040804739983287}
{"FBDuration": 0.5, "FBonset": 0, "ITI": 0.335878302883442, "displayFB": true, "onset": 155.5207470526743, "punishment_amount": 0, "responseWindow": 1.5, "reward_amount": 1, "stim": {"motionDirection": "in", "oriBase": -60, "oriDirection": 1, "oriStrength": "medium", "speedDirection": 1, "speedStrength": "medium", "speed_start": 0.12, "speed_end": 0.12355205603737755, "ori_start": -60, "ori_end": -30, "motion_direction": "in"}, "stimResponseInterval": 0.6261474135165175, "stimulusDuration": 1.5, "trial_count": 35, "ts": "motion", "exp_stage": "adaptive_procedure", "decision_var": 0.0035520560373775573, "response": "up", "rt": 0.22936171900073532, "FB": 1, "quest_estimate": -0.00012881966677708023, "trial_time": 2.9102798059902852}
{"FBDuration": 0.5, "FBonset": 0, "ITI": 0.7079874141708999, "displayFB": true, "onset": 159.98277276907424, "punishment_amount": 0, "responseWindow": 1.5, "reward_amount": 1, "stim": {"motionDirection": "out", "oriBase": 30, "oriDirection": -1, "oriStrength": "medium", "speedDirection": -1, "speedStrength": "medium", "speed_start": 0.12, "speed_end": 0.11898421328883232, "ori_start": 30, "ori_end": 0, "motion_direction": "out"}, "stimResponseInterval": 0.3297462343949795, "stimulusDuration": 1.5, "trial_count": 36, "ts": "motion", "exp_stage": "adaptive_procedure", "decision_var": 0.001015786711167671, "response": "down", "rt": 0.35408358700806275, "FB": 1, "quest_estimate": -0.002276648242020271, "trial_time": 2.7451145330123836}
{"FBDuration": 0.5, "FBonset": 0, "ITI": 0.3109146139638139, "displayFB": true, "onset": 164.52050641764012, "punishment_amount": 0, "responseWindow": 1.5, "reward_amount": 1, "stim": {"motionDirection": "in", "oriBase": 30, "oriDirection": -1, "oriStrength": "medium", "speedDirection": 1, "speedStrength": "medium", "speed_start": 0.12, "speed_end": 0.12000999999999999, "ori_start": 30, "ori_end": 0, "motion_direction": "in"}, "stimResponseInterval": 0.09290171406362402, "stimulusDuration": 1.5, "trial_count": 37, "ts": "motion", "exp_stage": "adaptive_procedure", "decision_var": 1e-05, "response": "up", "rt": 0.4393847030005418, "FB": 1, "quest_estimate": -0.004293834413905531, "trial_time": 2.591372231996502}
{"FBDuration": 0.5, "FBonset": 0, "ITI": 0.845296611652615, "displayFB": true, "onset": 168.42432274566755, "punishment_amount": 0, "responseWindow": 1.5, "reward_amount": 1, "stim": {"motionDirection": "in", "oriBase": -60, "oriDirection": 1, "oriStrength": "medium", "speedDirection": -1, "speedStrength": "medium", "speed_start": 0.12, "speed_end": 0.11999, "ori_start": -60, "ori_end": -30, "motion_direction": "in"}, "stimResponseInterval": 0.37704632286158957, "stimulusDuration": 1.5, "trial_count": 38, "ts": "motion", "exp_stage": "adaptive_procedure", "decision_var": 1e-05, "response": "down", "rt": 0.4720025200076634, "FB": 1, "quest_estimate": -0.006188321825061238, "trial_time": 2.896861175002414}
{"FBDuration": 0.5, "FBonset": 0, "ITI": 0.16419005538219655, "displayFB": true, "onset": 173.14666568018177, "punishment_amount": 0, "responseWindow": 1.5, "reward_amount": 1, "stim": {"motionDirection": "in", "oriBase": 30, "oriDirection": 1, "oriStrength": "medium", "speedDirection": -1, "speedStrength": "medium", "speed_start": 0.12, "speed_end": 0.11999, "ori_start": 30, "ori_end": 60, "motion_direction": "in"}, "stimResponseInterval": 0.23363098648333547, "stimulusDuration": 1.5, "trial_count": 39, "ts": "motion", "exp_stage": "adaptive_procedure", "decision_var": 1e-05, "response": "down", "rt": 0.545892989001004, "FB": 1, "quest_estimate": -0.007967348009591937, "trial_time": 2.8047352299909107}
{"FBDuration": 0.5, "FBonset": 0, "ITI": 0.47971741014026403, "displayFB": true, "onset": 177.0444867220473, "punishment_amount": 0, "responseWindow": 1.5, "reward_amount": 1, "stim": {"motionDirection": "out", "oriBase": -60, "oriDirection": 1, "oriStrength": "medium", "speedDirection": -1, "speedStrength": "medium", "speed_start": 0.12, "speed_end": 0.11999, "ori_start": -60, "ori_end": -30, "motion_direction": "out"}, "stimResponseInterval": 0.8117936825528909, "stimulusDuration": 1.5, "trial_count": 40, "ts": "motion", "exp_stage": "adaptive_procedure", "decision_var": 1e-05, "response": "down", "rt": 0.2965957580017857, "FB": 1, "quest_estimate": -0.009638047062828087, "trial_time": 3.138538116007112}
{"FBDuration": 0.5, "FBonset": 0, "ITI": 0.14661572420666202, "displayFB": true, "onset": 181.83599781474047, "punishment_amount": 0, "responseWindow": 1.5, "reward_amount": 1, "stim": {"motionDirection": "out", "oriBase": -60, "oriDirection": -1, "oriStrength": "medium", "speedDirection": 1, "speedStrength": "medium", "speed_start": 0.12, "speed_end": 0.12000999999999999, "ori_start": -60, "ori_end": -90, "motion_direction": "out"}, "stimResponseInterval": 0.712753373991933, "stimulusDuration": 1.5, "trial_count": 41, "ts": "motion", "exp_stage": "adaptive_procedure", "decision_var": 1e-05, "response": "down", "rt": 0.26481298099679407, "FB": 0, "quest_estimate": -0.003735544687696088, "trial_time": 3.03744541600463}
{"FBDuration": 0.5, "FBonset": 0, "ITI": 0.06755062051567706, "displayFB": true, "onset": 186.19536691293905, "punishment_amount": 0, "responseWindow": 1.5, "reward_amount": 1, "stim": {"motionDirection": "in", "oriBase": 30, "oriDirection": -1, "oriStrength": "medium", "speedDirection": -1, "speedStrength": "medium", "speed_start": 0.12, "speed_end": 0.11999, "ori_start": 30, "ori_end": 0, "motion_direction": "in"}, "stimResponseInterval": 0.49904329555127835, "stimulusDuration": 1.5, "trial_count": 42, "ts": "motion", "exp_stage": "adaptive_procedure", "decision_var": 1e-05, "response": "up", "rt": 0.29975935799302533, "FB": 0, "quest_estimate": 0.002898025235308417, "trial_time": 2.860788031000993}
{"FBDuration": 0.5, "FBonset": 0, "ITI": 0.07273780966544985, "displayFB": true, "onset": 190.261960829006, "punishment_amount": 0, "responseWindow": 1.5, "reward_amount": 1, "stim": {"motionDirection": "out", "oriBase": -60, "oriDirection": -1, "oriStrength": "medium", "speedDirection": 1, "speedStrength": "medium", "speed_start": 0.12, "speed_end": 0.12493088981097082, "ori_start": -60, "ori_end": -90, "motion_direction": "out"}, "stimResponseInterval": 0.04323380442345548, "stimulusDuration": 1.5, "trial_count": 43, "ts": "motion", "exp_stage": "adaptive_procedure", "decision_var": 0.004930889810970826, "response": "up", "rt": 0.3526571140100714, "FB": 1, "quest_estimate": 0.0007546514565698603, "trial_time": 2.442056407991913}
{"FBDuration": 0.5, "FBonset": 0, "ITI": 0.28483336731661835, "displayFB": true, "onset": 193.8779324430949, "punishment_amount": 0, "responseWindow": 1.5, "reward_amount": 1, "stim": {"motionDirection": "out", "oriBase": -60, "oriDirection": 1, "oriStrength": "medium", "speedDirection": -1, "speedStrength": "medium", "speed_start": 0.12, "speed_end": 0.11743467808463812, "ori_start": -60, "ori_end": -30, "motion_direction": "out"}, "stimResponseInterval": 0.25099328079951866, "stimulusDuration": 1.5, "trial_count": 44, "ts": "motion", "exp_stage": "adaptive_procedure", "decision_var": 0.002565321915361872, "response": "up", "rt": 0.3517953359987587, "FB": 0, "quest_estimate": 0.007892675413629376, "trial_time": 2.6597569419973297}
{"FBDuration": 0.5, "FBonset": 0, "ITI": 0.3043232525356253, "displayFB": true, "onset": 197.91375909121103, "punishment_amount": 0, "responseWindow": 1.5, "reward_amount": 1, "stim": {"motionDirection": "out", "oriBase": 30, "oriDirection": -1, "oriStrength": "medium", "speedDirection": -1, "speedStrength": "medium", "speed_start": 0.12, "speed_end": 0.10933253173889423, "ori_start": 30, "ori_end": 0, "motion_direction": "out"}, "stimResponseInterval": 0.3359654066075689, "stimulusDuration": 1.5, "trial_count": 45, "ts": "motion", "exp_stage": "adaptive_procedure", "decision_var": 0.010667468261105768, "response": "down", "rt": 0.30386699599330314, "FB": 1, "quest_estimate": 0.005582482369619585, "trial_time": 2.6795565280044684}
{"FBDuration": 0.5, "FBonset": 0, "ITI": 0.2688801784860101, "displayFB": true, "onset": 202.05404775035421, "punishment_amount": 0, "responseWindow": 1.5, "reward_amount": 1, "stim": {"motionDirection": "in", "oriBase": 30, "oriDirection": 1, "oriStrength": "medium", "speedDirection": 1, "speedStrength": "medium", "speed_start": 0.12, "speed_end": 0.1281286925226724, "ori_start": 30, "ori_end": 60, "motion_direction": "in"}, "stimResponseInterval": 0.4779316406592138, "stimulusDuration": 1.5, "trial_count": 46, "ts": "motion", "exp_stage": "adaptive_procedure", "decision_var": 0.008128692522672391, "response": "up", "rt": 0.30699464899953455, "FB": 1, "quest_estimate": 0.0033913832832514895, "trial_time": 2.8330729799927212}
{"FBDuration": 0.5, "FBonset": 0, "ITI": 0.6287576135515169, "displayFB": true, "onset": 206.30085956949944, "punishment_amount": 0, "responseWindow": 1.5, "reward_amount": 1, "stim": {"motionDirection": "out", "oriBase": -60, "oriDirection": -1, "oriStrength": "medium", "speedDirection": 1, "speedStrength": "medium", "speed_start": 0.12, "speed_end": 0.12571968338113224, "ori_start": -60, "ori_end": -90, "motion_direction": "out"}, "stimResponseInterval": 0.6244746573108899, "stimulusDuration": 1.5, "trial_count": 47, "ts": "motion", "exp_stage": "adaptive_procedure", "decision_var": 0.00571968338113224, "response": "down", "rt": 0.307038642000407, "FB": 0, "quest_estimate": 0.010749102540221045, "trial_time": 2.9780035830044653}
{"FBDuration": 0.5, "FBonset": 0, "ITI": 0.21266227886190858, "displayFB": true, "onset": 211.05409184036185, "punishment_amount": 0, "responseWindow": 1.5, "reward_amount": 1, "stim": {"motionDirection": "out", "oriBase": -60, "oriDirection": -1, "oriStrength": "medium", "speedDirection": -1, "speedStrength": "medium", "speed_start": 0.12, "speed_end": 0.10601322924623313, "ori_start": -60, "ori_end": -90, "motion_direction": "out"}, "stimResponseInterval": 0.9823025515666053, "stimulusDuration": 1.5, "trial_count": 48, "ts": "motion", "exp_stage": "adaptive_procedure", "decision_var": 0.013986770753766871, "response": "down", "rt": 0.4146679739933461, "FB": 1, "quest_estimate": 0.008404568025599655, "trial_time": 3.4275556710053934}
{"FBDuration": 0.5, "FBonset": 0, "ITI": 0.7111728715026715, "displayFB": true, "onset": 215.74905667079037, "punishment_amount": 0, "responseWindow": 1.5, "reward_amount": 1, "stim": {"motionDirection": "out", "oriBase": -60, "oriDirection": 1, "oriStrength": "medium", "speedDirection": 1, "speedStrength": "medium", "speed_start": 0.12, "speed_end": 0.1314267024602044, "ori_start": -60, "ori_end": -30, "motion_direction": "out"}, "stimResponseInterval": 0.9895291519205203, "stimulusDuration": 1.5, "trial_count": 49, "ts": "motion", "exp_stage": "adaptive_procedure", "decision_var": 0.01142670246020442, "response": "up", "rt": 0.2890870060073212, "FB": 1, "quest_estimate": 0.006173363964868318, "trial_time": 3.3086603870033287}
{"FBDuration": 0.5, "FBonset": 0, "ITI": 0.40237938123805694, "displayFB": true, "onset": 220.94975869421356, "punishment_amount": 0, "responseWindow": 1.5, "reward_amount": 1, "stim": {"motionDirection": "out", "oriBase": 30, "oriDirection": 1, "oriStrength": "medium", "speedDirection": -1, "speedStrength": "medium", "speed_start": 0.12, "speed_end": 0.11101203005500966, "ori_start": 30, "ori_end": 60, "motion_direction": "out"}, "stimResponseInterval": 0.04964526191947838, "stimulusDuration": 1.5, "trial_count": 50, "ts": "motion", "exp_stage": "adaptive_procedure", "decision_var": 0.008987969944990334, "response": "up", "rt": 0.49685941699135583, "FB": 0, "quest_estimate": 0.013719107447847392, "trial_time": 2.603257921000477}
{"FBDuration": 0.5, "FBonset": 0, "ITI": 0.8292084172616245, "displayFB": true, "onset": 224.90178333737109, "punishment_amount": 0, "responseWindow": 1.5, "reward_amount": 1, "stim": {"motionDirection": "out", "oriBase": 30, "oriDirection": 1, "oriStrength": "medium", "speedDirection": 1, "speedStrength": "medium", "speed_start": 0.12, "speed_end": 0.13736701902550172, "ori_start": 30, "ori_end": 60, "motion_direction": "out"}, "stimResponseInterval": 0.4400173304202952, "stimulusDuration": 1.5, "trial_count": 51, "ts": "motion", "exp_stage": "adaptive_procedure", "decision_var": 0.017367019025501716, "response": "up", "rt": 0.3160893250023946, "FB": 1, "quest_estimate": 0.011349577086839174, "trial_time": 2.8033274979970884}
{"FBDuration": 0.5, "FBonset": 0, "ITI": 0.24117185760061122, "displayFB": true, "onset": 229.67100908505302, "punishment_amount": 0, "responseWindow": 1.5, "reward_amount": 1, "stim": {"motionDirection": "in", "oriBase": 30, "oriDirection": 1, "oriStrength": "medium", "speedDirection": 1, "speedStrength": "medium", "speed_start": 0.12, "speed_end": 0.13479908641841984, "ori_start": 30, "ori_end": 60, "motion_direction": "in"}, "stimResponseInterval": 0.005800066721411312, "stimulusDuration": 1.5, "trial_count": 52, "ts": "motion", "exp_stage": "adaptive_procedure", "decision_var": 0.014799086418419843, "response": "up", "rt": 0.35203352199459914, "FB": 1, "quest_estimate": 0.009087139329354524, "trial_time": 2.3836491870024474}
{"FBDuration": 0.5, "FBonset": 0, "ITI": 0.31776238540852486, "displayFB": true, "onset": 233.41798100937504, "punishment_amount": 0, "responseWindow": 1.5, "reward_amount": 1, "stim": {"motionDirection": "out", "oriBase": 30, "oriDirection": 1, "oriStrength": "medium", "speedDirection": -1, "speedStrength": "medium", "speed_start": 0.12, "speed_end": 0.10765570269089937, "ori_start": 30, "ori_end": 60, "motion_direction": "out"}, "stimResponseInterval": 0.8722412161379642, "stimulusDuration": 1.5, "trial_count": 53, "ts": "motion", "exp_stage": "adaptive_procedure", "decision_var": 0.012344297309100624, "response": "down", "rt": 0.2733018939907197, "FB": 1, "quest_estimate": 0.006927704608691437, "trial_time": 3.205186377002974}
{"FBDuration": 0.5, "FBonset": 0, "ITI": 0.0008636041365691627, "displayFB": true, "onset": 238.10798461092153, "punishment_amount": 0, "responseWindow": 1.5, "reward_amount": 1, "stim": {"motionDirection": "out", "oriBase": 30, "oriDirection": -1, "oriStrength": "medium", "speedDirection": 1, "speedStrength": "medium", "speed_start": 0.12, "speed_end": 0.129997373864346, "ori_start": 30, "ori_end": 0, "motion_direction": "out"}, "stimResponseInterval": 0.11897415338973938, "stimulusDuration": 1.5, "trial_count": 54, "ts": "motion", "exp_stage": "adaptive_procedure", "decision_var": 0.009997373864346008, "response": "up", "rt": 0.34473832199000753, "FB": 1, "quest_estimate": 0.004867226510513786, "trial_time": 2.5070550460077357}
{"FBDuration": 0.5, "FBonset": 0, "ITI": 0.9115367431097581, "displayFB": true, "onset": 241.72782236844785, "punishment_amount": 0, "responseWindow": 1.5, "reward_amount": 1, "stim": {"motionDirection": "in", "oriBase": -60, "oriDirection": -1, "oriStrength": "medium", "speedDirection": -1, "speedStrength": "medium", "speed_start": 0.12, "speed_end": 0.1122460960448678, "ori_start": -60, "ori_end": -90, "motion_direction": "in"}, "stimResponseInterval": 0.25909092756587015, "stimulusDuration": 1.5, "trial_count": 55, "ts": "motion", "exp_stage": "adaptive_procedure", "decision_var": 0.007753903955132195, "response": "down", "rt": 0.32056447899958584, "FB": 1, "quest_estimate": 0.002901524580390724, "trial_time": 2.6310949699982302}
{"FBDuration": 0.5, "FBonset": 0, "ITI": 0.8710439472888596, "displayFB": true, "onset": 246.39845003912347, "punishment_amount": 0, "responseWindow": 1.5, "reward_amount": 1, "stim": {"motionDirection": "out", "oriBase": 30, "oriDirection": -1, "oriStrength": "medium", "speedDirection": 1, "speedStrength": "medium", "speed_start": 0.12, "speed_end": 0.12560899856378724, "ori_start": 30, "ori_end": 0, "motion_direction": "out"}, "stimResponseInterval": 0.8766066974873779, "stimulusDuration": 1.5, "trial_count": 56, "ts": "motion", "exp_stage": "adaptive_procedure", "decision_var": 0.00560899856378725, "response": "up", "rt": 0.2581599060067674, "FB": 1, "quest_estimate": 0.0010265005635284666, "trial_time": 3.170655829992029}
{"FBDuration": 0.5, "FBonset": 0, "ITI": 0.4374293503037455, "displayFB": true, "onset": 251.6461006838997, "punishment_amount": 0, "responseWindow": 1.5, "reward_amount": 1, "stim": {"motionDirection": "in", "oriBase": -60, "oriDirection": 1, "oriStrength": "medium", "speedDirection": 1, "speedStrength": "medium", "speed_start": 0.12, "speed_end": 0.12355849201349359, "ori_start": -60, "ori_end": -30, "motion_direction": "in"}, "stimResponseInterval": 0.6139655954585095, "stimulusDuration": 1.5, "trial_count": 57, "ts": "motion", "exp_stage": "adaptive_procedure", "decision_var": 0.0035584920134935985, "response": "up", "rt": 0.25802875599765684, "FB": 1, "quest_estimate": -0.0007619171930931534, "trial_time": 2.9294338600011542}
{"FBDuration": 0.5, "FBonset": 0, "ITI": 0.9043929883520301, "displayFB": true, "onset": 256.19749562966194, "punishment_amount": 0, "responseWindow": 1.5, "reward_amount": 1, "stim": {"motionDirection": "out", "oriBase": 30, "oriDirection": -1, "oriStrength": "medium", "speedDirection": 1, "speedStrength": "medium", "speed_start": 0.12, "speed_end": 0.12159838741228228, "ori_start": 30, "ori_end": 0, "motion_direction": "out"}, "stimResponseInterval": 0.8290476710560339, "stimulusDuration": 1.5, "trial_count": 58, "ts": "motion", "exp_stage": "adaptive_procedure", "decision_var": 0.0015983874122822844, "response": "down", "rt": 0.46565856199595146, "FB": 0, "quest_estimate": 0.005274473673395806, "trial_time": 3.3374544200050877}
{"FBDuration": 0.5, "FBonset": 0, "ITI": 0.22290969896651536, "displayFB": true, "onset": 261.43093628907, "punishment_amount": 0, "responseWindow": 1.5, "reward_amount": 1, "stim": {"motionDirection": "in", "oriBase": 30, "oriDirection": -1, "oriStrength": "medium", "speedDirection": -1, "speedStrength": "medium", "speed_start": 0.12, "speed_end": 0.11165821492997857, "ori_start": 30, "ori_end": 0, "motion_direction": "in"}, "stimResponseInterval": 0.5371521593440727, "stimulusDuration": 1.5, "trial_count": 59, "ts": "motion", "exp_stage": "adaptive_procedure", "decision_var": 0.008341785070021424, "response": "down", "rt": 0.2228660300024785, "FB": 1, "quest_estimate": 0.0033687859636721967, "trial_time": 2.810678140987875}
{"FBDuration": 0.5, "FBonset": 0, "ITI": 0.4137926585496351, "displayFB": true, "onset": 265.6909981473806, "punishment_amount": 0, "responseWindow": 1.5, "reward_amount": 1, "stim": {"motionDirection": "out", "oriBase": -60, "oriDirection": 1, "oriStrength": "medium", "speedDirection": -1, "speedStrength": "medium", "speed_start": 0.12, "speed_end": 0.11372913505684196, "ori_start": -60, "ori_end": -30, "motion_direction": "out"}, "stimResponseInterval": 0.6560362766534675, "stimulusDuration": 1.5, "trial_count": 60, "ts": "motion", "exp_stage": "adaptive_procedure", "decision_var": 0.006270864943158046, "response": "down", "rt": 0.25577788200462237, "FB": 1, "quest_estimate": 0.0015464019239184723, "trial_time": 2.9660611300059827}
{"FBDuration": 0.5, "FBonset": 0, "ITI": 0.8937505389186025, "displayFB": true, "onset": 270.26082708258366, "punishment_amount": 0, "responseWindow": 1.5, "reward_amount": 1, "stim": {"motionDirection": "out", "oriBase": 30, "oriDirection": 1, "oriStrength": "medium", "speedDirection": -1, "speedStrength": "medium", "speed_start": 0.12, "speed_end": 0.11571454973412348, "ori_start": 30, "ori_end": 60, "motion_direction": "out"}, "stimResponseInterval": 0.1927545683771117, "stimulusDuration": 1.5, "trial_count": 61, "ts": "motion", "exp_stage": "adaptive_procedure", "decision_var": 0.0042854502658765045, "response": "down", "rt": 0.46375850500771776, "FB": 1, "quest_estimate": -0.0001962140302488105, "trial_time": 2.705788164996193}
{"FBDuration": 0.5, "FBonset": 0, "ITI": 0.2009032965577734, "displayFB": true, "onset": 274.84733218987935, "punishment_amount": 0, "responseWindow": 1.5, "reward_amount": 1, "stim": {"motionDirection": "in", "oriBase": 30, "oriDirection": -1, "oriStrength": "medium", "speedDirection": -1, "speedStrength": "medium", "speed_start": 0.12, "speed_end": 0.11761818260291844, "ori_start": 30, "ori_end": 0, "motion_direction": "in"}, "stimResponseInterval": 0.99114963856921, "stimulusDuration": 1.5, "trial_count": 62, "ts": "motion", "exp_stage": "adaptive_procedure", "decision_var": 0.0023818173970815565, "response": "down", "rt": 0.29836759000318125, "FB": 1, "quest_estimate": -0.0018625309645311783, "trial_time": 3.3303904450003756}
{"FBDuration": 0.5, "FBonset": 0, "ITI": 0.42883346136055545, "displayFB": true, "onset": 279.53938512500633, "punishment_amount": 0, "responseWindow": 1.5, "reward_amount": 1, "stim": {"motionDirection": "in", "oriBase": -60, "oriDirection": 1, "oriStrength": "medium", "speedDirection": -1, "speedStrength": "medium", "speed_start": 0.12, "speed_end": 0.11944335481253376, "ori_start": -60, "ori_end": -30, "motion_direction": "in"}, "stimResponseInterval": 0.06546579528774055, "stimulusDuration": 1.5, "trial_count": 63, "ts": "motion", "exp_stage": "adaptive_procedure", "decision_var": 0.0005566451874662315, "response": NaN, "rt": NaN, "FB": NaN, "trial_time": 3.5939762739872094}
{"FBDuration": 0.5, "FBonset": 0, "ITI": 0.6027586552161135, "displayFB": true, "onset": 283.5336843816546, "punishment_amount": 0, "responseWindow": 1.5, "reward_amount": 1, "stim": {"motionDirection": "out", "oriBase": -60, "oriDirection": -1, "oriStrength": "medium", "speedDirection": -1, "speedStrength": "medium", "speed_start": 0.12, "speed_end": 0.11316155427941837, "ori_start": -60, "ori_end": -90, "motion_direction": "out"}, "stimResponseInterval": 0.5030288360522093, "stimulusDuration": 1.5, "trial_count": 64, "ts": "motion", "exp_stage": "adaptive_procedure", "decision_var": 0.006838445720581621, "response": "down", "rt": 0.17961821099743247, "FB": 1, "quest_estimate": 0.0020034317325941867, "trial_time": 2.7130905049998546}
