{"FBDuration": 0.5, "FBonset": 0, "ITI": 0.014489988086455852, "displayFB": true, "onset": 92.79002571752686, "punishment_amount": 0, "responseWindow": 1.5, "reward_amount": 1, "stim": {"motionDirection": "out", "oriBase": -60, "oriDirection": -1, "oriStrength": "medium", "speedDirection": -1, "speedStrength": "medium", "speed_start": 0.12, "speed_end": 0.11799656826740582, "ori_start": -60, "ori_end": -90, "motion_direction": "out"}, "stimResponseInterval": 0.7580220983195272, "stimulusDuration": 1.5, "trial_count": 21, "ts": "orientation", "exp_stage": "adaptive_procedure", "decision_var": 30, "response": "left", "rt": 0.33528749900870025, "FB": 1, "trial_time": 3.152779312993516}
{"FBDuration": 0.5, "FBonset": 0, "ITI": 0.9490419783117674, "displayFB": true, "onset": 29.289160259618043, "punishment_amount": 0, "responseWindow": 1.5, "reward_amount": 1, "stim": {"motionDirection": "out", "oriBase": -60, "oriDirection": -1, "oriStrength": "medium", "speedDirection": -1, "speedStrength": "medium", "speed_start": 0.12, "speed_end": 0.11799656826740582, "ori_start": -60, "ori_end": -90, "motion_direction": "out"}, "stimResponseInterval": 0.5722357554821516, "stimulusDuration": 1.5, "trial_count": 7, "ts": "orientation", "exp_stage": "adaptive_procedure", "decision_var": 30, "response": "left", "rt": 0.2905461379996268, "FB": 1, "trial_time": 2.9185172980069183}
{"FBDuration": 0.5, "FBonset": 0, "ITI": 0.3484467306287319, "displayFB": true, "onset": 281.75085563144194, "punishment_amount": 0, "responseWindow": 1.5, "reward_amount": 1, "stim": {"motionDirection": "in", "oriBase": -60, "oriDirection": 1, "oriStrength": "medium", "speedDirection": -1, "speedStrength": "medium", "speed_start": 0.12, "speed_end": 0.11799656826740582, "ori_start": -60, "ori_end": -30, "motion_direction": "in"}, "stimResponseInterval": 0.5456649359162817, "stimulusDuration": 1.5, "trial_count": 63, "ts": "orientation", "exp_stage": "adaptive_procedure", "decision_var": 30, "response": "right", "rt": 0.3026158839929849, "FB": 1, "trial_time": 2.904425815999275}
{"FBDuration": 0.5, "FBonset": 0, "ITI": 0.3983704423646819, "displayFB": true, "onset": 250.22509370146233, "punishment_amount": 0, "responseWindow": 1.5, "reward_amount": 1, "stim": {"motionDirection": "out", "oriBase": -60, "oriDirection": -1, "oriStrength": "medium", "speedDirection": 1, "speedStrength": "medium", "speed_start": 0.12, "speed_end": 0.12200343173259418, "ori_start": -60, "ori_end": -90, "motion_direction": "out"}, "stimResponseInterval": 0.7011247412904811, "stimulusDuration": 1.5, "trial_count": 56, "ts": "orientation", "exp_stage": "adaptive_procedure", "decision_var": 30, "response": "left", "rt": 0.3158617779990891, "FB": 1, "trial_time": 3.045562883009552}
{"FBDuration": 0.5, "FBonset": 0, "ITI": 0.5295866247421208, "displayFB": true, "onset": 80.00537966596569, "punishment_amount": 0, "responseWindow": 1.5, "reward_amount": 1, "stim": {"motionDirection": "in", "oriBase": 30, "oriDirection": -1, "oriStrength": "medium", "speedDirection": 1, "speedStrength": "medium", "speed_start": 0.12, "speed_end": 0.12200343173259418, "ori_start": 30, "ori_end": 0, "motion_direction": "in"}, "stimResponseInterval": 0.8864427116380693, "stimulusDuration": 1.5, "trial_count": 18, "ts": "orientation", "exp_stage": "adaptive_procedure", "decision_var": 30, "response": "left", "rt": 0.2795795740094036, "FB": 1, "trial_time": 3.225466490010149}
{"FBDuration": 0.5, "FBonset": 0, "ITI": 0.9291894657680362, "displayFB": true, "onset": 177.69213822587585, "punishment_amount": 0, "responseWindow": 1.5, "reward_amount": 1, "stim": {"motionDirection": "in", "oriBase": 30, "oriDirection": 1, "oriStrength": "medium", "speedDirection": 1, "speedStrength": "medium", "speed_start": 0.12, "speed_end": 0.12200343173259418, "ori_start": 30, "ori_end": 60, "motion_direction": "in"}, "stimResponseInterval": 0.4662927852947619, "stimulusDuration": 1.5, "trial_count": 40, "ts": "orientation", "exp_stage": "adaptive_procedure", "decision_var": 30, "response": "right", "rt": 0.2807973029994173, "FB": 1, "trial_time": 2.7975681660027476}
{"FBDuration": 0.5, "FBonset": 0, "ITI": 0.11700077180404311, "displayFB": true, "onset": 223.83488112952875, "punishment_amount": 0, "responseWindow": 1.5, "reward_amount": 1, "stim": {"motionDirection": "out", "oriBase": 30, "oriDirection": -1, "oriStrength": "medium", "speedDirection": -1, "speedStrength": "medium", "speed_start": 0.12, "speed_end": 0.11799656826740582, "ori_start": 30, "ori_end": 0, "motion_direction": "out"}, "stimResponseInterval": 0.0716951861573053, "stimulusDuration": 1.5, "trial_count": 50, "ts": "orientation", "exp_stage": "adaptive_procedure", "decision_var": 30, "response": "left", "rt": 0.4505740979948314, "FB": 1, "trial_time": 2.557576417995733}
{"FBDuration": 0.5, "FBonset": 0, "ITI": 0.8644770252104539, "displayFB": true, "onset": 15.033104435558647, "punishment_amount": 0, "responseWindow": 1.5, "reward_amount": 1, "stim": {"motionDirection": "out", "oriBase": 30, "oriDirection": 1, "oriStrength": "medium", "speedDirection": 1, "speedStrength": "medium", "speed_start": 0.12, "speed_end": 0.12200343173259418, "ori_start": 30, "ori_end": 60, "motion_direction": "out"}, "stimResponseInterval": 0.5925128088199163, "stimulusDuration": 1.5, "trial_count": 4, "ts": "orientation", "exp_stage": "adaptive_procedure", "decision_var": 30, "response": "right", "rt": 0.4225219299987657, "FB": 1, "trial_time": 3.0497506149986293}
{"FBDuration": 0.5, "FBonset": 0, "ITI": 0.9338021468728024, "displayFB": true, "onset": 245.1031658333409, "punishment_amount": 0, "responseWindow": 1.5, "reward_amount": 1, "stim": {"motionDirection": "out", "oriBase": -60, "oriDirection": -1, "oriStrength": "medium", "speedDirection": 1, "speedStrength": "medium", "speed_start": 0.12, "speed_end": 0.12200343173259418, "ori_start": -60, "ori_end": -90, "motion_direction": "out"}, "stimResponseInterval": 0.68812572124861, "stimulusDuration": 1.5, "trial_count": 55, "ts": "orientation", "exp_stage": "adaptive_procedure", "decision_var": 30, "response": "left", "rt": 0.25640044000465423, "FB": 1, "trial_time": 2.979212762991665}
{"FBDuration": 0.5, "FBonset": 0, "ITI": 0.9232966446722255, "displayFB": true, "onset": 254.8245888851175, "punishment_amount": 0, "responseWindow": 1.5, "reward_amount": 1, "stim": {"motionDirection": "out", "oriBase": 30, "oriDirection": 1, "oriStrength": "medium", "speedDirection": 1, "speedStrength": "medium", "speed_start": 0.12, "speed_end": 0.12200343173259418, "ori_start": 30, "ori_end": 60, "motion_direction": "out"}, "stimResponseInterval": 0.11924770317978084, "stimulusDuration": 1.5, "trial_count": 57, "ts": "orientation", "exp_stage": "adaptive_procedure", "decision_var": 30, "response": "right", "rt": 0.4051222120033344, "FB": 1, "trial_time": 2.5684482179931365}
{"FBDuration": 0.5, "FBonset": 0, "ITI": 0.17798508897441956, "displayFB": true, "onset": 97.06253780393284, "punishment_amount": 0, "responseWindow": 1.5, "reward_amount": 1, "stim": {"motionDirection": "in", "oriBase": 30, "oriDirection": -1, "oriStrength": "medium", "speedDirection": -1, "speedStrength": "medium", "speed_start": 0.12, "speed_end": 0.11799656826740582, "ori_start": 30, "ori_end": 0, "motion_direction": "in"}, "stimResponseInterval": 0.9723580506766298, "stimulusDuration": 1.5, "trial_count": 22, "ts": "orientation", "exp_stage": "adaptive_procedure", "decision_var": 30, "response": "left", "rt": 0.3197954889910761, "FB": 1, "trial_time": 3.3521497269975953}
{"FBDuration": 0.5, "FBonset": 0, "ITI": 0.2056866833508364, "displayFB": true, "onset": 277.39036688642653, "punishment_amount": 0, "responseWindow": 1.5, "reward_amount": 1, "stim": {"motionDirection": "out", "oriBase": 30, "oriDirection": 1, "oriStrength": "medium", "speedDirection": 1, "speedStrength": "medium", "speed_start": 0.12, "speed_end": 0.12200343173259418, "ori_start": 30, "ori_end": 60, "motion_direction": "out"}, "stimResponseInterval": 0.6548020616645482, "stimulusDuration": 1.5, "trial_count": 62, "ts": "orientation", "exp_stage": "adaptive_procedure", "decision_var": 30, "response": "right", "rt": 0.2827098730049329, "FB": 1, "trial_time": 2.996854617013014}
{"FBDuration": 0.5, "FBonset": 0, "ITI": 0.6293282531253714, "displayFB": true, "onset": 205.10071469313075, "punishment_amount": 0, "responseWindow": 1.5, "reward_amount": 1, "stim": {"motionDirection": "out", "oriBase": 30, "oriDirection": -1, "oriStrength": "medium", "speedDirection": -1, "speedStrength": "medium", "speed_start": 0.12, "speed_end": 0.11799656826740582, "ori_start": 30, "ori_end": 0, "motion_direction": "out"}, "stimResponseInterval": 0.8491872272234169, "stimulusDuration": 1.5, "trial_count": 46, "ts": "orientation", "exp_stage": "adaptive_procedure", "decision_var": 30, "response": "left", "rt": 0.2759969249891583, "FB": 1, "trial_time": 3.153254441000172}
{"FBDuration": 0.5, "FBonset": 0, "ITI": 0.0971462672332728, "displayFB": true, "onset": 2, "punishment_amount": 0, "responseWindow": 1.5, "reward_amount": 1, "stim": {"motionDirection": "in", "oriBase": 30, "oriDirection": 1, "oriStrength": "medium", "speedDirection": 1, "speedStrength": "medium", "speed_start": 0.12, "speed_end": 0.12200343173259418, "ori_start": 30, "ori_end": 60, "motion_direction": "in"}, "stimResponseInterval": 0.37224669204576155, "stimulusDuration": 1.5, "trial_count": 1, "ts": "orientation", "exp_stage": "adaptive_procedure", "decision_var": 30, "response": "right", "rt": 0.3136790349963121, "FB": 1, "trial_time": 2.729737934001605}
{"FBDuration": 0.5, "FBonset": 0, "ITI": 0.7623663833161243, "displayFB": true, "onset": 43.48739489928857, "punishment_amount": 0, "responseWindow": 1.5, "reward_amount": 1, "stim": {"motionDirection": "out", "oriBase": -60, "oriDirection": 1, "oriStrength": "medium", "speedDirection": -1, "speedStrength": "medium", "speed_start": 0.12, "speed_end": 0.11799656826740582, "ori_start": -60, "ori_end": -30, "motion_direction": "out"}, "stimResponseInterval": 0.0011474155938077102, "stimulusDuration": 1.5, "trial_count": 10, "ts": "orientation", "exp_stage": "adaptive_procedure", "decision_var": 30, "response": "right", "rt": 0.38742307500797324, "FB": 1, "trial_time": 2.4482979939930374}
{"FBDuration": 0.5, "FBonset": 0, "ITI": 0.5954545836726177, "displayFB": true, "onset": 88.60090603309601, "punishment_amount": 0, "responseWindow": 1.5, "reward_amount": 1, "stim": {"motionDirection": "in", "oriBase": 30, "oriDirection": -1, "oriStrength": "medium", "speedDirection": -1, "speedStrength": "medium", "speed_start": 0.12, "speed_end": 0.11799656826740582, "ori_start": 30, "ori_end": 0, "motion_direction": "in"}, "stimResponseInterval": 0.09366510075823353, "stimulusDuration": 1.5, "trial_count": 20, "ts": "orientation", "exp_stage": "adaptive_procedure", "decision_var": 30, "response": "left", "rt": 0.34916824199899565, "FB": 1, "trial_time": 2.4736916609981563}
{"FBDuration": 0.5, "FBonset": 0, "ITI": 0.041830725683405734, "displayFB": true, "onset": 19.990094269589015, "punishment_amount": 0, "responseWindow": 1.5, "reward_amount": 1, "stim": {"motionDirection": "out", "oriBase": 30, "oriDirection": -1, "oriStrength": "medium", "speedDirection": 1, "speedStrength": "medium", "speed_start": 0.12, "speed_end": 0.12200343173259418, "ori_start": 30, "ori_end": 0, "motion_direction": "out"}, "stimResponseInterval": 0.9729855715315585, "stimulusDuration": 1.5, "trial_count": 5, "ts": "orientation", "exp_stage": "adaptive_procedure", "decision_var": 30, "response": "left", "rt": 0.2533912950020749, "FB": 1, "trial_time": 3.286322512998595}
{"FBDuration": 0.5, "FBonset": 0, "ITI": 0.13997452172079694, "displayFB": true, "onset": 84.92140900234588, "punishment_amount": 0, "responseWindow": 1.5, "reward_amount": 1, "stim": {"motionDirection": "in", "oriBase": -60, "oriDirection": -1, "oriStrength": "medium", "speedDirection": 1, "speedStrength": "medium", "speed_start": 0.12, "speed_end": 0.12200343173259418, "ori_start": -60, "ori_end": -90, "motion_direction": "in"}, "stimResponseInterval": 0.039522509029335406, "stimulusDuration": 1.5, "trial_count": 19, "ts": "orientation", "exp_stage": "adaptive_procedure", "decision_var": 30, "response": "left", "rt": 0.3120079810032621, "FB": 1, "trial_time": 2.3960096499940846}
{"FBDuration": 0.5, "FBonset": 0, "ITI": 0.09253529031323726, "displayFB": true, "onset": 214.68478908070492, "punishment_amount": 0, "responseWindow": 1.5, "reward_amount": 1, "stim": {"motionDirection": "in", "oriBase": 30, "oriDirection": 1, "oriStrength": "medium", "speedDirection": -1, "speedStrength": "medium", "speed_start": 0.12, "speed_end": 0.11799656826740582, "ori_start": 30, "ori_end": 60, "motion_direction": "in"}, "stimResponseInterval": 0.5472558433778238, "stimulusDuration": 1.5, "trial_count": 48, "ts": "orientation", "exp_stage": "adaptive_procedure", "decision_var": 30, "response": "right", "rt": 0.2935797399986768, "FB": 1, "trial_time": 2.8702990549936658}
{"FBDuration": 0.5, "FBonset": 0, "ITI": 0.197380495637827, "displayFB": true, "onset": 168.36588474022054, "punishment_amount": 0, "responseWindow": 1.5, "reward_amount": 1, "stim": {"motionDirection": "out", "oriBase": -60, "oriDirection": 1, "oriStrength": "medium", "speedDirection": -1, "speedStrength": "medium", "speed_start": 0.12, "speed_end": 0.11799656826740582, "ori_start": -60, "ori_end": -30, "motion_direction": "out"}, "stimResponseInterval": 0.7307663562083253, "stimulusDuration": 1.5, "trial_count": 38, "ts": "orientation", "exp_stage": "adaptive_procedure", "decision_var": 30, "response": "right", "rt": 0.21518500900128856, "FB": 1, "trial_time": 2.981786243006354}
{"FBDuration": 0.5, "FBonset": 0, "ITI": 0.0971462672332728, "displayFB": true, "onset": 2, "punishment_amount": 0, "responseWindow": 1.5, "reward_amount": 1, "stim": {"motionDirection": "in", "oriBase": 30, "oriDirection": 1, "oriStrength": "medium", "speedDirection": 1, "speedStrength": "medium", "speed_start": 0.12, "speed_end": 0.12200343173259418, "ori_start": 30, "ori_end": 60, "motion_direction": "in"}, "stimResponseInterval": 0.37224669204576155, "stimulusDuration": 1.5, "trial_count": 1, "ts": "orientation", "exp_stage": "adaptive_procedure", "decision_var": 30, "response": "right", "rt": 0.33325114600302186, "FB": 1, "quest_estimate": 23.905873068303592, "trial_time": 2.7601105220091995}
{"FBDuration": 0.5, "FBonset": 0, "ITI": 0.3639731495819649, "displayFB": true, "onset": 5.969392959279034, "punishment_amount": 0, "responseWindow": 1.5, "reward_amount": 1, "stim": {"motionDirection": "out", "oriBase": -60, "oriDirection": -1, "oriStrength": "medium", "speedDirection": -1, "speedStrength": "medium", "speed_start": 0.12, "speed_end": 0.11799656826740582, "ori_start": -60, "ori_end": -86.05735527427225, "motion_direction": "out"}, "stimResponseInterval": 0.7909043894106107, "stimulusDuration": 1.5, "trial_count": 2, "ts": "orientation", "exp_stage": "adaptive_procedure", "decision_var": 26.05735527427226, "response": "left", "rt": 0.22291499099810608, "FB": 1, "quest_estimate": 18.59082863785301, "trial_time": 3.0548344959970564}
{"FBDuration": 0.5, "FBonset": 0, "ITI": 0.12486639695560564, "displayFB": true, "onset": 10.62427049827161, "punishment_amount": 0, "responseWindow": 1.5, "reward_amount": 1, "stim": {"motionDirection": "out", "oriBase": -60, "oriDirection": 1, "oriStrength": "medium", "speedDirection": -1, "speedStrength": "medium", "speed_start": 0.12, "speed_end": 0.11799656826740582, "ori_start": -60, "ori_end": -40.2323180249375, "motion_direction": "out"}, "stimResponseInterval": 0.7839675403314308, "stimulusDuration": 1.5, "trial_count": 3, "ts": "orientation", "exp_stage": "adaptive_procedure", "decision_var": 19.7676819750625, "response": "right", "rt": 0.19412488499074243, "FB": 1, "quest_estimate": 13.961013317514713, "trial_time": 3.03179114399245}
{"FBDuration": 0.5, "FBonset": 0, "ITI": 0.8644770252104539, "displayFB": true, "onset": 15.033104435558647, "punishment_amount": 0, "responseWindow": 1.5, "reward_amount": 1, "stim": {"motionDirection": "out", "oriBase": 30, "oriDirection": 1, "oriStrength": "medium", "speedDirection": 1, "speedStrength": "medium", "speed_start": 0.12, "speed_end": 0.12200343173259418, "ori_start": 30, "ori_end": 44.57899872431736, "motion_direction": "out"}, "stimResponseInterval": 0.5925128088199163, "stimulusDuration": 1.5, "trial_count": 4, "ts": "orientation", "exp_stage": "adaptive_procedure", "decision_var": 14.578998724317362, "response": "right", "rt": 0.27189654001267627, "FB": 1, "quest_estimate": 9.978812688304295, "trial_time": 2.9179476959980093}
{"FBDuration": 0.5, "FBonset": 0, "ITI": 0.041830725683405734, "displayFB": true, "onset": 19.990094269589015, "punishment_amount": 0, "responseWindow": 1.5, "reward_amount": 1, "stim": {"motionDirection": "out", "oriBase": 30, "oriDirection": -1, "oriStrength": "medium", "speedDirection": 1, "speedStrength": "medium", "speed_start": 0.12, "speed_end": 0.12200343173259418, "ori_start": 30, "ori_end": 19.74378971337403, "motion_direction": "out"}, "stimResponseInterval": 0.9729855715315585, "stimulusDuration": 1.5, "trial_count": 5, "ts": "orientation", "exp_stage": "adaptive_procedure", "decision_var": 10.256210286625969, "response": "left", "rt": 0.29125653799565043, "FB": 1, "quest_estimate": 6.585719101026655, "trial_time": 3.3236429910029983}
{"FBDuration": 0.5, "FBonset": 0, "ITI": 0.67330816050253, "displayFB": true, "onset": 24.50491056680398, "punishment_amount": 0, "responseWindow": 1.5, "reward_amount": 1, "stim": {"motionDirection": "in", "oriBase": -60, "oriDirection": -1, "oriStrength": "medium", "speedDirection": 1, "speedStrength": "medium", "speed_start": 0.12, "speed_end": 0.12200343173259418, "ori_start": -60, "ori_end": -66.6523874379395, "motion_direction": "in"}, "stimResponseInterval": 0.6109415323115339, "stimulusDuration": 1.5, "trial_count": 6, "ts": "orientation", "exp_stage": "adaptive_procedure", "decision_var": 6.652387437939492, "response": "left", "rt": 0.2700849039974855, "FB": 1, "quest_estimate": 3.713751834595307, "trial_time": 2.9351756240066607}
{"FBDuration": 0.5, "FBonset": 0, "ITI": 0.9490419783117674, "displayFB": true, "onset": 29.289160259618043, "punishment_amount": 0, "responseWindow": 1.5, "reward_amount": 1, "stim": {"motionDirection": "out", "oriBase": -60, "oriDirection": -1, "oriStrength": "medium", "speedDirection": -1, "speedStrength": "medium", "speed_start": 0.12, "speed_end": 0.11799656826740582, "ori_start": -60, "ori_end": -63.644367381965445, "motion_direction": "out"}, "stimResponseInterval": 0.5722357554821516, "stimulusDuration": 1.5, "trial_count": 7, "ts": "orientation", "exp_stage": "adaptive_procedure", "decision_var": 3.644367381965445, "response": "left", "rt": 0.3307780459872447, "FB": 1, "quest_estimate": 1.2896315663586648, "trial_time": 2.9597854880121304}
{"FBDuration": 0.5, "FBonset": 0, "ITI": 0.6279161125798731, "displayFB": true, "onset": 34.310437993411966, "punishment_amount": 0, "responseWindow": 1.5, "reward_amount": 1, "stim": {"motionDirection": "out", "oriBase": -60, "oriDirection": -1, "oriStrength": "medium", "speedDirection": 1, "speedStrength": "medium", "speed_start": 0.12, "speed_end": 0.12200343173259418, "ori_start": -60, "ori_end": -61.111141013766414, "motion_direction": "out"}, "stimResponseInterval": 0.5664145795087063, "stimulusDuration": 1.5, "trial_count": 8, "ts": "orientation", "exp_stage": "adaptive_procedure", "decision_var": 1.1111410137664173, "response": "left", "rt": 0.5814497780083911, "FB": 1, "quest_estimate": -0.7421125555844483, "trial_time": 3.2014856449968647}
{"FBDuration": 0.5, "FBonset": 0, "ITI": 0.7152011134364398, "displayFB": true, "onset": 39.004768685500544, "punishment_amount": 0, "responseWindow": 1.5, "reward_amount": 1, "stim": {"motionDirection": "out", "oriBase": -60, "oriDirection": 1, "oriStrength": "medium", "speedDirection": 1, "speedStrength": "medium", "speed_start": 0.12, "speed_end": 0.12200343173259418, "ori_start": -60, "ori_end": -59.99999, "motion_direction": "out"}, "stimResponseInterval": 0.26742510035158096, "stimulusDuration": 1.5, "trial_count": 9, "ts": "orientation", "exp_stage": "adaptive_procedure", "decision_var": 1e-05, "response": "left", "rt": 0.3309940259932773, "FB": 0, "quest_estimate": 6.928303586210053, "trial_time": 2.6591401850018883}
{"FBDuration": 0.5, "FBonset": 0, "ITI": 0.7623663833161243, "displayFB": true, "onset": 43.48739489928857, "punishment_amount": 0, "responseWindow": 1.5, "reward_amount": 1, "stim": {"motionDirection": "out", "oriBase": -60, "oriDirection": 1, "oriStrength": "medium", "speedDirection": -1, "speedStrength": "medium", "speed_start": 0.12, "speed_end": 0.11799656826740582, "ori_start": -60, "ori_end": -55.259973979509766, "motion_direction": "out"}, "stimResponseInterval": 0.0011474155938077102, "stimulusDuration": 1.5, "trial_count": 10, "ts": "orientation", "exp_stage": "adaptive_procedure", "decision_var": 4.74002602049023, "response": "right", "rt": 0.43825411099533085, "FB": 1, "quest_estimate": 4.9862351103519735, "trial_time": 2.5117980579962023}
{"FBDuration": 0.5, "FBonset": 0, "ITI": 0.3734985653878088, "displayFB": true, "onset": 47.7509086981985, "punishment_amount": 0, "responseWindow": 1.5, "reward_amount": 1, "stim": {"motionDirection": "in", "oriBase": -60, "oriDirection": -1, "oriStrength": "medium", "speedDirection": 1, "speedStrength": "medium", "speed_start": 0.12, "speed_end": 0.12200343173259418, "ori_start": -60, "ori_end": -63.089611011903045, "motion_direction": "in"}, "stimResponseInterval": 0.1554535488460569, "stimulusDuration": 1.5, "trial_count": 11, "ts": "orientation", "exp_stage": "adaptive_procedure", "decision_var": 3.0896110119030453, "response": "left", "rt": 0.34565193399612326, "FB": 1, "quest_estimate": 3.5521716243137433, "trial_time": 2.552535672992235}
{"FBDuration": 0.5, "FBonset": 0, "ITI": 0.25096114066703745, "displayFB": true, "onset": 51.77986081243237, "punishment_amount": 0, "responseWindow": 1.5, "reward_amount": 1, "stim": {"motionDirection": "out", "oriBase": -60, "oriDirection": 1, "oriStrength": "medium", "speedDirection": 1, "speedStrength": "medium", "speed_start": 0.12, "speed_end": 0.12200343173259418, "ori_start": -60, "ori_end": -57.778432125716265, "motion_direction": "out"}, "stimResponseInterval": 0.9714089344070405, "stimulusDuration": 1.5, "trial_count": 12, "ts": "orientation", "exp_stage": "adaptive_procedure", "decision_var": 2.221567874283739, "response": "right", "rt": 0.32676883999374695, "FB": 1, "quest_estimate": 2.4956220148734616, "trial_time": 3.3650129529996775}
{"FBDuration": 0.5, "FBonset": 0, "ITI": 0.24996286996440864, "displayFB": true, "onset": 56.50223088750644, "punishment_amount": 0, "responseWindow": 1.5, "reward_amount": 1, "stim": {"motionDirection": "in", "oriBase": 30, "oriDirection": -1, "oriStrength": "medium", "speedDirection": 1, "speedStrength": "medium", "speed_start": 0.12, "speed_end": 0.12200343173259418, "ori_start": 30, "ori_end": 28.485638898603646, "motion_direction": "in"}, "stimResponseInterval": 0.7767241701728829, "stimulusDuration": 1.5, "trial_count": 13, "ts": "orientation", "exp_stage": "adaptive_procedure", "decision_var": 1.5143611013963536, "response": "left", "rt": 0.2651840159960557, "FB": 1, "quest_estimate": 1.7100037532417645, "trial_time": 3.099316223000642}
{"FBDuration": 0.5, "FBonset": 0, "ITI": 0.8934629088866399, "displayFB": true, "onset": 61.02891792764373, "punishment_amount": 0, "responseWindow": 1.5, "reward_amount": 1, "stim": {"motionDirection": "out", "oriBase": 30, "oriDirection": 1, "oriStrength": "medium", "speedDirection": -1, "speedStrength": "medium", "speed_start": 0.12, "speed_end": 0.11799656826740582, "ori_start": 30, "ori_end": 31.034691685721626, "motion_direction": "out"}, "stimResponseInterval": 0.8954584803232342, "stimulusDuration": 1.5, "trial_count": 14, "ts": "orientation", "exp_stage": "adaptive_procedure", "decision_var": 1.0346916857216257, "response": "left", "rt": 0.07753570299246348, "FB": 0, "quest_estimate": 3.777397030407677, "trial_time": 3.0288794330117526}
{"FBDuration": 0.5, "FBonset": 0, "ITI": 0.35212392215176813, "displayFB": true, "onset": 66.31783931685361, "punishment_amount": 0, "responseWindow": 1.5, "reward_amount": 1, "stim": {"motionDirection": "in", "oriBase": 30, "oriDirection": -1, "oriStrength": "medium", "speedDirection": 1, "speedStrength": "medium", "speed_start": 0.12, "speed_end": 0.12200343173259418, "ori_start": 30, "ori_end": 27.90229763116926, "motion_direction": "in"}, "stimResponseInterval": 0.8349973959913979, "stimulusDuration": 1.5, "trial_count": 15, "ts": "orientation", "exp_stage": "adaptive_procedure", "decision_var": 2.0977023688307384, "response": "left", "rt": 0.26901343899953645, "FB": 1, "quest_estimate": 2.9076272319725796, "trial_time": 3.138632778005558}
{"FBDuration": 0.5, "FBonset": 0, "ITI": 0.5961085141886566, "displayFB": true, "onset": 71.00496063499678, "punishment_amount": 0, "responseWindow": 1.5, "reward_amount": 1, "stim": {"motionDirection": "out", "oriBase": -60, "oriDirection": 1, "oriStrength": "medium", "speedDirection": -1, "speedStrength": "medium", "speed_start": 0.12, "speed_end": 0.11799656826740582, "ori_start": -60, "ori_end": -58.292590399797746, "motion_direction": "out"}, "stimResponseInterval": 0.3890473861515015, "stimulusDuration": 1.5, "trial_count": 16, "ts": "orientation", "exp_stage": "adaptive_procedure", "decision_var": 1.7074096002022543, "response": "right", "rt": 0.24610561499139294, "FB": 1, "quest_estimate": 2.308794979055616, "trial_time": 2.684800572998938}
{"FBDuration": 0.5, "FBonset": 0, "ITI": 0.10822003184186701, "displayFB": true, "onset": 75.49011653533694, "punishment_amount": 0, "responseWindow": 1.5, "reward_amount": 1, "stim": {"motionDirection": "in", "oriBase": -60, "oriDirection": -1, "oriStrength": "medium", "speedDirection": -1, "speedStrength": "medium", "speed_start": 0.12, "speed_end": 0.11799656826740582, "ori_start": -60, "ori_end": -61.460001612716994, "motion_direction": "in"}, "stimResponseInterval": 0.9070430987868798, "stimulusDuration": 1.5, "trial_count": 17, "ts": "orientation", "exp_stage": "adaptive_procedure", "decision_var": 1.4600016127169972, "response": "right", "rt": 0.22613377698871773, "FB": 0, "quest_estimate": 3.9299069655088132, "trial_time": 3.1673853959946427}
{"FBDuration": 0.5, "FBonset": 0, "ITI": 0.5295866247421208, "displayFB": true, "onset": 80.00537966596569, "punishment_amount": 0, "responseWindow": 1.5, "reward_amount": 1, "stim": {"motionDirection": "in", "oriBase": 30, "oriDirection": -1, "oriStrength": "medium", "speedDirection": 1, "speedStrength": "medium", "speed_start": 0.12, "speed_end": 0.12200343173259418, "ori_start": 30, "ori_end": 27.883603685727266, "motion_direction": "in"}, "stimResponseInterval": 0.8864427116380693, "stimulusDuration": 1.5, "trial_count": 18, "ts": "orientation", "exp_stage": "adaptive_procedure", "decision_var": 2.116396314272734, "response": "left", "rt": 0.3439736810105387, "FB": 1, "quest_estimate": 3.131224459774522, "trial_time": 3.267122481993283}
{"FBDuration": 0.5, "FBonset": 0, "ITI": 0.13997452172079694, "displayFB": true, "onset": 84.92140900234588, "punishment_amount": 0, "responseWindow": 1.5, "reward_amount": 1, "stim": {"motionDirection": "in", "oriBase": -60, "oriDirection": -1, "oriStrength": "medium", "speedDirection": 1, "speedStrength": "medium", "speed_start": 0.12, "speed_end": 0.12200343173259418, "ori_start": -60, "ori_end": -61.87481891918671, "motion_direction": "in"}, "stimResponseInterval": 0.039522509029335406, "stimulusDuration": 1.5, "trial_count": 19, "ts": "orientation", "exp_stage": "adaptive_procedure", "decision_var": 1.8748189191867084, "response": "right", "rt": 0.40013460599584505, "FB": 0, "quest_estimate": 5.163746733940467, "trial_time": 2.4950106470059836}
{"FBDuration": 0.5, "FBonset": 0, "ITI": 0.5954545836726177, "displayFB": true, "onset": 88.60090603309601, "punishment_amount": 0, "responseWindow": 1.5, "reward_amount": 1, "stim": {"motionDirection": "in", "oriBase": 30, "oriDirection": -1, "oriStrength": "medium", "speedDirection": -1, "speedStrength": "medium", "speed_start": 0.12, "speed_end": 0.11799656826740582, "ori_start": 30, "ori_end": 27.15983897554683, "motion_direction": "in"}, "stimResponseInterval": 0.09366510075823353, "stimulusDuration": 1.5, "trial_count": 20, "ts": "orientation", "exp_stage": "adaptive_procedure", "decision_var": 2.8401610244531703, "response": "left", "rt": 0.33484220498939976, "FB": 1, "quest_estimate": 4.066505409215935, "trial_time": 2.455946303001838}
{"FBDuration": 0.5, "FBonset": 0, "ITI": 0.014489988086455852, "displayFB": true, "onset": 92.79002571752686, "punishment_amount": 0, "responseWindow": 1.5, "reward_amount": 1, "stim": {"motionDirection": "out", "oriBase": -60, "oriDirection": -1, "oriStrength": "medium", "speedDirection": -1, "speedStrength": "medium", "speed_start": 0.12, "speed_end": 0.11799656826740582, "ori_start": -60, "ori_end": -62.34993027880968, "motion_direction": "out"}, "stimResponseInterval": 0.7580220983195272, "stimulusDuration": 1.5, "trial_count": 21, "ts": "orientation", "exp_stage": "adaptive_procedure", "decision_var": 2.3499302788096834, "response": "left", "rt": 0.3363195700076176, "FB": 1, "quest_estimate": 3.3412188622017425, "trial_time": 3.1564337040035753}
{"FBDuration": 0.5, "FBonset": 0, "ITI": 0.17798508897441956, "displayFB": true, "onset": 97.06253780393284, "punishment_amount": 0, "responseWindow": 1.5, "reward_amount": 1, "stim": {"motionDirection": "in", "oriBase": 30, "oriDirection": -1, "oriStrength": "medium", "speedDirection": -1, "speedStrength": "medium", "speed_start": 0.12, "speed_end": 0.11799656826740582, "ori_start": 30, "ori_end": 27.88338817359441, "motion_direction": "in"}, "stimResponseInterval": 0.9723580506766298, "stimulusDuration": 1.5, "trial_count": 22, "ts": "orientation", "exp_stage": "adaptive_procedure", "decision_var": 2.1166118264055918, "response": "left", "rt": 0.3182772869913606, "FB": 1, "quest_estimate": 2.875452627600506, "trial_time": 3.323246387997642}
{"FBDuration": 0.5, "FBonset": 0, "ITI": 0.5126397019101185, "displayFB": true, "onset": 101.71288094358388, "punishment_amount": 0, "responseWindow": 1.5, "reward_amount": 1, "stim": {"motionDirection": "out", "oriBase": 30, "oriDirection": 1, "oriStrength": "medium", "speedDirection": -1, "speedStrength": "medium", "speed_start": 0.12, "speed_end": 0.11799656826740582, "ori_start": 30, "ori_end": 32.02879604587693, "motion_direction": "out"}, "stimResponseInterval": 0.6689240301458965, "stimulusDuration": 1.5, "trial_count": 23, "ts": "orientation", "exp_stage": "adaptive_procedure", "decision_var": 2.028796045876927, "response": "right", "rt": 0.35522694198880345, "FB": 1, "quest_estimate": 2.5713545955263513, "trial_time": 3.0783725990040693}
{"FBDuration": 0.5, "FBonset": 0, "ITI": 0.4630575831798145, "displayFB": true, "onset": 106.3944446756399, "punishment_amount": 0, "responseWindow": 1.5, "reward_amount": 1, "stim": {"motionDirection": "out", "oriBase": 30, "oriDirection": -1, "oriStrength": "medium", "speedDirection": 1, "speedStrength": "medium", "speed_start": 0.12, "speed_end": 0.12200343173259418, "ori_start": 30, "ori_end": 28.025849243968, "motion_direction": "out"}, "stimResponseInterval": 0.3388567109350533, "stimulusDuration": 1.5, "trial_count": 24, "ts": "orientation", "exp_stage": "adaptive_procedure", "decision_var": 1.9741507560319995, "response": "left", "rt": 0.28043967799749225, "FB": 1, "quest_estimate": 2.334442323767238, "trial_time": 2.6785384160029935}
{"FBDuration": 0.5, "FBonset": 0, "ITI": 0.2874231186552224, "displayFB": true, "onset": 110.69635896975477, "punishment_amount": 0, "responseWindow": 1.5, "reward_amount": 1, "stim": {"motionDirection": "out", "oriBase": 30, "oriDirection": 1, "oriStrength": "medium", "speedDirection": -1, "speedStrength": "medium", "speed_start": 0.12, "speed_end": 0.11799656826740582, "ori_start": 30, "ori_end": 31.935936150504336, "motion_direction": "out"}, "stimResponseInterval": 0.7265924498221163, "stimulusDuration": 1.5, "trial_count": 25, "ts": "orientation", "exp_stage": "adaptive_procedure", "decision_var": 1.935936150504336, "response": "left", "rt": 0.2456316820025677, "FB": 0, "quest_estimate": 2.696456614936327, "trial_time": 3.0091268649994163}
{"FBDuration": 0.5, "FBonset": 0, "ITI": 0.420702446843205, "displayFB": true, "onset": 115.2103745382321, "punishment_amount": 0, "responseWindow": 1.5, "reward_amount": 1, "stim": {"motionDirection": "in", "oriBase": -60, "oriDirection": -1, "oriStrength": "medium", "speedDirection": -1, "speedStrength": "medium", "speed_start": 0.12, "speed_end": 0.11799656826740582, "ori_start": -60, "ori_end": -62.005737784367824, "motion_direction": "in"}, "stimResponseInterval": 0.6785258577577968, "stimulusDuration": 1.5, "trial_count": 26, "ts": "orientation", "exp_stage": "adaptive_procedure", "decision_var": 2.005737784367824, "response": "right", "rt": 0.2717419980035629, "FB": 0, "quest_estimate": 3.3419670041932967, "trial_time": 2.9834675879974384}
{"FBDuration": 0.5, "FBonset": 0, "ITI": 0.7246393202113253, "displayFB": true, "onset": 119.8096028428331, "punishment_amount": 0, "responseWindow": 1.5, "reward_amount": 1, "stim": {"motionDirection": "in", "oriBase": -60, "oriDirection": 1, "oriStrength": "medium", "speedDirection": 1, "speedStrength": "medium", "speed_start": 0.12, "speed_end": 0.12200343173259418, "ori_start": -60, "ori_end": -57.86289016668374, "motion_direction": "in"}, "stimResponseInterval": 0.1395516866659946, "stimulusDuration": 1.5, "trial_count": 27, "ts": "orientation", "exp_stage": "adaptive_procedure", "decision_var": 2.1371098333162593, "response": "right", "rt": 0.40066775000013877, "FB": 1, "quest_estimate": 2.936889205273566, "trial_time": 2.5740324310027063}
{"FBDuration": 0.5, "FBonset": 0, "ITI": 0.9652890848519782, "displayFB": true, "onset": 124.17379384971042, "punishment_amount": 0, "responseWindow": 1.5, "reward_amount": 1, "stim": {"motionDirection": "in", "oriBase": 30, "oriDirection": 1, "oriStrength": "medium", "speedDirection": -1, "speedStrength": "medium", "speed_start": 0.12, "speed_end": 0.11799656826740582, "ori_start": 30, "ori_end": 32.07088783998725, "motion_direction": "in"}, "stimResponseInterval": 0.5637518297701982, "stimulusDuration": 1.5, "trial_count": 28, "ts": "orientation", "exp_stage": "adaptive_procedure", "decision_var": 2.070887839987247, "response": "right", "rt": 0.31184538299567066, "FB": 1, "quest_estimate": 2.618671514650213, "trial_time": 2.9158869969978696}
{"FBDuration": 0.5, "FBonset": 0, "ITI": 0.2529425775858687, "displayFB": true, "onset": 129.2028347643326, "punishment_amount": 0, "responseWindow": 1.5, "reward_amount": 1, "stim": {"motionDirection": "in", "oriBase": -60, "oriDirection": -1, "oriStrength": "medium", "speedDirection": -1, "speedStrength": "medium", "speed_start": 0.12, "speed_end": 0.11799656826740582, "ori_start": -60, "ori_end": -62.03087528120953, "motion_direction": "in"}, "stimResponseInterval": 0.5013937904228754, "stimulusDuration": 1.5, "trial_count": 29, "ts": "orientation", "exp_stage": "adaptive_procedure", "decision_var": 2.0308752812095356, "response": "right", "rt": 0.2679688069911208, "FB": 0, "quest_estimate": 3.0447955320025706, "trial_time": 2.798859980990528}
{"FBDuration": 0.5, "FBonset": 0, "ITI": 0.36567374387937823, "displayFB": true, "onset": 133.45717113234136, "punishment_amount": 0, "responseWindow": 1.5, "reward_amount": 1, "stim": {"motionDirection": "in", "oriBase": -60, "oriDirection": -1, "oriStrength": "medium", "speedDirection": -1, "speedStrength": "medium", "speed_start": 0.12, "speed_end": 0.11799656826740582, "ori_start": -60, "ori_end": -62.09402630812495, "motion_direction": "in"}, "stimResponseInterval": 0.39014419923841404, "stimulusDuration": 1.5, "trial_count": 30, "ts": "orientation", "exp_stage": "adaptive_procedure", "decision_var": 2.094026308124949, "response": "right", "rt": 0.3263093679997837, "FB": 0, "quest_estimate": 3.9476274241269387, "trial_time": 2.7611562840029364}
{"FBDuration": 0.5, "FBonset": 0, "ITI": 0.18603469724390442, "displayFB": true, "onset": 137.71298907545915, "punishment_amount": 0, "responseWindow": 1.5, "reward_amount": 1, "stim": {"motionDirection": "out", "oriBase": -60, "oriDirection": -1, "oriStrength": "medium", "speedDirection": -1, "speedStrength": "medium", "speed_start": 0.12, "speed_end": 0.11799656826740582, "ori_start": -60, "ori_end": -62.306106570122864, "motion_direction": "out"}, "stimResponseInterval": 0.22814165931491281, "stimulusDuration": 1.5, "trial_count": 31, "ts": "orientation", "exp_stage": "adaptive_procedure", "decision_var": 2.3061065701228642, "response": "right", "rt": 0.5254955690033967, "FB": 0, "quest_estimate": 6.030108114702806, "trial_time": 2.7905235810030717}
{"FBDuration": 0.5, "FBonset": 0, "ITI": 0.7821773884120731, "displayFB": true, "onset": 141.62716543201796, "punishment_amount": 0, "responseWindow": 1.5, "reward_amount": 1, "stim": {"motionDirection": "out", "oriBase": 30, "oriDirection": -1, "oriStrength": "medium", "speedDirection": 1, "speedStrength": "medium", "speed_start": 0.12, "speed_end": 0.12200343173259418, "ori_start": 30, "ori_end": 26.738997292704465, "motion_direction": "out"}, "stimResponseInterval": 0.007310260760815646, "stimulusDuration": 1.5, "trial_count": 32, "ts": "orientation", "exp_stage": "adaptive_procedure", "decision_var": 3.2610027072955354, "response": "left", "rt": 0.4175950500066392, "FB": 1, "quest_estimate": 4.757164921863247, "trial_time": 2.4759962419921067}
{"FBDuration": 0.5, "FBonset": 0, "ITI": 0.9403174283450837, "displayFB": true, "onset": 145.91665308119084, "punishment_amount": 0, "responseWindow": 1.5, "reward_amount": 1, "stim": {"motionDirection": "out", "oriBase": 30, "oriDirection": 1, "oriStrength": "medium", "speedDirection": -1, "speedStrength": "medium", "speed_start": 0.12, "speed_end": 0.11799656826740582, "ori_start": 30, "ori_end": 32.80950189603165, "motion_direction": "out"}, "stimResponseInterval": 0.4254397012089397, "stimulusDuration": 1.5, "trial_count": 33, "ts": "orientation", "exp_stage": "adaptive_procedure", "decision_var": 2.8095018960316445, "response": "left", "rt": 0.28481981200457085, "FB": 0, "quest_estimate": 7.726732761286403, "trial_time": 2.7467705070012016}
{"FBDuration": 0.5, "FBonset": 0, "ITI": 0.045473006361240076, "displayFB": true, "onset": 150.78241021074487, "punishment_amount": 0, "responseWindow": 1.5, "reward_amount": 1, "stim": {"motionDirection": "out", "oriBase": -60, "oriDirection": -1, "oriStrength": "medium", "speedDirection": 1, "speedStrength": "medium", "speed_start": 0.12, "speed_end": 0.12200343173259418, "ori_start": -60, "ori_end": -64.58852440833009, "motion_direction": "out"}, "stimResponseInterval": 0.06848305193733706, "stimulusDuration": 1.5, "trial_count": 34, "ts": "orientation", "exp_stage": "adaptive_procedure", "decision_var": 4.588524408330088, "response": "left", "rt": 0.3483862919965759, "FB": 1, "quest_estimate": 6.081577924041451, "trial_time": 2.449742309996509}
{"FBDuration": 0.5, "FBonset": 0, "ITI": 0.17995340777910862, "displayFB": true, "onset": 154.39636626904345, "punishment_amount": 0, "responseWindow": 1.5, "reward_amount": 1, "stim": {"motionDirection": "in", "oriBase": -60, "oriDirection": 1, "oriStrength": "medium", "speedDirection": 1, "speedStrength": "medium", "speed_start": 0.12, "speed_end": 0.12200343173259418, "ori_start": -60, "ori_end": -56.440096134017814, "motion_direction": "in"}, "stimResponseInterval": 0.6578396073251518, "stimulusDuration": 1.5, "trial_count": 35, "ts": "orientation", "exp_stage": "adaptive_procedure", "decision_var": 3.5599038659821858, "response": "left", "rt": 0.6126311849948252, "FB": 0, "quest_estimate": 10.381543778441117, "trial_time": 3.3175645820010686}
{"FBDuration": 0.5, "FBonset": 0, "ITI": 0.6342554023952465, "displayFB": true, "onset": 158.73415928414772, "punishment_amount": 0, "responseWindow": 1.5, "reward_amount": 1, "stim": {"motionDirection": "in", "oriBase": -60, "oriDirection": 1, "oriStrength": "medium", "speedDirection": -1, "speedStrength": "medium", "speed_start": 0.12, "speed_end": 0.11799656826740582, "ori_start": -60, "ori_end": -52.69437839499356, "motion_direction": "in"}, "stimResponseInterval": 0.9977070011769464, "stimulusDuration": 1.5, "trial_count": 36, "ts": "orientation", "exp_stage": "adaptive_procedure", "decision_var": 7.3056216050064435, "response": "right", "rt": 0.32026300799043383, "FB": 1, "quest_estimate": 8.287454656776376, "trial_time": 3.354090194989112}
{"FBDuration": 0.5, "FBonset": 0, "ITI": 0.9270402418063353, "displayFB": true, "onset": 163.86612168771993, "punishment_amount": 0, "responseWindow": 1.5, "reward_amount": 1, "stim": {"motionDirection": "out", "oriBase": 30, "oriDirection": -1, "oriStrength": "medium", "speedDirection": -1, "speedStrength": "medium", "speed_start": 0.12, "speed_end": 0.11799656826740582, "ori_start": 30, "ori_end": 24.39431750038074, "motion_direction": "out"}, "stimResponseInterval": 0.072722810694267, "stimulusDuration": 1.5, "trial_count": 37, "ts": "orientation", "exp_stage": "adaptive_procedure", "decision_var": 5.60568249961926, "response": "left", "rt": 0.2958330749970628, "FB": 1, "quest_estimate": 6.805965380790088, "trial_time": 2.414743131987052}
{"FBDuration": 0.5, "FBonset": 0, "ITI": 0.197380495637827, "displayFB": true, "onset": 168.36588474022054, "punishment_amount": 0, "responseWindow": 1.5, "reward_amount": 1, "stim": {"motionDirection": "out", "oriBase": -60, "oriDirection": 1, "oriStrength": "medium", "speedDirection": -1, "speedStrength": "medium", "speed_start": 0.12, "speed_end": 0.11799656826740582, "ori_start": -60, "ori_end": -55.369469365592536, "motion_direction": "out"}, "stimResponseInterval": 0.7307663562083253, "stimulusDuration": 1.5, "trial_count": 38, "ts": "orientation", "exp_stage": "adaptive_procedure", "decision_var": 4.630530634407467, "response": "right", "rt": 0.4932507419871399, "FB": 1, "quest_estimate": 5.805158212497954, "trial_time": 3.2768950699974084}
{"FBDuration": 0.5, "FBonset": 0, "ITI": 0.9442471287000653, "displayFB": true, "onset": 172.7940315920667, "punishment_amount": 0, "responseWindow": 1.5, "reward_amount": 1, "stim": {"motionDirection": "in", "oriBase": 30, "oriDirection": 1, "oriStrength": "medium", "speedDirection": 1, "speedStrength": "medium", "speed_start": 0.12, "speed_end": 0.12200343173259418, "ori_start": 30, "ori_end": 34.3361569401779, "motion_direction": "in"}, "stimResponseInterval": 0.4538595051090867, "stimulusDuration": 1.5, "trial_count": 39, "ts": "orientation", "exp_stage": "adaptive_procedure", "decision_var": 4.336156940177897, "response": "left", "rt": 0.44165790600527544, "FB": 0, "quest_estimate": 8.131051583814074, "trial_time": 2.9330177689989796}
{"FBDuration": 0.5, "FBonset": 0, "ITI": 0.9291894657680362, "displayFB": true, "onset": 177.69213822587585, "punishment_amount": 0, "responseWindow": 1.5, "reward_amount": 1, "stim": {"motionDirection": "in", "oriBase": 30, "oriDirection": 1, "oriStrength": "medium", "speedDirection": 1, "speedStrength": "medium", "speed_start": 0.12, "speed_end": 0.12200343173259418, "ori_start": 30, "ori_end": 35.38068077735737, "motion_direction": "in"}, "stimResponseInterval": 0.4662927852947619, "stimulusDuration": 1.5, "trial_count": 40, "ts": "orientation", "exp_stage": "adaptive_procedure", "decision_var": 5.380680777357373, "response": "right", "rt": 0.33395916799781844, "FB": 1, "quest_estimate": 6.832524038775425, "trial_time": 2.8458346929983236}
{"FBDuration": 0.5, "FBonset": 0, "ITI": 0.9562079598055027, "displayFB": true, "onset": 182.58762047693864, "punishment_amount": 0, "responseWindow": 1.5, "reward_amount": 1, "stim": {"motionDirection": "in", "oriBase": 30, "oriDirection": -1, "oriStrength": "medium", "speedDirection": 1, "speedStrength": "medium", "speed_start": 0.12, "speed_end": 0.12200343173259418, "ori_start": 30, "ori_end": 25.19942856397852, "motion_direction": "in"}, "stimResponseInterval": 0.4250933966169106, "stimulusDuration": 1.5, "trial_count": 41, "ts": "orientation", "exp_stage": "adaptive_procedure", "decision_var": 4.800571436021482, "response": "left", "rt": 0.2934872979967622, "FB": 1, "quest_estimate": 5.9753213888749706, "trial_time": 2.7488311999914004}
{"FBDuration": 0.5, "FBonset": 0, "ITI": 0.0018533811224950014, "displayFB": true, "onset": 187.46892183336107, "punishment_amount": 0, "responseWindow": 1.5, "reward_amount": 1, "stim": {"motionDirection": "in", "oriBase": -60, "oriDirection": 1, "oriStrength": "medium", "speedDirection": 1, "speedStrength": "medium", "speed_start": 0.12, "speed_end": 0.12200343173259418, "ori_start": -60, "ori_end": -55.42500245719751, "motion_direction": "in"}, "stimResponseInterval": 0.2924883342507455, "stimulusDuration": 1.5, "trial_count": 42, "ts": "orientation", "exp_stage": "adaptive_procedure", "decision_var": 4.574997542802496, "response": "right", "rt": 0.2805740219919244, "FB": 1, "quest_estimate": 5.415907649507318, "trial_time": 2.603425031004008}
{"FBDuration": 0.5, "FBonset": 0, "ITI": 0.3039806410235556, "displayFB": true, "onset": 191.2632635487343, "punishment_amount": 0, "responseWindow": 1.5, "reward_amount": 1, "stim": {"motionDirection": "out", "oriBase": -60, "oriDirection": 1, "oriStrength": "medium", "speedDirection": 1, "speedStrength": "medium", "speed_start": 0.12, "speed_end": 0.12200343173259418, "ori_start": -60, "ori_end": -55.51435223857569, "motion_direction": "out"}, "stimResponseInterval": 0.8944465120957816, "stimulusDuration": 1.5, "trial_count": 43, "ts": "orientation", "exp_stage": "adaptive_procedure", "decision_var": 4.48564776142431, "response": "right", "rt": 0.23421547199541237, "FB": 1, "quest_estimate": 5.051995937429979, "trial_time": 3.188023938011611}
{"FBDuration": 0.5, "FBonset": 0, "ITI": 0.5054799140825263, "displayFB": true, "onset": 195.96169070185363, "punishment_amount": 0, "responseWindow": 1.5, "reward_amount": 1, "stim": {"motionDirection": "in", "oriBase": 30, "oriDirection": 1, "oriStrength": "medium", "speedDirection": -1, "speedStrength": "medium", "speed_start": 0.12, "speed_end": 0.11799656826740582, "ori_start": 30, "ori_end": 34.433903961785006, "motion_direction": "in"}, "stimResponseInterval": 0.6018395169644934, "stimulusDuration": 1.5, "trial_count": 44, "ts": "orientation", "exp_stage": "adaptive_procedure", "decision_var": 4.433903961785003, "response": "right", "rt": 0.22689381000236608, "FB": 1, "quest_estimate": 4.823897681049377, "trial_time": 2.863942291995045}
{"FBDuration": 0.5, "FBonset": 0, "ITI": 0.4182525970707123, "displayFB": true, "onset": 200.56901013290064, "punishment_amount": 0, "responseWindow": 1.5, "reward_amount": 1, "stim": {"motionDirection": "in", "oriBase": -60, "oriDirection": 1, "oriStrength": "medium", "speedDirection": -1, "speedStrength": "medium", "speed_start": 0.12, "speed_end": 0.11799656826740582, "ori_start": -60, "ori_end": -55.61116716012147, "motion_direction": "in"}, "stimResponseInterval": 0.6134519631593973, "stimulusDuration": 1.5, "trial_count": 45, "ts": "orientation", "exp_stage": "adaptive_procedure", "decision_var": 4.388832839878532, "response": "right", "rt": 0.2588863720011432, "FB": 1, "quest_estimate": 4.644002326501372, "trial_time": 2.9262754900119035}
{"FBDuration": 0.5, "FBonset": 0, "ITI": 0.6293282531253714, "displayFB": true, "onset": 205.10071469313075, "punishment_amount": 0, "responseWindow": 1.5, "reward_amount": 1, "stim": {"motionDirection": "out", "oriBase": 30, "oriDirection": -1, "oriStrength": "medium", "speedDirection": -1, "speedStrength": "medium", "speed_start": 0.12, "speed_end": 0.11799656826740582, "ori_start": 30, "ori_end": 25.64424280271869, "motion_direction": "out"}, "stimResponseInterval": 0.8491872272234169, "stimulusDuration": 1.5, "trial_count": 46, "ts": "orientation", "exp_stage": "adaptive_procedure", "decision_var": 4.35575719728131, "response": "left", "rt": 0.242789449999691, "FB": 1, "quest_estimate": 4.509580798993149, "trial_time": 3.140131449996261}
{"FBDuration": 0.5, "FBonset": 0, "ITI": 0.5482900475823858, "displayFB": true, "onset": 210.07923017347954, "punishment_amount": 0, "responseWindow": 1.5, "reward_amount": 1, "stim": {"motionDirection": "in", "oriBase": 30, "oriDirection": -1, "oriStrength": "medium", "speedDirection": -1, "speedStrength": "medium", "speed_start": 0.12, "speed_end": 0.11799656826740582, "ori_start": 30, "ori_end": 25.674698987882085, "motion_direction": "in"}, "stimResponseInterval": 0.5572688596429745, "stimulusDuration": 1.5, "trial_count": 47, "ts": "orientation", "exp_stage": "adaptive_procedure", "decision_var": 4.325301012117915, "response": "left", "rt": 0.268506715001422, "FB": 1, "quest_estimate": 4.421968226606598, "trial_time": 2.864451781992102}
{"FBDuration": 0.5, "FBonset": 0, "ITI": 0.09253529031323726, "displayFB": true, "onset": 214.68478908070492, "punishment_amount": 0, "responseWindow": 1.5, "reward_amount": 1, "stim": {"motionDirection": "in", "oriBase": 30, "oriDirection": 1, "oriStrength": "medium", "speedDirection": -1, "speedStrength": "medium", "speed_start": 0.12, "speed_end": 0.11799656826740582, "ori_start": 30, "ori_end": 34.294565857589404, "motion_direction": "in"}, "stimResponseInterval": 0.5472558433778238, "stimulusDuration": 1.5, "trial_count": 48, "ts": "orientation", "exp_stage": "adaptive_procedure", "decision_var": 4.294565857589404, "response": "right", "rt": 0.35435719600354787, "FB": 1, "quest_estimate": 4.3485957056876074, "trial_time": 2.963281331001781}
{"FBDuration": 0.5, "FBonset": 0, "ITI": 0.9264332799461155, "displayFB": true, "onset": 218.82458021439598, "punishment_amount": 0, "responseWindow": 1.5, "reward_amount": 1, "stim": {"motionDirection": "in", "oriBase": 30, "oriDirection": -1, "oriStrength": "medium", "speedDirection": -1, "speedStrength": "medium", "speed_start": 0.12, "speed_end": 0.11799656826740582, "ori_start": 30, "ori_end": 25.728750956422687, "motion_direction": "in"}, "stimResponseInterval": 0.5838676351866479, "stimulusDuration": 1.5, "trial_count": 49, "ts": "orientation", "exp_stage": "adaptive_procedure", "decision_var": 4.271249043577313, "response": "left", "rt": 0.2551306710083736, "FB": 1, "quest_estimate": 4.287955234681224, "trial_time": 2.886810301002697}
{"FBDuration": 0.5, "FBonset": 0, "ITI": 0.11700077180404311, "displayFB": true, "onset": 223.83488112952875, "punishment_amount": 0, "responseWindow": 1.5, "reward_amount": 1, "stim": {"motionDirection": "out", "oriBase": 30, "oriDirection": -1, "oriStrength": "medium", "speedDirection": -1, "speedStrength": "medium", "speed_start": 0.12, "speed_end": 0.11799656826740582, "ori_start": 30, "ori_end": 25.750262384972174, "motion_direction": "out"}, "stimResponseInterval": 0.0716951861573053, "stimulusDuration": 1.5, "trial_count": 50, "ts": "orientation", "exp_stage": "adaptive_procedure", "decision_var": 4.249737615027826, "response": "right", "rt": 0.5175616659980733, "FB": 0, "quest_estimate": 4.421197358944475, "trial_time": 2.644597751001129}
{"FBDuration": 0.5, "FBonset": 0, "ITI": 0.5153537544872075, "displayFB": true, "onset": 227.5235770874901, "punishment_amount": 0, "responseWindow": 1.5, "reward_amount": 1, "stim": {"motionDirection": "in", "oriBase": -60, "oriDirection": 1, "oriStrength": "medium", "speedDirection": 1, "speedStrength": "medium", "speed_start": 0.12, "speed_end": 0.12200343173259418, "ori_start": -60, "ori_end": -55.70798480673864, "motion_direction": "in"}, "stimResponseInterval": 0.4067244776488008, "stimulusDuration": 1.5, "trial_count": 51, "ts": "orientation", "exp_stage": "adaptive_procedure", "decision_var": 4.29201519326136, "response": "right", "rt": 0.29913970599591266, "FB": 1, "quest_estimate": 4.3737320284135315, "trial_time": 2.7319269410072593}
{"FBDuration": 0.5, "FBonset": 0, "ITI": 0.023994757457774907, "displayFB": true, "onset": 231.94565531962613, "punishment_amount": 0, "responseWindow": 1.5, "reward_amount": 1, "stim": {"motionDirection": "out", "oriBase": 30, "oriDirection": -1, "oriStrength": "medium", "speedDirection": 1, "speedStrength": "medium", "speed_start": 0.12, "speed_end": 0.12200343173259418, "ori_start": 30, "ori_end": 25.724120188358732, "motion_direction": "out"}, "stimResponseInterval": 0.6811530778669677, "stimulusDuration": 1.5, "trial_count": 52, "ts": "orientation", "exp_stage": "adaptive_procedure", "decision_var": 4.275879811641268, "response": "left", "rt": 0.26769250600773375, "FB": 1, "quest_estimate": 4.33621452634851, "trial_time": 2.997922415001085}
{"FBDuration": 0.5, "FBonset": 0, "ITI": 0.4999692162903341, "displayFB": true, "onset": 236.15080315495086, "punishment_amount": 0, "responseWindow": 1.5, "reward_amount": 1, "stim": {"motionDirection": "in", "oriBase": 30, "oriDirection": 1, "oriStrength": "medium", "speedDirection": 1, "speedStrength": "medium", "speed_start": 0.12, "speed_end": 0.12200343173259418, "ori_start": 30, "ori_end": 34.261512714707095, "motion_direction": "in"}, "stimResponseInterval": 0.5346924650353557, "stimulusDuration": 1.5, "trial_count": 53, "ts": "orientation", "exp_stage": "adaptive_procedure", "decision_var": 4.2615127147070915, "response": "left", "rt": 0.5948915900080465, "FB": 0, "quest_estimate": 4.442869874373979, "trial_time": 3.1859608399972785}
{"FBDuration": 0.5, "FBonset": 0, "ITI": 0.8045086632613354, "displayFB": true, "onset": 240.68546483627657, "punishment_amount": 0, "responseWindow": 1.5, "reward_amount": 1, "stim": {"motionDirection": "out", "oriBase": 30, "oriDirection": -1, "oriStrength": "medium", "speedDirection": -1, "speedStrength": "medium", "speed_start": 0.12, "speed_end": 0.11799656826740582, "ori_start": 30, "ori_end": 25.689486478876695, "motion_direction": "out"}, "stimResponseInterval": 0.1131923338030022, "stimulusDuration": 1.5, "trial_count": 54, "ts": "orientation", "exp_stage": "adaptive_procedure", "decision_var": 4.310513521123305, "response": "left", "rt": 0.35342889800085686, "FB": 1, "quest_estimate": 4.40016396435308, "trial_time": 2.5226738039928023}
{"FBDuration": 0.5, "FBonset": 0, "ITI": 0.9338021468728024, "displayFB": true, "onset": 245.1031658333409, "punishment_amount": 0, "responseWindow": 1.5, "reward_amount": 1, "stim": {"motionDirection": "out", "oriBase": -60, "oriDirection": -1, "oriStrength": "medium", "speedDirection": 1, "speedStrength": "medium", "speed_start": 0.12, "speed_end": 0.12200343173259418, "ori_start": -60, "ori_end": -64.29263055970253, "motion_direction": "out"}, "stimResponseInterval": 0.68812572124861, "stimulusDuration": 1.5, "trial_count": 55, "ts": "orientation", "exp_stage": "adaptive_procedure", "decision_var": 4.292630559702523, "response": "right", "rt": 0.6412517669959925, "FB": 0, "quest_estimate": 4.49595894684121, "trial_time": 3.3791874529997585}
{"FBDuration": 0.5, "FBonset": 0, "ITI": 0.3983704423646819, "displayFB": true, "onset": 250.22509370146233, "punishment_amount": 0, "responseWindow": 1.5, "reward_amount": 1, "stim": {"motionDirection": "out", "oriBase": -60, "oriDirection": -1, "oriStrength": "medium", "speedDirection": 1, "speedStrength": "medium", "speed_start": 0.12, "speed_end": 0.12200343173259418, "ori_start": -60, "ori_end": -64.33892813571408, "motion_direction": "out"}, "stimResponseInterval": 0.7011247412904811, "stimulusDuration": 1.5, "trial_count": 56, "ts": "orientation", "exp_stage": "adaptive_procedure", "decision_var": 4.338928135714081, "response": "left", "rt": 0.3470865419949405, "FB": 1, "quest_estimate": 4.448954719689141, "trial_time": 3.103935266000917}
{"FBDuration": 0.5, "FBonset": 0, "ITI": 0.9232966446722255, "displayFB": true, "onset": 254.8245888851175, "punishment_amount": 0, "responseWindow": 1.5, "reward_amount": 1, "stim": {"motionDirection": "out", "oriBase": 30, "oriDirection": 1, "oriStrength": "medium", "speedDirection": 1, "speedStrength": "medium", "speed_start": 0.12, "speed_end": 0.12200343173259418, "ori_start": 30, "ori_end": 34.3222107330176, "motion_direction": "out"}, "stimResponseInterval": 0.11924770317978084, "stimulusDuration": 1.5, "trial_count": 57, "ts": "orientation", "exp_stage": "adaptive_procedure", "decision_var": 4.322210733017602, "response": "right", "rt": 0.33900855100364424, "FB": 1, "quest_estimate": 4.410705070707333, "trial_time": 2.487856081002974}
{"FBDuration": 0.5, "FBonset": 0, "ITI": 0.08369389502306324, "displayFB": true, "onset": 259.3671332329695, "punishment_amount": 0, "responseWindow": 1.5, "reward_amount": 1, "stim": {"motionDirection": "in", "oriBase": -60, "oriDirection": -1, "oriStrength": "medium", "speedDirection": 1, "speedStrength": "medium", "speed_start": 0.12, "speed_end": 0.12200343173259418, "ori_start": -60, "ori_end": -64.30351054508427, "motion_direction": "in"}, "stimResponseInterval": 0.8606067557346408, "stimulusDuration": 1.5, "trial_count": 58, "ts": "orientation", "exp_stage": "adaptive_procedure", "decision_var": 4.3035105450842615, "response": "left", "rt": 0.2116283299983479, "FB": 1, "quest_estimate": 4.379837470079934, "trial_time": 3.1169574219966307}
{"FBDuration": 0.5, "FBonset": 0, "ITI": 0.3696282793712069, "displayFB": true, "onset": 263.8114338837272, "punishment_amount": 0, "responseWindow": 1.5, "reward_amount": 1, "stim": {"motionDirection": "out", "oriBase": 30, "oriDirection": 1, "oriStrength": "medium", "speedDirection": 1, "speedStrength": "medium", "speed_start": 0.12, "speed_end": 0.12200343173259418, "ori_start": 30, "ori_end": 34.290860900957014, "motion_direction": "out"}, "stimResponseInterval": 0.41615151180600685, "stimulusDuration": 1.5, "trial_count": 59, "ts": "orientation", "exp_stage": "adaptive_procedure", "decision_var": 4.290860900957011, "response": "right", "rt": 0.24312851000286173, "FB": 1, "quest_estimate": 4.354995666862717, "trial_time": 2.7081818349979585}
{"FBDuration": 0.5, "FBonset": 0, "ITI": 0.8297792263132524, "displayFB": true, "onset": 268.0972136749044, "punishment_amount": 0, "responseWindow": 1.5, "reward_amount": 1, "stim": {"motionDirection": "in", "oriBase": -60, "oriDirection": 1, "oriStrength": "medium", "speedDirection": -1, "speedStrength": "medium", "speed_start": 0.12, "speed_end": 0.11799656826740582, "ori_start": -60, "ori_end": -55.718530617452785, "motion_direction": "in"}, "stimResponseInterval": 0.721620451152384, "stimulusDuration": 1.5, "trial_count": 60, "ts": "orientation", "exp_stage": "adaptive_procedure", "decision_var": 4.281469382547215, "response": "right", "rt": 0.24679263899452053, "FB": 1, "quest_estimate": 4.334933929974678, "trial_time": 3.0149985489988467}
{"FBDuration": 0.5, "FBonset": 0, "ITI": 0.22852231423776503, "displayFB": true, "onset": 273.14861335237003, "punishment_amount": 0, "responseWindow": 1.5, "reward_amount": 1, "stim": {"motionDirection": "out", "oriBase": -60, "oriDirection": 1, "oriStrength": "medium", "speedDirection": 1, "speedStrength": "medium", "speed_start": 0.12, "speed_end": 0.12200343173259418, "ori_start": -60, "ori_end": -55.7265955114046, "motion_direction": "out"}, "stimResponseInterval": 0.5132312198187612, "stimulusDuration": 1.5, "trial_count": 61, "ts": "orientation", "exp_stage": "adaptive_procedure", "decision_var": 4.2734044885954034, "response": "right", "rt": 0.25510239000141155, "FB": 1, "quest_estimate": 4.318573621450625, "trial_time": 2.8289202279993333}
{"FBDuration": 0.5, "FBonset": 0, "ITI": 0.2056866833508364, "displayFB": true, "onset": 277.39036688642653, "punishment_amount": 0, "responseWindow": 1.5, "reward_amount": 1, "stim": {"motionDirection": "out", "oriBase": 30, "oriDirection": 1, "oriStrength": "medium", "speedDirection": 1, "speedStrength": "medium", "speed_start": 0.12, "speed_end": 0.12200343173259418, "ori_start": 30, "ori_end": 34.26624679290403, "motion_direction": "out"}, "stimResponseInterval": 0.6548020616645482, "stimulusDuration": 1.5, "trial_count": 62, "ts": "orientation", "exp_stage": "adaptive_procedure", "decision_var": 4.2662467929040275, "response": "left", "rt": 0.23355035799613688, "FB": 0, "quest_estimate": 4.364096399101683, "trial_time": 2.9240239070059033}
{"FBDuration": 0.5, "FBonset": 0, "ITI": 0.3484467306287319, "displayFB": true, "onset": 281.75085563144194, "punishment_amount": 0, "responseWindow": 1.5, "reward_amount": 1, "stim": {"motionDirection": "in", "oriBase": -60, "oriDirection": 1, "oriStrength": "medium", "speedDirection": -1, "speedStrength": "medium", "speed_start": 0.12, "speed_end": 0.11799656826740582, "ori_start": -60, "ori_end": -55.71145581766616, "motion_direction": "in"}, "stimResponseInterval": 0.5456649359162817, "stimulusDuration": 1.5, "trial_count": 63, "ts": "orientation", "exp_stage": "adaptive_procedure", "decision_var": 4.28854418233384, "response": "right", "rt": 0.24406174199248198, "FB": 1, "quest_estimate": 4.3459845007389895, "trial_time": 2.8486999239976285}
{"FBDuration": 0.5, "FBonset": 0, "ITI": 0.9812654211641367, "displayFB": true, "onset": 286.14496729798697, "punishment_amount": 0, "responseWindow": 1.5, "reward_amount": 1, "stim": {"motionDirection": "in", "oriBase": 30, "oriDirection": 1, "oriStrength": "medium", "speedDirection": -1, "speedStrength": "medium", "speed_start": 0.12, "speed_end": 0.11799656826740582, "ori_start": 30, "ori_end": 34.28098908829428, "motion_direction": "in"}, "stimResponseInterval": 0.8111250365984062, "stimulusDuration": 1.5, "trial_count": 64, "ts": "orientation", "exp_stage": "adaptive_procedure", "decision_var": 4.28098908829428, "response": "right", "rt": 0.2995531049964484, "FB": 1, "quest_estimate": 4.33119161711209, "trial_time": 3.143737295002211}
