{"FBDuration": 0.5, "FBonset": 0, "ITI": 0.5262552239913003, "displayFB": true, "onset": 2, "punishment_amount": 0, "responseWindow": 1.5, "reward_amount": 1, "stim": {"motionDirection": "in", "oriBase": 30, "oriDirection": 1, "oriStrength": 0.775, "speedDirection": 1, "speedStrength": 0.775, "speed_start": 0.12, "speed_end": 0.127161449792942, "ori_start": 30, "ori_end": 38.599697366328684, "motion_direction": "in"}, "stimResponseInterval": 0.5318886293037566, "stimulusDuration": 1.5, "trial_count": 1, "ts": "motion", "trial_type": "threshold_estimation", "exp_stage": "adaptive_procedure", "decision_var": 0.007161449792941997, "response": "up", "rt": 0.28442302299663424, "FB": 1, "quest_estimate": 0.0030204025767880047, "trial_time": 2.8513920630066423}
{"FBDuration": 0.5, "FBonset": 0, "ITI": 0.24320644749857523, "displayFB": true, "onset": 6.558143853295056, "punishment_amount": 0, "responseWindow": 1.5, "reward_amount": 1, "stim": {"motionDirection": "in", "oriBase": -60, "oriDirection": -1, "oriStrength": 0.775, "speedDirection": 1, "speedStrength": 0.775, "speed_start": 0.12, "speed_end": 0.12638363786354548, "ori_start": -60, "ori_end": -68.59969736632868, "motion_direction": "in"}, "stimResponseInterval": 0.617892434574024, "stimulusDuration": 1.5, "trial_count": 2, "ts": "motion", "trial_type": "threshold_estimation", "exp_stage": "adaptive_procedure", "decision_var": 0.006383637863545483, "response": "down", "rt": 0.40002444299898343, "FB": 0, "quest_estimate": 0.005678819879600942, "trial_time": 3.043922967000981}
{"FBDuration": 0.5, "FBonset": 0, "ITI": 0.126279326536349, "displayFB": true, "onset": 10.919242735367655, "punishment_amount": 0, "responseWindow": 1.5, "reward_amount": 1, "stim": {"motionDirection": "out", "oriBase": 30, "oriDirection": 1, "oriStrength": 0.775, "speedDirection": 1, "speedStrength": 0.775, "speed_start": 0.12, "speed_end": 0.1290839820243567, "ori_start": 30, "ori_end": 38.599697366328684, "motion_direction": "out"}, "stimResponseInterval": 0.294748682453729, "stimulusDuration": 1.5, "trial_count": 3, "ts": "motion", "trial_type": "threshold_estimation", "exp_stage": "adaptive_procedure", "decision_var": 0.009083982024356695, "response": "up", "rt": 0.29172088199993595, "FB": 1, "quest_estimate": 0.00491406723909206, "trial_time": 2.6162752859963803}
{"FBDuration": 0.5, "FBonset": 0, "ITI": 0.13098264717208263, "displayFB": true, "onset": 14.840270744357733, "punishment_amount": 0, "responseWindow": 1.5, "reward_amount": 1, "stim": {"motionDirection": "in", "oriBase": -60, "oriDirection": -1, "oriStrength": 0.775, "speedDirection": -1, "speedStrength": 0.775, "speed_start": 0.12, "speed_end": 0.11551201287729258, "ori_start": -60, "ori_end": -68.59969736632868, "motion_direction": "in"}, "stimResponseInterval": 0.9285739816820815, "stimulusDuration": 1.5, "trial_count": 4, "ts": "motion", "trial_type": "intensity-70", "exp_stage": "adaptive_procedure", "decision_var": 0.00448798712270741, "response": "up", "rt": 0.34177888200065354, "FB": 0, "quest_estimate": 0.007516367255956988, "trial_time": 3.295363503995759}
{"FBDuration": 0.5, "FBonset": 0, "ITI": 0.8468733090068323, "displayFB": true, "onset": 19.3998273732119, "punishment_amount": 0, "responseWindow": 1.5, "reward_amount": 1, "stim": {"motionDirection": "out", "oriBase": -60, "oriDirection": -1, "oriStrength": 0.775, "speedDirection": -1, "speedStrength": 0.775, "speed_start": 0.12, "speed_end": 0.10906254622983313, "ori_start": -60, "ori_end": -68.59969736632868, "motion_direction": "out"}, "stimResponseInterval": 0.16801146082776675, "stimulusDuration": 1.5, "trial_count": 5, "ts": "motion", "trial_type": "threshold_estimation", "exp_stage": "adaptive_procedure", "decision_var": 0.01093745377016686, "response": "up", "rt": 0.4380383059979067, "FB": 0, "quest_estimate": 0.010250293611214184, "trial_time": 2.6355270979984198}
{"FBDuration": 0.5, "FBonset": 0, "ITI": 0.2935514858639032, "displayFB": true, "onset": 23.914712143046497, "punishment_amount": 0, "responseWindow": 1.5, "reward_amount": 1, "stim": {"motionDirection": "in", "oriBase": -60, "oriDirection": 1, "oriStrength": 0.775, "speedDirection": -1, "speedStrength": 0.775, "speed_start": 0.12, "speed_end": 0.11551201287729258, "ori_start": -60, "ori_end": -51.400302633671316, "motion_direction": "in"}, "stimResponseInterval": 0.47628659224315983, "stimulusDuration": 1.5, "trial_count": 6, "ts": "motion", "trial_type": "intensity-70", "exp_stage": "adaptive_procedure", "decision_var": 0.00448798712270741, "response": "down", "rt": 0.27672754199738847, "FB": 1, "quest_estimate": 0.009464423396363442, "trial_time": 2.7830659019964514}
{"FBDuration": 0.5, "FBonset": 0, "ITI": 0.6893316310244635, "displayFB": true, "onset": 28.18455022115356, "punishment_amount": 0, "responseWindow": 1.5, "reward_amount": 1, "stim": {"motionDirection": "out", "oriBase": 30, "oriDirection": -1, "oriStrength": 0.775, "speedDirection": 1, "speedStrength": 0.775, "speed_start": 0.12, "speed_end": 0.13289840421253518, "ori_start": 30, "ori_end": 21.400302633671313, "motion_direction": "out"}, "stimResponseInterval": 0.7980279626716666, "stimulusDuration": 1.5, "trial_count": 7, "ts": "motion", "trial_type": "threshold_estimation", "exp_stage": "adaptive_procedure", "decision_var": 0.012898404212535193, "response": "up", "rt": 0.3152526440026122, "FB": 1, "quest_estimate": 0.008688920620973442, "trial_time": 3.1392808810051065}
{"FBDuration": 0.5, "FBonset": 0, "ITI": 0.7772719679015796, "displayFB": true, "onset": 33.17190981484969, "punishment_amount": 0, "responseWindow": 1.5, "reward_amount": 1, "stim": {"motionDirection": "out", "oriBase": 30, "oriDirection": 1, "oriStrength": 0.775, "speedDirection": -1, "speedStrength": 0.775, "speed_start": 0.12, "speed_end": 0.1089915609299692, "ori_start": 30, "ori_end": 38.599697366328684, "motion_direction": "out"}, "stimResponseInterval": 0.9750391191331937, "stimulusDuration": 1.5, "trial_count": 8, "ts": "motion", "trial_type": "intensity-85", "exp_stage": "adaptive_procedure", "decision_var": 0.011008439070030794, "response": "down", "rt": 0.3277440430028946, "FB": 1, "quest_estimate": 0.00792191082722258, "trial_time": 3.3400327039998956}
{"FBDuration": 0.5, "FBonset": 0, "ITI": 0.1790342425503052, "displayFB": true, "onset": 38.42422090188447, "punishment_amount": 0, "responseWindow": 1.5, "reward_amount": 1, "stim": {"motionDirection": "out", "oriBase": 30, "oriDirection": -1, "oriStrength": 0.775, "speedDirection": -1, "speedStrength": 0.775, "speed_start": 0.12, "speed_end": 0.10867413032202275, "ori_start": 30, "ori_end": 21.400302633671313, "motion_direction": "out"}, "stimResponseInterval": 0.24634725098174537, "stimulusDuration": 1.5, "trial_count": 9, "ts": "motion", "trial_type": "threshold_estimation", "exp_stage": "adaptive_procedure", "decision_var": 0.011325869677977246, "response": "up", "rt": 0.33136091400228906, "FB": 0, "quest_estimate": 0.010616088077864315, "trial_time": 2.6102299310005037}
{"FBDuration": 0.5, "FBonset": 0, "ITI": 0.16567167259282956, "displayFB": true, "onset": 42.34960239541652, "punishment_amount": 0, "responseWindow": 1.5, "reward_amount": 1, "stim": {"motionDirection": "in", "oriBase": 30, "oriDirection": 1, "oriStrength": 0.775, "speedDirection": 1, "speedStrength": 0.775, "speed_start": 0.12, "speed_end": 0.13404496302110333, "ori_start": 30, "ori_end": 38.599697366328684, "motion_direction": "in"}, "stimResponseInterval": 0.9043881984412394, "stimulusDuration": 1.5, "trial_count": 10, "ts": "motion", "trial_type": "threshold_estimation", "exp_stage": "adaptive_procedure", "decision_var": 0.014044963021103335, "response": "up", "rt": 0.26974283199524507, "FB": 1, "quest_estimate": 0.009844467070038505, "trial_time": 3.2145388570061186}
{"FBDuration": 0.5, "FBonset": 0, "ITI": 0.6669411819766196, "displayFB": true, "onset": 46.91966226645059, "punishment_amount": 0, "responseWindow": 1.5, "reward_amount": 1, "stim": {"motionDirection": "in", "oriBase": 30, "oriDirection": -1, "oriStrength": 0.775, "speedDirection": 1, "speedStrength": 0.775, "speed_start": 0.12, "speed_end": 0.13325918364555855, "ori_start": 30, "ori_end": 21.400302633671313, "motion_direction": "in"}, "stimResponseInterval": 0.7467119141265481, "stimulusDuration": 1.5, "trial_count": 11, "ts": "motion", "trial_type": "threshold_estimation", "exp_stage": "adaptive_procedure", "decision_var": 0.013259183645558545, "response": "up", "rt": 0.25669964099506615, "FB": 1, "quest_estimate": 0.009081518830205804, "trial_time": 3.0381163389974972}
{"FBDuration": 0.5, "FBonset": 0, "ITI": 0.09551490241112481, "displayFB": true, "onset": 51.833315362553755, "punishment_amount": 0, "responseWindow": 1.5, "reward_amount": 1, "stim": {"motionDirection": "in", "oriBase": -60, "oriDirection": -1, "oriStrength": 0.775, "speedDirection": 1, "speedStrength": 0.775, "speed_start": 0.12, "speed_end": 0.13248195178277639, "ori_start": -60, "ori_end": -68.59969736632868, "motion_direction": "in"}, "stimResponseInterval": 0.22035788964968728, "stimulusDuration": 1.5, "trial_count": 12, "ts": "motion", "trial_type": "threshold_estimation", "exp_stage": "adaptive_procedure", "decision_var": 0.012481951782776377, "response": "up", "rt": 0.47751975099527044, "FB": 1, "quest_estimate": 0.008327068932635698, "trial_time": 2.7341602020023856}
{"FBDuration": 0.5, "FBonset": 0, "ITI": 0.2883628618757975, "displayFB": true, "onset": 55.64918815461456, "punishment_amount": 0, "responseWindow": 1.5, "reward_amount": 1, "stim": {"motionDirection": "out", "oriBase": -60, "oriDirection": -1, "oriStrength": 0.775, "speedDirection": 1, "speedStrength": 0.775, "speed_start": 0.12, "speed_end": 0.1416985801378948, "ori_start": -60, "ori_end": -68.59969736632868, "motion_direction": "out"}, "stimResponseInterval": 0.7657945415535554, "stimulusDuration": 1.5, "trial_count": 13, "ts": "motion", "trial_type": "intensity-95", "exp_stage": "adaptive_procedure", "decision_var": 0.02169858013789479, "response": "up", "rt": 0.3035550040003727, "FB": 1, "quest_estimate": 0.007586226171933101, "trial_time": 3.1053175689958152}
{"FBDuration": 0.5, "FBonset": 0, "ITI": 0.21858217641600963, "displayFB": true, "onset": 60.203345558043914, "punishment_amount": 0, "responseWindow": 1.5, "reward_amount": 1, "stim": {"motionDirection": "in", "oriBase": -60, "oriDirection": 1, "oriStrength": 0.775, "speedDirection": 1, "speedStrength": 0.775, "speed_start": 0.12, "speed_end": 0.13095780099653453, "ori_start": -60, "ori_end": -51.400302633671316, "motion_direction": "in"}, "stimResponseInterval": 0.1128721855610636, "stimulusDuration": 1.5, "trial_count": 14, "ts": "motion", "trial_type": "threshold_estimation", "exp_stage": "adaptive_procedure", "decision_var": 0.010957800996534539, "response": "up", "rt": 0.4609322219985188, "FB": 1, "quest_estimate": 0.006848515500649015, "trial_time": 2.603174741998373}
{"FBDuration": 0.5, "FBonset": 0, "ITI": 0.081933487583568, "displayFB": true, "onset": 64.03479992002099, "punishment_amount": 0, "responseWindow": 1.5, "reward_amount": 1, "stim": {"motionDirection": "in", "oriBase": 30, "oriDirection": 1, "oriStrength": 0.775, "speedDirection": -1, "speedStrength": 0.775, "speed_start": 0.12, "speed_end": 0.10979454459466856, "ori_start": 30, "ori_end": 38.599697366328684, "motion_direction": "in"}, "stimResponseInterval": 0.2597087303042136, "stimulusDuration": 1.5, "trial_count": 15, "ts": "motion", "trial_type": "threshold_estimation", "exp_stage": "adaptive_procedure", "decision_var": 0.010205455405331444, "response": "up", "rt": 0.5654497950017685, "FB": 0, "quest_estimate": 0.00944134608487078, "trial_time": 2.855408385999908}
{"FBDuration": 0.5, "FBonset": 0, "ITI": 0.5190299826519604, "displayFB": true, "onset": 67.87644213790877, "punishment_amount": 0, "responseWindow": 1.5, "reward_amount": 1, "stim": {"motionDirection": "out", "oriBase": -60, "oriDirection": -1, "oriStrength": 0.775, "speedDirection": 1, "speedStrength": 0.775, "speed_start": 0.12, "speed_end": 0.1328227392686092, "ori_start": -60, "ori_end": -68.59969736632868, "motion_direction": "out"}, "stimResponseInterval": 0.31779620425856736, "stimulusDuration": 1.5, "trial_count": 16, "ts": "motion", "trial_type": "threshold_estimation", "exp_stage": "adaptive_procedure", "decision_var": 0.012822739268609218, "response": "down", "rt": 0.32815584300260525, "FB": 0, "quest_estimate": 0.012075695297911596, "trial_time": 2.683407611999428}
{"FBDuration": 0.5, "FBonset": 0, "ITI": 0.15354129573098063, "displayFB": true, "onset": 72.2132683248193, "punishment_amount": 0, "responseWindow": 1.5, "reward_amount": 1, "stim": {"motionDirection": "in", "oriBase": 30, "oriDirection": 1, "oriStrength": 0.775, "speedDirection": 1, "speedStrength": 0.775, "speed_start": 0.12, "speed_end": 0.13547707624818126, "ori_start": 30, "ori_end": 38.599697366328684, "motion_direction": "in"}, "stimResponseInterval": 0.1580236883654128, "stimulusDuration": 1.5, "trial_count": 17, "ts": "motion", "trial_type": "threshold_estimation", "exp_stage": "adaptive_procedure", "decision_var": 0.015477076248181253, "response": "up", "rt": 0.288373732000764, "FB": 1, "quest_estimate": 0.011320947209621998, "trial_time": 2.480488854998839}
{"FBDuration": 0.5, "FBonset": 0, "ITI": 0.4245403039965433, "displayFB": true, "onset": 76.02483330891569, "punishment_amount": 0, "responseWindow": 1.5, "reward_amount": 1, "stim": {"motionDirection": "in", "oriBase": 30, "oriDirection": -1, "oriStrength": 0.775, "speedDirection": 1, "speedStrength": 0.775, "speed_start": 0.12, "speed_end": 0.12448798712270741, "ori_start": 30, "ori_end": 21.400302633671313, "motion_direction": "in"}, "stimResponseInterval": 0.4055141896723887, "stimulusDuration": 1.5, "trial_count": 18, "ts": "motion", "trial_type": "intensity-70", "exp_stage": "adaptive_procedure", "decision_var": 0.00448798712270741, "response": "up", "rt": 0.44437258200196084, "FB": 1, "quest_estimate": 0.010572932814214037, "trial_time": 2.8865734389983118}
{"FBDuration": 0.5, "FBonset": 0, "ITI": 0.7340326173356018, "displayFB": true, "onset": 80.35488780258461, "punishment_amount": 0, "responseWindow": 1.5, "reward_amount": 1, "stim": {"motionDirection": "out", "oriBase": 30, "oriDirection": 1, "oriStrength": 0.775, "speedDirection": -1, "speedStrength": 0.775, "speed_start": 0.12, "speed_end": 0.09830141986210521, "ori_start": 30, "ori_end": 38.599697366328684, "motion_direction": "out"}, "stimResponseInterval": 0.6226281123075701, "stimulusDuration": 1.5, "trial_count": 19, "ts": "motion", "trial_type": "intensity-95", "exp_stage": "adaptive_procedure", "decision_var": 0.02169858013789479, "response": "down", "rt": 0.2802951470002881, "FB": 1, "quest_estimate": 0.009837895223262838, "trial_time": 2.9418473670011736}
{"FBDuration": 0.5, "FBonset": 0, "ITI": 0.6197096978476506, "displayFB": true, "onset": 85.21154853222778, "punishment_amount": 0, "responseWindow": 1.5, "reward_amount": 1, "stim": {"motionDirection": "out", "oriBase": -60, "oriDirection": 1, "oriStrength": 0.775, "speedDirection": 1, "speedStrength": 0.775, "speed_start": 0.12, "speed_end": 0.13320044822528454, "ori_start": -60, "ori_end": -51.400302633671316, "motion_direction": "out"}, "stimResponseInterval": 0.7715089115574785, "stimulusDuration": 1.5, "trial_count": 20, "ts": "motion", "trial_type": "threshold_estimation", "exp_stage": "adaptive_procedure", "decision_var": 0.013200448225284551, "response": "up", "rt": 0.297969089995604, "FB": 1, "quest_estimate": 0.009107238026901311, "trial_time": 3.1001051339990227}
{"FBDuration": 0.5, "FBonset": 0, "ITI": 0.22897711317281078, "displayFB": true, "onset": 90.10276714163291, "punishment_amount": 0, "responseWindow": 1.5, "reward_amount": 1, "stim": {"motionDirection": "out", "oriBase": -60, "oriDirection": 1, "oriStrength": 0.775, "speedDirection": -1, "speedStrength": 0.775, "speed_start": 0.12, "speed_end": 0.10754341286893998, "ori_start": -60, "ori_end": -51.400302633671316, "motion_direction": "out"}, "stimResponseInterval": 0.2961251497093874, "stimulusDuration": 1.5, "trial_count": 21, "ts": "motion", "trial_type": "threshold_estimation", "exp_stage": "adaptive_procedure", "decision_var": 0.012456587131060008, "response": "down", "rt": 0.33964591899712104, "FB": 1, "quest_estimate": 0.00838429396374709, "trial_time": 2.6731426990008913}
{"FBDuration": 0.5, "FBonset": 0, "ITI": 0.9766061930584766, "displayFB": true, "onset": 94.12786940451511, "punishment_amount": 0, "responseWindow": 1.5, "reward_amount": 1, "stim": {"motionDirection": "out", "oriBase": 30, "oriDirection": 1, "oriStrength": 0.775, "speedDirection": -1, "speedStrength": 0.775, "speed_start": 0.12, "speed_end": 0.10827951805377303, "ori_start": 30, "ori_end": 38.599697366328684, "motion_direction": "out"}, "stimResponseInterval": 0.2531419291626136, "stimulusDuration": 1.5, "trial_count": 22, "ts": "motion", "trial_type": "threshold_estimation", "exp_stage": "adaptive_procedure", "decision_var": 0.011720481946226956, "response": "down", "rt": 0.3320035930009908, "FB": 1, "quest_estimate": 0.0076689149430944695, "trial_time": 2.6127947779968963}
{"FBDuration": 0.5, "FBonset": 0, "ITI": 0.2802448090649212, "displayFB": true, "onset": 98.8576175267362, "punishment_amount": 0, "responseWindow": 1.5, "reward_amount": 1, "stim": {"motionDirection": "in", "oriBase": -60, "oriDirection": 1, "oriStrength": 0.775, "speedDirection": -1, "speedStrength": 0.775, "speed_start": 0.12, "speed_end": 0.1089915609299692, "ori_start": -60, "ori_end": -51.400302633671316, "motion_direction": "in"}, "stimResponseInterval": 0.3687786125711924, "stimulusDuration": 1.5, "trial_count": 23, "ts": "motion", "trial_type": "intensity-85", "exp_stage": "adaptive_procedure", "decision_var": 0.011008439070030794, "response": "down", "rt": 0.25244285599910654, "FB": 1, "quest_estimate": 0.006961046242108332, "trial_time": 2.650939908999135}
{"FBDuration": 0.5, "FBonset": 0, "ITI": 0.9916273055804963, "displayFB": true, "onset": 103.00664094837232, "punishment_amount": 0, "responseWindow": 1.5, "reward_amount": 1, "stim": {"motionDirection": "in", "oriBase": 30, "oriDirection": -1, "oriStrength": 0.775, "speedDirection": -1, "speedStrength": 0.775, "speed_start": 0.12, "speed_end": 0.09830141986210521, "ori_start": 30, "ori_end": 21.400302633671313, "motion_direction": "in"}, "stimResponseInterval": 0.5621704841803905, "stimulusDuration": 1.5, "trial_count": 24, "ts": "motion", "trial_type": "intensity-95", "exp_stage": "adaptive_procedure", "decision_var": 0.02169858013789479, "response": "down", "rt": 0.31156056500185514, "FB": 1, "quest_estimate": 0.006266422103934251, "trial_time": 2.9035512560003554}
{"FBDuration": 0.5, "FBonset": 0, "ITI": 0.9031632396599889, "displayFB": true, "onset": 108.06043873813321, "punishment_amount": 0, "responseWindow": 1.5, "reward_amount": 1, "stim": {"motionDirection": "out", "oriBase": 30, "oriDirection": -1, "oriStrength": 0.775, "speedDirection": 1, "speedStrength": 0.775, "speed_start": 0.12, "speed_end": 0.12308170287556239, "ori_start": 30, "ori_end": 21.400302633671313, "motion_direction": "out"}, "stimResponseInterval": 0.746719587738115, "stimulusDuration": 1.5, "trial_count": 25, "ts": "motion", "trial_type": "intensity-65", "exp_stage": "adaptive_procedure", "decision_var": 0.0030817028755623864, "response": "up", "rt": 0.30046646900154883, "FB": 1, "quest_estimate": 0.00557197882013169, "trial_time": 3.071493379997264}
{"FBDuration": 0.5, "FBonset": 0, "ITI": 0.4632208172522406, "displayFB": true, "onset": 113.21032156553132, "punishment_amount": 0, "responseWindow": 1.5, "reward_amount": 1, "stim": {"motionDirection": "in", "oriBase": -60, "oriDirection": 1, "oriStrength": 0.775, "speedDirection": -1, "speedStrength": 0.775, "speed_start": 0.12, "speed_end": 0.11114570388043789, "ori_start": -60, "ori_end": -51.400302633671316, "motion_direction": "in"}, "stimResponseInterval": 0.8583108797223664, "stimulusDuration": 1.5, "trial_count": 26, "ts": "motion", "trial_type": "threshold_estimation", "exp_stage": "adaptive_procedure", "decision_var": 0.008854296119562108, "response": "up", "rt": 0.30857101699803025, "FB": 0, "quest_estimate": 0.008008714257484388, "trial_time": 3.2066023950028466}
{"FBDuration": 0.5, "FBonset": 0, "ITI": 0.7618289989074849, "displayFB": true, "onset": 118.03185326250592, "punishment_amount": 0, "responseWindow": 1.5, "reward_amount": 1, "stim": {"motionDirection": "out", "oriBase": 30, "oriDirection": -1, "oriStrength": 0.775, "speedDirection": -1, "speedStrength": 0.775, "speed_start": 0.12, "speed_end": 0.10868629624089873, "ori_start": 30, "ori_end": 21.400302633671313, "motion_direction": "out"}, "stimResponseInterval": 0.3401495089703904, "stimulusDuration": 1.5, "trial_count": 27, "ts": "motion", "trial_type": "threshold_estimation", "exp_stage": "adaptive_procedure", "decision_var": 0.011313703759101262, "response": "down", "rt": 0.2704254549971665, "FB": 1, "quest_estimate": 0.007311477378086816, "trial_time": 2.643539327000326}
{"FBDuration": 0.5, "FBonset": 0, "ITI": 0.38119486515367185, "displayFB": true, "onset": 122.6338317703838, "punishment_amount": 0, "responseWindow": 1.5, "reward_amount": 1, "stim": {"motionDirection": "out", "oriBase": 30, "oriDirection": 1, "oriStrength": 0.775, "speedDirection": 1, "speedStrength": 0.775, "speed_start": 0.12, "speed_end": 0.1306035317762787, "ori_start": 30, "ori_end": 38.599697366328684, "motion_direction": "out"}, "stimResponseInterval": 0.3102659986203976, "stimulusDuration": 1.5, "trial_count": 28, "ts": "motion", "trial_type": "threshold_estimation", "exp_stage": "adaptive_procedure", "decision_var": 0.0106035317762787, "response": "up", "rt": 0.3361509800015483, "FB": 1, "quest_estimate": 0.006621268783891715, "trial_time": 2.675384155998472}
{"FBDuration": 0.5, "FBonset": 0, "ITI": 0.350986327140581, "displayFB": true, "onset": 126.82529263415786, "punishment_amount": 0, "responseWindow": 1.5, "reward_amount": 1, "stim": {"motionDirection": "out", "oriBase": -60, "oriDirection": 1, "oriStrength": 0.775, "speedDirection": -1, "speedStrength": 0.775, "speed_start": 0.12, "speed_end": 0.11009949778730796, "ori_start": -60, "ori_end": -51.400302633671316, "motion_direction": "out"}, "stimResponseInterval": 0.47385992835177504, "stimulusDuration": 1.5, "trial_count": 29, "ts": "motion", "trial_type": "threshold_estimation", "exp_stage": "adaptive_procedure", "decision_var": 0.00990050221269203, "response": "down", "rt": 0.39851156400254695, "FB": 1, "quest_estimate": 0.005937964416759568, "trial_time": 2.9093101949983975}
{"FBDuration": 0.5, "FBonset": 0, "ITI": 0.6234673329045939, "displayFB": true, "onset": 131.1501388896502, "punishment_amount": 0, "responseWindow": 1.5, "reward_amount": 1, "stim": {"motionDirection": "out", "oriBase": 30, "oriDirection": 1, "oriStrength": 0.775, "speedDirection": 1, "speedStrength": 0.775, "speed_start": 0.12, "speed_end": 0.12920407577586981, "ori_start": 30, "ori_end": 38.599697366328684, "motion_direction": "out"}, "stimResponseInterval": 0.6164040059199856, "stimulusDuration": 1.5, "trial_count": 30, "ts": "motion", "trial_type": "threshold_estimation", "exp_stage": "adaptive_procedure", "decision_var": 0.009204075775869826, "response": "up", "rt": 0.2803163790013059, "FB": 1, "quest_estimate": 0.005261527543761059, "trial_time": 2.9239509039980476}
{"FBDuration": 0.5, "FBonset": 0, "ITI": 0.34066978856282115, "displayFB": true, "onset": 135.89001022847478, "punishment_amount": 0, "responseWindow": 1.5, "reward_amount": 1, "stim": {"motionDirection": "in", "oriBase": 30, "oriDirection": -1, "oriStrength": 0.775, "speedDirection": 1, "speedStrength": 0.775, "speed_start": 0.12, "speed_end": 0.1285145219612651, "ori_start": 30, "ori_end": 21.400302633671313, "motion_direction": "in"}, "stimResponseInterval": 0.3092593048720317, "stimulusDuration": 1.5, "trial_count": 31, "ts": "motion", "trial_type": "threshold_estimation", "exp_stage": "adaptive_procedure", "decision_var": 0.008514521961265092, "response": "up", "rt": 0.28902574200037634, "FB": 1, "quest_estimate": 0.004591768489987297, "trial_time": 2.6339091490008286}
{"FBDuration": 0.5, "FBonset": 0, "ITI": 0.13558532886213148, "displayFB": true, "onset": 140.03993932190963, "punishment_amount": 0, "responseWindow": 1.5, "reward_amount": 1, "stim": {"motionDirection": "in", "oriBase": 30, "oriDirection": -1, "oriStrength": 0.775, "speedDirection": -1, "speedStrength": 0.775, "speed_start": 0.12, "speed_end": 0.11216858046085258, "ori_start": 30, "ori_end": 21.400302633671313, "motion_direction": "in"}, "stimResponseInterval": 0.6502274905747079, "stimulusDuration": 1.5, "trial_count": 32, "ts": "motion", "trial_type": "threshold_estimation", "exp_stage": "adaptive_procedure", "decision_var": 0.007831419539147413, "response": "down", "rt": 0.3427750610062503, "FB": 1, "quest_estimate": 0.003928660290292305, "trial_time": 3.0278530569994473}
{"FBDuration": 0.5, "FBonset": 0, "ITI": 0.03514529005763456, "displayFB": true, "onset": 144.32575214134647, "punishment_amount": 0, "responseWindow": 1.5, "reward_amount": 1, "stim": {"motionDirection": "out", "oriBase": 30, "oriDirection": -1, "oriStrength": 0.775, "speedDirection": 1, "speedStrength": 0.775, "speed_start": 0.12, "speed_end": 0.1271548540087774, "ori_start": 30, "ori_end": 21.400302633671313, "motion_direction": "out"}, "stimResponseInterval": 0.6794126526006448, "stimulusDuration": 1.5, "trial_count": 33, "ts": "motion", "trial_type": "threshold_estimation", "exp_stage": "adaptive_procedure", "decision_var": 0.007154854008777398, "response": "up", "rt": 0.25135748000320746, "FB": 1, "quest_estimate": 0.003272025784675704, "trial_time": 2.990956528999959}
{"FBDuration": 0.5, "FBonset": 0, "ITI": 0.15521802519675398, "displayFB": true, "onset": 148.54031008400474, "punishment_amount": 0, "responseWindow": 1.5, "reward_amount": 1, "stim": {"motionDirection": "in", "oriBase": -60, "oriDirection": -1, "oriStrength": 0.775, "speedDirection": -1, "speedStrength": 0.775, "speed_start": 0.12, "speed_end": 0.1089915609299692, "ori_start": -60, "ori_end": -68.59969736632868, "motion_direction": "in"}, "stimResponseInterval": 0.014742826451281665, "stimulusDuration": 1.5, "trial_count": 34, "ts": "motion", "trial_type": "intensity-85", "exp_stage": "adaptive_procedure", "decision_var": 0.011008439070030794, "response": "up", "rt": 0.4677909610036295, "FB": 0, "quest_estimate": 0.005663117252533073, "trial_time": 2.5584722649946343}
{"FBDuration": 0.5, "FBonset": 0, "ITI": 0.30224982712194226, "displayFB": true, "onset": 152.21027093565277, "punishment_amount": 0, "responseWindow": 1.5, "reward_amount": 1, "stim": {"motionDirection": "out", "oriBase": -60, "oriDirection": 1, "oriStrength": 0.775, "speedDirection": 1, "speedStrength": 0.775, "speed_start": 0.12, "speed_end": 0.1289007688627516, "ori_start": -60, "ori_end": -51.400302633671316, "motion_direction": "out"}, "stimResponseInterval": 0.4226075409350316, "stimulusDuration": 1.5, "trial_count": 35, "ts": "motion", "trial_type": "threshold_estimation", "exp_stage": "adaptive_procedure", "decision_var": 0.00890076886275161, "response": "up", "rt": 0.27174123100121506, "FB": 1, "quest_estimate": 0.005002397728819864, "trial_time": 2.7539803920008126}
{"FBDuration": 0.5, "FBonset": 0, "ITI": 0.7638288871282106, "displayFB": true, "onset": 156.43512830370975, "punishment_amount": 0, "responseWindow": 1.5, "reward_amount": 1, "stim": {"motionDirection": "out", "oriBase": -60, "oriDirection": -1, "oriStrength": 0.775, "speedDirection": 1, "speedStrength": 0.775, "speed_start": 0.12, "speed_end": 0.12822734724729515, "ori_start": -60, "ori_end": -68.59969736632868, "motion_direction": "out"}, "stimResponseInterval": 0.6166559112418397, "stimulusDuration": 1.5, "trial_count": 36, "ts": "motion", "trial_type": "threshold_estimation", "exp_stage": "adaptive_procedure", "decision_var": 0.008227347247295146, "response": "up", "rt": 0.24965049499587622, "FB": 1, "quest_estimate": 0.0043480234578661126, "trial_time": 2.944264903002477}
{"FBDuration": 0.5, "FBonset": 0, "ITI": 0.7683333682726254, "displayFB": true, "onset": 161.3156131020798, "punishment_amount": 0, "responseWindow": 1.5, "reward_amount": 1, "stim": {"motionDirection": "in", "oriBase": 30, "oriDirection": -1, "oriStrength": 0.775, "speedDirection": -1, "speedStrength": 0.775, "speed_start": 0.12, "speed_end": 0.11243986445212417, "ori_start": 30, "ori_end": 21.400302633671313, "motion_direction": "in"}, "stimResponseInterval": 0.18193656126870106, "stimulusDuration": 1.5, "trial_count": 37, "ts": "motion", "trial_type": "threshold_estimation", "exp_stage": "adaptive_procedure", "decision_var": 0.007560135547875831, "response": "down", "rt": 0.3687016690018936, "FB": 1, "quest_estimate": 0.0036999728638187138, "trial_time": 2.629080498998519}
{"FBDuration": 0.5, "FBonset": 0, "ITI": 0.10310104183465163, "displayFB": true, "onset": 165.76588303162112, "punishment_amount": 0, "responseWindow": 1.5, "reward_amount": 1, "stim": {"motionDirection": "in", "oriBase": 30, "oriDirection": 1, "oriStrength": 0.775, "speedDirection": 1, "speedStrength": 0.775, "speed_start": 0.12, "speed_end": 0.1268991422028674, "ori_start": 30, "ori_end": 38.599697366328684, "motion_direction": "in"}, "stimResponseInterval": 0.9059317407175824, "stimulusDuration": 1.5, "trial_count": 38, "ts": "motion", "trial_type": "threshold_estimation", "exp_stage": "adaptive_procedure", "decision_var": 0.006899142202867407, "response": "up", "rt": 0.31391697500657756, "FB": 1, "quest_estimate": 0.0030580769050865195, "trial_time": 3.277196802002436}
{"FBDuration": 0.5, "FBonset": 0, "ITI": 0.5122329926495968, "displayFB": true, "onset": 170.27491581417334, "punishment_amount": 0, "responseWindow": 1.5, "reward_amount": 1, "stim": {"motionDirection": "out", "oriBase": 30, "oriDirection": 1, "oriStrength": 0.775, "speedDirection": -1, "speedStrength": 0.775, "speed_start": 0.12, "speed_end": 0.11375596173500513, "ori_start": 30, "ori_end": 38.599697366328684, "motion_direction": "out"}, "stimResponseInterval": 0.19634153670114907, "stimulusDuration": 1.5, "trial_count": 39, "ts": "motion", "trial_type": "threshold_estimation", "exp_stage": "adaptive_procedure", "decision_var": 0.006244038264994867, "response": "up", "rt": 0.36814728799799923, "FB": 0, "quest_estimate": 0.005311805633488292, "trial_time": 2.633578488996136}
{"FBDuration": 0.5, "FBonset": 0, "ITI": 0.33867002612329267, "displayFB": true, "onset": 174.4834903435241, "punishment_amount": 0, "responseWindow": 1.5, "reward_amount": 1, "stim": {"motionDirection": "out", "oriBase": 30, "oriDirection": -1, "oriStrength": 0.775, "speedDirection": -1, "speedStrength": 0.775, "speed_start": 0.12, "speed_end": 0.1169182971244376, "ori_start": 30, "ori_end": 21.400302633671313, "motion_direction": "out"}, "stimResponseInterval": 0.261313646813364, "stimulusDuration": 1.5, "trial_count": 40, "ts": "motion", "trial_type": "intensity-65", "exp_stage": "adaptive_procedure", "decision_var": 0.0030817028755623864, "response": "down", "rt": 0.35325084399664775, "FB": 1, "quest_estimate": 0.004665330204966525, "trial_time": 2.6734684359980747}
{"FBDuration": 0.5, "FBonset": 0, "ITI": 0.9636161857603582, "displayFB": true, "onset": 178.58347401646074, "punishment_amount": 0, "responseWindow": 1.5, "reward_amount": 1, "stim": {"motionDirection": "in", "oriBase": 30, "oriDirection": -1, "oriStrength": 0.775, "speedDirection": -1, "speedStrength": 0.775, "speed_start": 0.12, "speed_end": 0.11213793160582801, "ori_start": 30, "ori_end": 21.400302633671313, "motion_direction": "in"}, "stimResponseInterval": 0.08703514805780865, "stimulusDuration": 1.5, "trial_count": 41, "ts": "motion", "trial_type": "threshold_estimation", "exp_stage": "adaptive_procedure", "decision_var": 0.007862068394171987, "response": "down", "rt": 0.3303428490035003, "FB": 1, "quest_estimate": 0.0040259312023221, "trial_time": 2.4723549929985893}
{"FBDuration": 0.5, "FBonset": 0, "ITI": 0.2991723064549886, "displayFB": true, "onset": 183.1341253502789, "punishment_amount": 0, "responseWindow": 1.5, "reward_amount": 1, "stim": {"motionDirection": "in", "oriBase": 30, "oriDirection": 1, "oriStrength": 0.775, "speedDirection": -1, "speedStrength": 0.775, "speed_start": 0.12, "speed_end": 0.11278964629814107, "ori_start": 30, "ori_end": 38.599697366328684, "motion_direction": "in"}, "stimResponseInterval": 0.9476830157694958, "stimulusDuration": 1.5, "trial_count": 42, "ts": "motion", "trial_type": "threshold_estimation", "exp_stage": "adaptive_procedure", "decision_var": 0.007210353701858921, "response": "up", "rt": 0.28091954899718985, "FB": 0, "quest_estimate": 0.006268527585045189, "trial_time": 3.2866283809999004}
{"FBDuration": 0.5, "FBonset": 0, "ITI": 0.13995529868734802, "displayFB": true, "onset": 187.8809806725034, "punishment_amount": 0, "responseWindow": 1.5, "reward_amount": 1, "stim": {"motionDirection": "in", "oriBase": 30, "oriDirection": 1, "oriStrength": 0.775, "speedDirection": -1, "speedStrength": 0.775, "speed_start": 0.12, "speed_end": 0.11052682330618491, "ori_start": 30, "ori_end": 38.599697366328684, "motion_direction": "in"}, "stimResponseInterval": 0.8342445878810416, "stimulusDuration": 1.5, "trial_count": 43, "ts": "motion", "trial_type": "threshold_estimation", "exp_stage": "adaptive_procedure", "decision_var": 0.009473176693815095, "response": "down", "rt": 0.27301756299857516, "FB": 1, "quest_estimate": 0.005625870562405155, "trial_time": 3.171625353003037}
{"FBDuration": 0.5, "FBonset": 0, "ITI": 0.5669908728064876, "displayFB": true, "onset": 192.35518055907178, "punishment_amount": 0, "responseWindow": 1.5, "reward_amount": 1, "stim": {"motionDirection": "in", "oriBase": -60, "oriDirection": -1, "oriStrength": 0.775, "speedDirection": 1, "speedStrength": 0.775, "speed_start": 0.12, "speed_end": 0.12881888660581622, "ori_start": -60, "ori_end": -68.59969736632868, "motion_direction": "in"}, "stimResponseInterval": 0.07891008825479007, "stimulusDuration": 1.5, "trial_count": 44, "ts": "motion", "trial_type": "threshold_estimation", "exp_stage": "adaptive_procedure", "decision_var": 0.008818886605816222, "response": "up", "rt": 0.4123750040016603, "FB": 1, "quest_estimate": 0.0049891401579703065, "trial_time": 2.546275656000944}
{"FBDuration": 0.5, "FBonset": 0, "ITI": 0.47449979157349675, "displayFB": true, "onset": 196.50108152013306, "punishment_amount": 0, "responseWindow": 1.5, "reward_amount": 1, "stim": {"motionDirection": "out", "oriBase": -60, "oriDirection": -1, "oriStrength": 0.775, "speedDirection": -1, "speedStrength": 0.775, "speed_start": 0.12, "speed_end": 0.111829756909307, "ori_start": -60, "ori_end": -68.59969736632868, "motion_direction": "out"}, "stimResponseInterval": 0.605087763466724, "stimulusDuration": 1.5, "trial_count": 45, "ts": "motion", "trial_type": "threshold_estimation", "exp_stage": "adaptive_procedure", "decision_var": 0.00817024309069301, "response": "down", "rt": 0.2273290060038562, "FB": 1, "quest_estimate": 0.004358316745141047, "trial_time": 2.8988658340022084}
{"FBDuration": 0.5, "FBonset": 0, "ITI": 0.9649190598225323, "displayFB": true, "onset": 201.08066907517326, "punishment_amount": 0, "responseWindow": 1.5, "reward_amount": 1, "stim": {"motionDirection": "out", "oriBase": -60, "oriDirection": 1, "oriStrength": 0.775, "speedDirection": -1, "speedStrength": 0.775, "speed_start": 0.12, "speed_end": 0.11247235658816429, "ori_start": -60, "ori_end": -51.400302633671316, "motion_direction": "out"}, "stimResponseInterval": 0.6876413010855358, "stimulusDuration": 1.5, "trial_count": 46, "ts": "motion", "trial_type": "threshold_estimation", "exp_stage": "adaptive_procedure", "decision_var": 0.007527643411835705, "response": "up", "rt": 0.29982711099728476, "FB": 0, "quest_estimate": 0.006574769411475952, "trial_time": 3.051112845998432}
{"FBDuration": 0.5, "FBonset": 0, "ITI": 0.8196011133676697, "displayFB": true, "onset": 206.23322943608133, "punishment_amount": 0, "responseWindow": 1.5, "reward_amount": 1, "stim": {"motionDirection": "in", "oriBase": -60, "oriDirection": -1, "oriStrength": 0.775, "speedDirection": -1, "speedStrength": 0.775, "speed_start": 0.12, "speed_end": 0.1169182971244376, "ori_start": -60, "ori_end": -68.59969736632868, "motion_direction": "in"}, "stimResponseInterval": 0.19491631170119406, "stimulusDuration": 1.5, "trial_count": 47, "ts": "motion", "trial_type": "intensity-65", "exp_stage": "adaptive_procedure", "decision_var": 0.0030817028755623864, "response": "up", "rt": 0.34726113099895883, "FB": 0, "quest_estimate": 0.008705118654996236, "trial_time": 2.596986062999349}
{"FBDuration": 0.5, "FBonset": 0, "ITI": 0.38340239128935716, "displayFB": true, "onset": 210.7477468611502, "punishment_amount": 0, "responseWindow": 1.5, "reward_amount": 1, "stim": {"motionDirection": "in", "oriBase": 30, "oriDirection": -1, "oriStrength": 0.775, "speedDirection": 1, "speedStrength": 0.775, "speed_start": 0.12, "speed_end": 0.13190818954206943, "ori_start": 30, "ori_end": 21.400302633671313, "motion_direction": "in"}, "stimResponseInterval": 0.01516412525308597, "stimulusDuration": 1.5, "trial_count": 48, "ts": "motion", "trial_type": "threshold_estimation", "exp_stage": "adaptive_procedure", "decision_var": 0.011908189542069438, "response": "up", "rt": 0.567831379994459, "FB": 1, "quest_estimate": 0.008062897430162322, "trial_time": 2.664307116996497}
{"FBDuration": 0.5, "FBonset": 0, "ITI": 0.23103802832867637, "displayFB": true, "onset": 214.64631337769265, "punishment_amount": 0, "responseWindow": 1.5, "reward_amount": 1, "stim": {"motionDirection": "out", "oriBase": -60, "oriDirection": -1, "oriStrength": 0.775, "speedDirection": 1, "speedStrength": 0.775, "speed_start": 0.12, "speed_end": 0.12448798712270741, "ori_start": -60, "ori_end": -68.59969736632868, "motion_direction": "out"}, "stimResponseInterval": 0.6943357717998326, "stimulusDuration": 1.5, "trial_count": 49, "ts": "motion", "trial_type": "intensity-70", "exp_stage": "adaptive_procedure", "decision_var": 0.00448798712270741, "response": "up", "rt": 0.2545474529979401, "FB": 1, "quest_estimate": 0.007425332763397727, "trial_time": 3.014334906998556}
{"FBDuration": 0.5, "FBonset": 0, "ITI": 0.5694540817596319, "displayFB": true, "onset": 219.07168717782116, "punishment_amount": 0, "responseWindow": 1.5, "reward_amount": 1, "stim": {"motionDirection": "out", "oriBase": -60, "oriDirection": 1, "oriStrength": 0.775, "speedDirection": 1, "speedStrength": 0.775, "speed_start": 0.12, "speed_end": 0.13060689016149965, "ori_start": -60, "ori_end": -51.400302633671316, "motion_direction": "out"}, "stimResponseInterval": 0.036627389457643766, "stimulusDuration": 1.5, "trial_count": 50, "ts": "motion", "trial_type": "threshold_estimation", "exp_stage": "adaptive_procedure", "decision_var": 0.010606890161499662, "response": "up", "rt": 0.43847880700195674, "FB": 1, "quest_estimate": 0.0067946285646423785, "trial_time": 2.537788929003}
{"FBDuration": 0.5, "FBonset": 0, "ITI": 0.8531982055231637, "displayFB": true, "onset": 223.17776864903843, "punishment_amount": 0, "responseWindow": 1.5, "reward_amount": 1, "stim": {"motionDirection": "in", "oriBase": -60, "oriDirection": 1, "oriStrength": 0.775, "speedDirection": 1, "speedStrength": 0.775, "speed_start": 0.12, "speed_end": 0.1310084390700308, "ori_start": -60, "ori_end": -51.400302633671316, "motion_direction": "in"}, "stimResponseInterval": 0.31550032262352, "stimulusDuration": 1.5, "trial_count": 51, "ts": "motion", "trial_type": "intensity-85", "exp_stage": "adaptive_procedure", "decision_var": 0.011008439070030794, "response": "up", "rt": 0.29920135800057324, "FB": 1, "quest_estimate": 0.00616996747136591, "trial_time": 2.696875050998642}
{"FBDuration": 0.5, "FBonset": 0, "ITI": 0.13710209877916013, "displayFB": true, "onset": 227.8464671771851, "punishment_amount": 0, "responseWindow": 1.5, "reward_amount": 1, "stim": {"motionDirection": "in", "oriBase": -60, "oriDirection": -1, "oriStrength": 0.775, "speedDirection": -1, "speedStrength": 0.775, "speed_start": 0.12, "speed_end": 0.11067016185372752, "ori_start": -60, "ori_end": -68.59969736632868, "motion_direction": "in"}, "stimResponseInterval": 0.1624528642259362, "stimulusDuration": 1.5, "trial_count": 52, "ts": "motion", "trial_type": "threshold_estimation", "exp_stage": "adaptive_procedure", "decision_var": 0.009329838146272473, "response": "up", "rt": 0.3863483980021556, "FB": 0, "quest_estimate": 0.008363065484149244, "trial_time": 2.6101887180047925}
{"FBDuration": 0.5, "FBonset": 0, "ITI": 0.11863757230743732, "displayFB": true, "onset": 231.6460221401902, "punishment_amount": 0, "responseWindow": 1.5, "reward_amount": 1, "stim": {"motionDirection": "out", "oriBase": -60, "oriDirection": 1, "oriStrength": 0.775, "speedDirection": 1, "speedStrength": 0.775, "speed_start": 0.12, "speed_end": 0.13153827577137292, "ori_start": -60, "ori_end": -51.400302633671316, "motion_direction": "out"}, "stimResponseInterval": 0.02496156932757221, "stimulusDuration": 1.5, "trial_count": 53, "ts": "motion", "trial_type": "threshold_estimation", "exp_stage": "adaptive_procedure", "decision_var": 0.011538275771372931, "response": "up", "rt": 0.3998300610037404, "FB": 1, "quest_estimate": 0.007735354615205976, "trial_time": 2.4927533120062435}
{"FBDuration": 0.5, "FBonset": 0, "ITI": 0.3748888948445015, "displayFB": true, "onset": 235.28962128182522, "punishment_amount": 0, "responseWindow": 1.5, "reward_amount": 1, "stim": {"motionDirection": "out", "oriBase": 30, "oriDirection": 1, "oriStrength": 0.775, "speedDirection": 1, "speedStrength": 0.775, "speed_start": 0.12, "speed_end": 0.13089999608833994, "ori_start": 30, "ori_end": 38.599697366328684, "motion_direction": "out"}, "stimResponseInterval": 0.8155014086238728, "stimulusDuration": 1.5, "trial_count": 54, "ts": "motion", "trial_type": "threshold_estimation", "exp_stage": "adaptive_procedure", "decision_var": 0.010899996088339949, "response": "up", "rt": 0.29854231599892955, "FB": 1, "quest_estimate": 0.007113203748068904, "trial_time": 3.197782436000125}
{"FBDuration": 0.5, "FBonset": 0, "ITI": 0.07726443091740287, "displayFB": true, "onset": 239.9800115852936, "punishment_amount": 0, "responseWindow": 1.5, "reward_amount": 1, "stim": {"motionDirection": "out", "oriBase": -60, "oriDirection": -1, "oriStrength": 0.775, "speedDirection": -1, "speedStrength": 0.775, "speed_start": 0.12, "speed_end": 0.10973264534877412, "ori_start": -60, "ori_end": -68.59969736632868, "motion_direction": "out"}, "stimResponseInterval": 0.688594679776517, "stimulusDuration": 1.5, "trial_count": 55, "ts": "motion", "trial_type": "threshold_estimation", "exp_stage": "adaptive_procedure", "decision_var": 0.010267354651225871, "response": "up", "rt": 0.24001639099878957, "FB": 0, "quest_estimate": 0.009298828090972204, "trial_time": 2.9892778389985324}
{"FBDuration": 0.5, "FBonset": 0, "ITI": 0.047994403879482506, "displayFB": true, "onset": 244.24587069598752, "punishment_amount": 0, "responseWindow": 1.5, "reward_amount": 1, "stim": {"motionDirection": "in", "oriBase": -60, "oriDirection": -1, "oriStrength": 0.775, "speedDirection": 1, "speedStrength": 0.775, "speed_start": 0.12, "speed_end": 0.13246695049916787, "ori_start": -60, "ori_end": -68.59969736632868, "motion_direction": "in"}, "stimResponseInterval": 0.8874238116166311, "stimulusDuration": 1.5, "trial_count": 56, "ts": "motion", "trial_type": "threshold_estimation", "exp_stage": "adaptive_procedure", "decision_var": 0.012466950499167885, "response": "up", "rt": 0.42328784800338326, "FB": 1, "quest_estimate": 0.008674040943383761, "trial_time": 3.3718598859995836}
{"FBDuration": 0.5, "FBonset": 0, "ITI": 0.9838206010664003, "displayFB": true, "onset": 248.68128891148365, "punishment_amount": 0, "responseWindow": 1.5, "reward_amount": 1, "stim": {"motionDirection": "in", "oriBase": -60, "oriDirection": 1, "oriStrength": 0.775, "speedDirection": 1, "speedStrength": 0.775, "speed_start": 0.12, "speed_end": 0.13183209187180361, "ori_start": -60, "ori_end": -51.400302633671316, "motion_direction": "in"}, "stimResponseInterval": 0.8326760149131429, "stimulusDuration": 1.5, "trial_count": 57, "ts": "motion", "trial_type": "threshold_estimation", "exp_stage": "adaptive_procedure", "decision_var": 0.011832091871803618, "response": "up", "rt": 0.21302493900293484, "FB": 1, "quest_estimate": 0.008054815046055777, "trial_time": 3.1017817979955}
{"FBDuration": 0.5, "FBonset": 0, "ITI": 0.31313294495561617, "displayFB": true, "onset": 253.99778552746318, "punishment_amount": 0, "responseWindow": 1.5, "reward_amount": 1, "stim": {"motionDirection": "in", "oriBase": -60, "oriDirection": 1, "oriStrength": 0.775, "speedDirection": -1, "speedStrength": 0.775, "speed_start": 0.12, "speed_end": 0.09830141986210521, "ori_start": -60, "ori_end": -51.400302633671316, "motion_direction": "in"}, "stimResponseInterval": 0.7760496871810227, "stimulusDuration": 1.5, "trial_count": 58, "ts": "motion", "trial_type": "intensity-95", "exp_stage": "adaptive_procedure", "decision_var": 0.02169858013789479, "response": "down", "rt": 0.3263604719977593, "FB": 1, "quest_estimate": 0.007445666315668134, "trial_time": 3.1668532009935006}
{"FBDuration": 0.5, "FBonset": 0, "ITI": 0.5706329010097275, "displayFB": true, "onset": 258.5869681595998, "punishment_amount": 0, "responseWindow": 1.5, "reward_amount": 1, "stim": {"motionDirection": "in", "oriBase": -60, "oriDirection": 1, "oriStrength": 0.775, "speedDirection": 1, "speedStrength": 0.775, "speed_start": 0.12, "speed_end": 0.13058304185364655, "ori_start": -60, "ori_end": -51.400302633671316, "motion_direction": "in"}, "stimResponseInterval": 0.15027275915773464, "stimulusDuration": 1.5, "trial_count": 59, "ts": "motion", "trial_type": "threshold_estimation", "exp_stage": "adaptive_procedure", "decision_var": 0.010583041853646558, "response": "up", "rt": 0.39011809800285846, "FB": 1, "quest_estimate": 0.006837370389264449, "trial_time": 2.6097987510001985}
{"FBDuration": 0.5, "FBonset": 0, "ITI": 0.38630005823302893, "displayFB": true, "onset": 262.8078738197673, "punishment_amount": 0, "responseWindow": 1.5, "reward_amount": 1, "stim": {"motionDirection": "out", "oriBase": 30, "oriDirection": -1, "oriStrength": 0.775, "speedDirection": -1, "speedStrength": 0.775, "speed_start": 0.12, "speed_end": 0.11003532772886776, "ori_start": 30, "ori_end": 21.400302633671313, "motion_direction": "out"}, "stimResponseInterval": 0.2703603363755279, "stimulusDuration": 1.5, "trial_count": 60, "ts": "motion", "trial_type": "threshold_estimation", "exp_stage": "adaptive_procedure", "decision_var": 0.009964672271132242, "response": "down", "rt": 0.3084589619975304, "FB": 1, "quest_estimate": 0.006234352986706861, "trial_time": 2.6375535510014743}
{"FBDuration": 0.5, "FBonset": 0, "ITI": 0.47439356312241454, "displayFB": true, "onset": 266.9645342143758, "punishment_amount": 0, "responseWindow": 1.5, "reward_amount": 1, "stim": {"motionDirection": "out", "oriBase": 30, "oriDirection": -1, "oriStrength": 0.775, "speedDirection": 1, "speedStrength": 0.775, "speed_start": 0.12, "speed_end": 0.12935146465839484, "ori_start": 30, "ori_end": 21.400302633671313, "motion_direction": "out"}, "stimResponseInterval": 0.2836318595662759, "stimulusDuration": 1.5, "trial_count": 61, "ts": "motion", "trial_type": "threshold_estimation", "exp_stage": "adaptive_procedure", "decision_var": 0.009351464658394842, "response": "up", "rt": 0.3224682069994742, "FB": 1, "quest_estimate": 0.005636456927862264, "trial_time": 2.679407023002568}
{"FBDuration": 0.5, "FBonset": 0, "ITI": 0.287301253705581, "displayFB": true, "onset": 271.22255963706453, "punishment_amount": 0, "responseWindow": 1.5, "reward_amount": 1, "stim": {"motionDirection": "in", "oriBase": 30, "oriDirection": 1, "oriStrength": 0.775, "speedDirection": -1, "speedStrength": 0.775, "speed_start": 0.12, "speed_end": 0.1112567254537414, "ori_start": 30, "ori_end": 38.599697366328684, "motion_direction": "in"}, "stimResponseInterval": 0.7903125999857479, "stimulusDuration": 1.5, "trial_count": 62, "ts": "motion", "trial_type": "threshold_estimation", "exp_stage": "adaptive_procedure", "decision_var": 0.008743274546258596, "response": "up", "rt": 0.500109627006168, "FB": 0, "quest_estimate": 0.00773495556744614, "trial_time": 3.353233387002547}
{"FBDuration": 0.5, "FBonset": 0, "ITI": 0.650709397502278, "displayFB": true, "onset": 275.80017349075587, "punishment_amount": 0, "responseWindow": 1.5, "reward_amount": 1, "stim": {"motionDirection": "out", "oriBase": -60, "oriDirection": 1, "oriStrength": 0.775, "speedDirection": -1, "speedStrength": 0.775, "speed_start": 0.12, "speed_end": 0.10914424663904221, "ori_start": -60, "ori_end": -51.400302633671316, "motion_direction": "out"}, "stimResponseInterval": 0.9620251786114777, "stimulusDuration": 1.5, "trial_count": 63, "ts": "motion", "trial_type": "threshold_estimation", "exp_stage": "adaptive_procedure", "decision_var": 0.01085575336095778, "response": "down", "rt": 0.3916636189969722, "FB": 1, "quest_estimate": 0.0071346393026510135, "trial_time": 3.4074064119995455}
{"FBDuration": 0.5, "FBonset": 0, "ITI": 0.32377710188320086, "displayFB": true, "onset": 280.91290806686965, "punishment_amount": 0, "responseWindow": 1.5, "reward_amount": 1, "stim": {"motionDirection": "out", "oriBase": -60, "oriDirection": -1, "oriStrength": 0.775, "speedDirection": -1, "speedStrength": 0.775, "speed_start": 0.12, "speed_end": 0.1169182971244376, "ori_start": -60, "ori_end": -68.59969736632868, "motion_direction": "out"}, "stimResponseInterval": 0.044922611686117, "stimulusDuration": 1.5, "trial_count": 64, "ts": "motion", "trial_type": "intensity-65", "exp_stage": "adaptive_procedure", "decision_var": 0.0030817028755623864, "response": "down", "rt": 0.39541154699691106, "FB": 1, "quest_estimate": 0.006538272831957341, "trial_time": 2.4933328870029072}
