{"FBDuration": 0.5, "FBonset": 0, "ITI": 0.4295804530071623, "displayFB": true, "onset": 2, "punishment_amount": 0, "responseWindow": 1.5, "reward_amount": 1, "stim": {"motionDirection": "in", "oriBase": 30, "oriDirection": -1, "oriStrength": 0.775, "speedDirection": -1, "speedStrength": 0.775, "speed_start": 0.12, "speed_end": 0.11622117539934956, "ori_start": 30, "ori_end": 21.38502128228611, "motion_direction": "in"}, "stimResponseInterval": 0.9829434723315216, "stimulusDuration": 1.5, "trial_count": 1, "ts": "orientation", "trial_type": "threshold_estimation", "exp_stage": "adaptive_procedure", "decision_var": 8.614978717713889, "response": "left", "rt": 0.3593515570028103, "FB": 1, "quest_estimate": 8.643971188483818, "trial_time": 3.3798105509995366}
{"FBDuration": 0.5, "FBonset": 0, "ITI": 0.15791484287750512, "displayFB": true, "onset": 6.912523925338684, "punishment_amount": 0, "responseWindow": 1.5, "reward_amount": 1, "stim": {"motionDirection": "out", "oriBase": -60, "oriDirection": 1, "oriStrength": 0.775, "speedDirection": -1, "speedStrength": 0.775, "speed_start": 0.12, "speed_end": 0.11622117539934956, "ori_start": -60, "ori_end": -51.39345928498172, "motion_direction": "out"}, "stimResponseInterval": 0.032780064793807795, "stimulusDuration": 1.5, "trial_count": 2, "ts": "orientation", "trial_type": "threshold_estimation", "exp_stage": "adaptive_procedure", "decision_var": 8.606540715018287, "response": "right", "rt": 0.4294965989975026, "FB": 1, "quest_estimate": 8.639699959876776, "trial_time": 2.5005224239939707}
{"FBDuration": 0.5, "FBonset": 0, "ITI": 0.3819508671352534, "displayFB": true, "onset": 10.603218833009997, "punishment_amount": 0, "responseWindow": 1.5, "reward_amount": 1, "stim": {"motionDirection": "out", "oriBase": 30, "oriDirection": -1, "oriStrength": 0.775, "speedDirection": 1, "speedStrength": 0.775, "speed_start": 0.12, "speed_end": 0.12377882460065043, "ori_start": 30, "ori_end": 21.402295401858403, "motion_direction": "out"}, "stimResponseInterval": 0.012324465904443471, "stimulusDuration": 1.5, "trial_count": 3, "ts": "orientation", "trial_type": "threshold_estimation", "exp_stage": "adaptive_procedure", "decision_var": 8.597704598141597, "response": "left", "rt": 0.4994066150029539, "FB": 1, "quest_estimate": 8.63558304976975, "trial_time": 2.544308301003184}
{"FBDuration": 0.5, "FBonset": 0, "ITI": 0.8893490291576178, "displayFB": true, "onset": 14.497494166049695, "punishment_amount": 0, "responseWindow": 1.5, "reward_amount": 1, "stim": {"motionDirection": "in", "oriBase": -60, "oriDirection": -1, "oriStrength": 0.775, "speedDirection": -1, "speedStrength": 0.775, "speed_start": 0.12, "speed_end": 0.11622117539934956, "ori_start": -60, "ori_end": -68.59149182585749, "motion_direction": "in"}, "stimResponseInterval": 0.5255446281535643, "stimulusDuration": 1.5, "trial_count": 4, "ts": "orientation", "trial_type": "threshold_estimation", "exp_stage": "adaptive_procedure", "decision_var": 8.591491825857485, "response": "left", "rt": 0.23651566500484478, "FB": 1, "quest_estimate": 8.631670444371249, "trial_time": 2.796792228000413}
{"FBDuration": 0.5, "FBonset": 0, "ITI": 0.5046050878107291, "displayFB": true, "onset": 19.412387823360877, "punishment_amount": 0, "responseWindow": 1.5, "reward_amount": 1, "stim": {"motionDirection": "out", "oriBase": -60, "oriDirection": 1, "oriStrength": 0.775, "speedDirection": 1, "speedStrength": 0.775, "speed_start": 0.12, "speed_end": 0.12377882460065043, "ori_start": -60, "ori_end": -53.97285270317221, "motion_direction": "out"}, "stimResponseInterval": 0.7886382957739162, "stimulusDuration": 1.5, "trial_count": 5, "ts": "orientation", "trial_type": "intensity-65", "exp_stage": "adaptive_procedure", "decision_var": 6.0271472968277955, "response": "right", "rt": 0.2763166020013159, "FB": 1, "quest_estimate": 8.631669717368773, "trial_time": 3.099824405006075}
{"FBDuration": 0.5, "FBonset": 0, "ITI": 0.7469520134741654, "displayFB": true, "onset": 24.205631206945522, "punishment_amount": 0, "responseWindow": 1.5, "reward_amount": 1, "stim": {"motionDirection": "out", "oriBase": 30, "oriDirection": 1, "oriStrength": 0.775, "speedDirection": 1, "speedStrength": 0.775, "speed_start": 0.12, "speed_end": 0.12377882460065043, "ori_start": 30, "ori_end": 38.5862756122542, "motion_direction": "out"}, "stimResponseInterval": 0.6025425742565371, "stimulusDuration": 1.5, "trial_count": 6, "ts": "orientation", "trial_type": "threshold_estimation", "exp_stage": "adaptive_procedure", "decision_var": 8.586275612254195, "response": "right", "rt": 0.26403280200611334, "FB": 1, "quest_estimate": 8.628000524385332, "trial_time": 2.891041368995502}
{"FBDuration": 0.5, "FBonset": 0, "ITI": 0.86299544058225, "displayFB": true, "onset": 29.055125794676226, "punishment_amount": 0, "responseWindow": 1.5, "reward_amount": 1, "stim": {"motionDirection": "out", "oriBase": -60, "oriDirection": -1, "oriStrength": 0.775, "speedDirection": 1, "speedStrength": 0.775, "speed_start": 0.12, "speed_end": 0.12377882460065043, "ori_start": -60, "ori_end": -68.58189576914381, "motion_direction": "out"}, "stimResponseInterval": 0.8870636544575219, "stimulusDuration": 1.5, "trial_count": 7, "ts": "orientation", "trial_type": "threshold_estimation", "exp_stage": "adaptive_procedure", "decision_var": 8.581895769143806, "response": "left", "rt": 0.2868797029950656, "FB": 1, "quest_estimate": 8.624602665487966, "trial_time": 3.2132854810042772}
{"FBDuration": 0.5, "FBonset": 0, "ITI": 0.04940849005655612, "displayFB": true, "onset": 34.305184889715996, "punishment_amount": 0, "responseWindow": 1.5, "reward_amount": 1, "stim": {"motionDirection": "in", "oriBase": 30, "oriDirection": 1, "oriStrength": 0.775, "speedDirection": -1, "speedStrength": 0.775, "speed_start": 0.12, "speed_end": 0.11622117539934956, "ori_start": 30, "ori_end": 38.578217867092135, "motion_direction": "in"}, "stimResponseInterval": 0.6952410441175281, "stimulusDuration": 1.5, "trial_count": 8, "ts": "orientation", "trial_type": "threshold_estimation", "exp_stage": "adaptive_procedure", "decision_var": 8.578217867092135, "response": "left", "rt": 0.3289752989949193, "FB": 0, "quest_estimate": 8.63352457208557, "trial_time": 3.0619924619968515}
{"FBDuration": 0.5, "FBonset": 0, "ITI": 0.06798304269840938, "displayFB": true, "onset": 38.54983442389008, "punishment_amount": 0, "responseWindow": 1.5, "reward_amount": 1, "stim": {"motionDirection": "out", "oriBase": -60, "oriDirection": 1, "oriStrength": 0.775, "speedDirection": -1, "speedStrength": 0.775, "speed_start": 0.12, "speed_end": 0.11622117539934956, "ori_start": -60, "ori_end": -53.39298087872151, "motion_direction": "out"}, "stimResponseInterval": 0.6626257951904353, "stimulusDuration": 1.5, "trial_count": 9, "ts": "orientation", "trial_type": "intensity-70", "exp_stage": "adaptive_procedure", "decision_var": 6.60701912127849, "response": "right", "rt": 0.2663447079976322, "FB": 1, "quest_estimate": 8.63352451934108, "trial_time": 2.9536971430061385}
{"FBDuration": 0.5, "FBonset": 0, "ITI": 0.4202647143352397, "displayFB": true, "onset": 42.78044326177893, "punishment_amount": 0, "responseWindow": 1.5, "reward_amount": 1, "stim": {"motionDirection": "out", "oriBase": 30, "oriDirection": -1, "oriStrength": 0.775, "speedDirection": 1, "speedStrength": 0.775, "speed_start": 0.12, "speed_end": 0.12377882460065043, "ori_start": 30, "ori_end": 21.411329419241127, "motion_direction": "out"}, "stimResponseInterval": 0.8537737140690989, "stimulusDuration": 1.5, "trial_count": 10, "ts": "orientation", "trial_type": "threshold_estimation", "exp_stage": "adaptive_procedure", "decision_var": 8.588670580758873, "response": "left", "rt": 0.2530184229981387, "FB": 1, "quest_estimate": 8.62973813631653, "trial_time": 3.1332644690046436}
{"FBDuration": 0.5, "FBonset": 0, "ITI": 0.23249293019337403, "displayFB": true, "onset": 47.554481690183266, "punishment_amount": 0, "responseWindow": 1.5, "reward_amount": 1, "stim": {"motionDirection": "in", "oriBase": -60, "oriDirection": 1, "oriStrength": 0.775, "speedDirection": 1, "speedStrength": 0.775, "speed_start": 0.12, "speed_end": 0.12377882460065043, "ori_start": -60, "ori_end": -53.39298087872151, "motion_direction": "in"}, "stimResponseInterval": 0.5918867377426702, "stimulusDuration": 1.5, "trial_count": 11, "ts": "orientation", "trial_type": "intensity-70", "exp_stage": "adaptive_procedure", "decision_var": 6.60701912127849, "response": "right", "rt": 0.2671622439956991, "FB": 1, "quest_estimate": 8.629737995524671, "trial_time": 2.8930379640005413}
{"FBDuration": 0.5, "FBonset": 0, "ITI": 0.8348064212459634, "displayFB": true, "onset": 51.87886135811931, "punishment_amount": 0, "responseWindow": 1.5, "reward_amount": 1, "stim": {"motionDirection": "in", "oriBase": -60, "oriDirection": 1, "oriStrength": 0.775, "speedDirection": -1, "speedStrength": 0.775, "speed_start": 0.12, "speed_end": 0.11622117539934956, "ori_start": -60, "ori_end": -51.41609136579698, "motion_direction": "in"}, "stimResponseInterval": 0.9316301049315721, "stimulusDuration": 1.5, "trial_count": 12, "ts": "orientation", "trial_type": "threshold_estimation", "exp_stage": "adaptive_procedure", "decision_var": 8.58390863420302, "response": "right", "rt": 0.3075259639954311, "FB": 1, "quest_estimate": 8.62621119425663, "trial_time": 3.264199320001353}
{"FBDuration": 0.5, "FBonset": 0, "ITI": 0.6762681375554491, "displayFB": true, "onset": 57.145297884296845, "punishment_amount": 0, "responseWindow": 1.5, "reward_amount": 1, "stim": {"motionDirection": "in", "oriBase": 30, "oriDirection": -1, "oriStrength": 0.775, "speedDirection": 1, "speedStrength": 0.775, "speed_start": 0.12, "speed_end": 0.12377882460065043, "ori_start": 30, "ori_end": 21.420089833433217, "motion_direction": "in"}, "stimResponseInterval": 0.5967144546699688, "stimulusDuration": 1.5, "trial_count": 13, "ts": "orientation", "trial_type": "threshold_estimation", "exp_stage": "adaptive_procedure", "decision_var": 8.579910166566783, "response": "left", "rt": 0.26441258499835385, "FB": 1, "quest_estimate": 8.622965807032273, "trial_time": 2.900720197998453}
{"FBDuration": 0.5, "FBonset": 0, "ITI": 0.4186476211165666, "displayFB": true, "onset": 61.91828047652226, "punishment_amount": 0, "responseWindow": 1.5, "reward_amount": 1, "stim": {"motionDirection": "out", "oriBase": -60, "oriDirection": -1, "oriStrength": 0.775, "speedDirection": -1, "speedStrength": 0.775, "speed_start": 0.12, "speed_end": 0.11622117539934956, "ori_start": -60, "ori_end": -68.57655254595697, "motion_direction": "out"}, "stimResponseInterval": 0.27544934103070606, "stimulusDuration": 1.5, "trial_count": 14, "ts": "orientation", "trial_type": "threshold_estimation", "exp_stage": "adaptive_procedure", "decision_var": 8.576552545956975, "response": "left", "rt": 0.31696780399943236, "FB": 1, "quest_estimate": 8.6200124661379, "trial_time": 2.6241705210049986}
{"FBDuration": 0.5, "FBonset": 0, "ITI": 0.5060669096583719, "displayFB": true, "onset": 66.11237743866954, "punishment_amount": 0, "responseWindow": 1.5, "reward_amount": 1, "stim": {"motionDirection": "in", "oriBase": -60, "oriDirection": -1, "oriStrength": 0.775, "speedDirection": 1, "speedStrength": 0.775, "speed_start": 0.12, "speed_end": 0.12377882460065043, "ori_start": -60, "ori_end": -68.57373284447935, "motion_direction": "in"}, "stimResponseInterval": 0.5853634080370824, "stimulusDuration": 1.5, "trial_count": 15, "ts": "orientation", "trial_type": "threshold_estimation", "exp_stage": "adaptive_procedure", "decision_var": 8.573732844479355, "response": "left", "rt": 0.31170010499772616, "FB": 1, "quest_estimate": 8.617351909894701, "trial_time": 2.9337823759997264}
{"FBDuration": 0.5, "FBonset": 0, "ITI": 0.352319844419717, "displayFB": true, "onset": 70.703807756365, "punishment_amount": 0, "responseWindow": 1.5, "reward_amount": 1, "stim": {"motionDirection": "in", "oriBase": -60, "oriDirection": -1, "oriStrength": 0.775, "speedDirection": 1, "speedStrength": 0.775, "speed_start": 0.12, "speed_end": 0.12377882460065043, "ori_start": -60, "ori_end": -68.57136466011329, "motion_direction": "in"}, "stimResponseInterval": 0.46276830627195875, "stimulusDuration": 1.5, "trial_count": 16, "ts": "orientation", "trial_type": "threshold_estimation", "exp_stage": "adaptive_procedure", "decision_var": 8.571364660113286, "response": "right", "rt": 0.2366075159952743, "FB": 0, "quest_estimate": 8.62449497109165, "trial_time": 2.726460791003774}
{"FBDuration": 0.5, "FBonset": 0, "ITI": 0.6800111995229634, "displayFB": true, "onset": 75.01889590705667, "punishment_amount": 0, "responseWindow": 1.5, "reward_amount": 1, "stim": {"motionDirection": "in", "oriBase": 30, "oriDirection": -1, "oriStrength": 0.775, "speedDirection": 1, "speedStrength": 0.775, "speed_start": 0.12, "speed_end": 0.12377882460065043, "ori_start": 30, "ori_end": 21.42190368345322, "motion_direction": "in"}, "stimResponseInterval": 0.5445656871607665, "stimulusDuration": 1.5, "trial_count": 17, "ts": "orientation", "trial_type": "threshold_estimation", "exp_stage": "adaptive_procedure", "decision_var": 8.57809631654678, "response": "left", "rt": 0.3455676509984187, "FB": 1, "quest_estimate": 8.62140324473253, "trial_time": 2.917305392002163}
{"FBDuration": 0.5, "FBonset": 0, "ITI": 0.1626458871186265, "displayFB": true, "onset": 79.74347279374041, "punishment_amount": 0, "responseWindow": 1.5, "reward_amount": 1, "stim": {"motionDirection": "in", "oriBase": 30, "oriDirection": -1, "oriStrength": 0.775, "speedDirection": -1, "speedStrength": 0.775, "speed_start": 0.12, "speed_end": 0.11622117539934956, "ori_start": 30, "ori_end": 21.424969260818283, "motion_direction": "in"}, "stimResponseInterval": 0.31423974425483114, "stimulusDuration": 1.5, "trial_count": 18, "ts": "orientation", "trial_type": "threshold_estimation", "exp_stage": "adaptive_procedure", "decision_var": 8.575030739181717, "response": "left", "rt": 0.3888598789999378, "FB": 1, "quest_estimate": 8.618605214159835, "trial_time": 2.737649886003055}
{"FBDuration": 0.5, "FBonset": 0, "ITI": 0.33038766970313593, "displayFB": true, "onset": 83.72035842511387, "punishment_amount": 0, "responseWindow": 1.5, "reward_amount": 1, "stim": {"motionDirection": "out", "oriBase": 30, "oriDirection": -1, "oriStrength": 0.775, "speedDirection": -1, "speedStrength": 0.775, "speed_start": 0.12, "speed_end": 0.11622117539934956, "ori_start": 30, "ori_end": 23.39298087872151, "motion_direction": "out"}, "stimResponseInterval": 0.7773998338938204, "stimulusDuration": 1.5, "trial_count": 19, "ts": "orientation", "trial_type": "intensity-70", "exp_stage": "adaptive_procedure", "decision_var": 6.60701912127849, "response": "left", "rt": 0.2814020419973531, "FB": 1, "quest_estimate": 8.618605181174765, "trial_time": 3.098761592998926}
{"FBDuration": 0.5, "FBonset": 0, "ITI": 0.3338265246614204, "displayFB": true, "onset": 88.32814592871082, "punishment_amount": 0, "responseWindow": 1.5, "reward_amount": 1, "stim": {"motionDirection": "out", "oriBase": 30, "oriDirection": -1, "oriStrength": 0.775, "speedDirection": 1, "speedStrength": 0.775, "speed_start": 0.12, "speed_end": 0.12377882460065043, "ori_start": 30, "ori_end": 21.427543660188565, "motion_direction": "out"}, "stimResponseInterval": 0.24618886126261852, "stimulusDuration": 1.5, "trial_count": 20, "ts": "orientation", "trial_type": "threshold_estimation", "exp_stage": "adaptive_procedure", "decision_var": 8.572456339811435, "response": "left", "rt": 0.2894777649999014, "FB": 1, "quest_estimate": 8.616097195742878, "trial_time": 2.5656871539977146}
{"FBDuration": 0.5, "FBonset": 0, "ITI": 0.492731639104096, "displayFB": true, "onset": 92.40816131463487, "punishment_amount": 0, "responseWindow": 1.5, "reward_amount": 1, "stim": {"motionDirection": "out", "oriBase": 30, "oriDirection": 1, "oriStrength": 0.775, "speedDirection": -1, "speedStrength": 0.775, "speed_start": 0.12, "speed_end": 0.11622117539934956, "ori_start": 30, "ori_end": 38.57029427224266, "motion_direction": "out"}, "stimResponseInterval": 0.6783766536151274, "stimulusDuration": 1.5, "trial_count": 21, "ts": "orientation", "trial_type": "threshold_estimation", "exp_stage": "adaptive_procedure", "decision_var": 8.570294272242666, "response": "right", "rt": 0.27795660799893085, "FB": 1, "quest_estimate": 8.613868432688427, "trial_time": 2.9889701689971844}
{"FBDuration": 0.5, "FBonset": 0, "ITI": 0.3028253441157063, "displayFB": true, "onset": 97.07926960735409, "punishment_amount": 0, "responseWindow": 1.5, "reward_amount": 1, "stim": {"motionDirection": "in", "oriBase": -60, "oriDirection": 1, "oriStrength": 0.775, "speedDirection": 1, "speedStrength": 0.775, "speed_start": 0.12, "speed_end": 0.12377882460065043, "ori_start": -60, "ori_end": -51.43152166269777, "motion_direction": "in"}, "stimResponseInterval": 0.37873517443008253, "stimulusDuration": 1.5, "trial_count": 22, "ts": "orientation", "trial_type": "threshold_estimation", "exp_stage": "adaptive_procedure", "decision_var": 8.568478337302231, "response": "right", "rt": 0.2740384849967086, "FB": 1, "quest_estimate": 8.61190277222391, "trial_time": 2.678973161993781}
{"FBDuration": 0.5, "FBonset": 0, "ITI": 0.5565600325483908, "displayFB": true, "onset": 101.26083012589989, "punishment_amount": 0, "responseWindow": 1.5, "reward_amount": 1, "stim": {"motionDirection": "out", "oriBase": 30, "oriDirection": 1, "oriStrength": 0.775, "speedDirection": -1, "speedStrength": 0.775, "speed_start": 0.12, "speed_end": 0.11622117539934956, "ori_start": 30, "ori_end": 38.566952950339434, "motion_direction": "out"}, "stimResponseInterval": 0.6006368922624967, "stimulusDuration": 1.5, "trial_count": 23, "ts": "orientation", "trial_type": "threshold_estimation", "exp_stage": "adaptive_procedure", "decision_var": 8.566952950339434, "response": "right", "rt": 0.25489844999538036, "FB": 1, "quest_estimate": 8.610180582780817, "trial_time": 2.8823860900010914}
{"FBDuration": 0.5, "FBonset": 0, "ITI": 0.403339399325397, "displayFB": true, "onset": 105.91802705071078, "punishment_amount": 0, "responseWindow": 1.5, "reward_amount": 1, "stim": {"motionDirection": "in", "oriBase": -60, "oriDirection": 1, "oriStrength": 0.775, "speedDirection": 1, "speedStrength": 0.775, "speed_start": 0.12, "speed_end": 0.12377882460065043, "ori_start": -60, "ori_end": -51.43432856756969, "motion_direction": "in"}, "stimResponseInterval": 0.21278794351951802, "stimulusDuration": 1.5, "trial_count": 24, "ts": "orientation", "trial_type": "threshold_estimation", "exp_stage": "adaptive_procedure", "decision_var": 8.56567143243031, "response": "right", "rt": 0.33923896699707257, "FB": 1, "quest_estimate": 8.608680260095696, "trial_time": 2.586420886000269}
{"FBDuration": 0.5, "FBonset": 0, "ITI": 0.30138132391790773, "displayFB": true, "onset": 110.0341543935557, "punishment_amount": 0, "responseWindow": 1.5, "reward_amount": 1, "stim": {"motionDirection": "out", "oriBase": -60, "oriDirection": 1, "oriStrength": 0.775, "speedDirection": -1, "speedStrength": 0.775, "speed_start": 0.12, "speed_end": 0.11622117539934956, "ori_start": -60, "ori_end": -50.28958427039437, "motion_direction": "out"}, "stimResponseInterval": 0.9770133060553887, "stimulusDuration": 1.5, "trial_count": 25, "ts": "orientation", "trial_type": "intensity-95", "exp_stage": "adaptive_procedure", "decision_var": 9.710415729605625, "response": "right", "rt": 0.27418336399568943, "FB": 1, "quest_estimate": 8.608680260095685, "trial_time": 3.2856773200037424}
{"FBDuration": 0.5, "FBonset": 0, "ITI": 0.19997436162778914, "displayFB": true, "onset": 114.81254902352899, "punishment_amount": 0, "responseWindow": 1.5, "reward_amount": 1, "stim": {"motionDirection": "out", "oriBase": -60, "oriDirection": 1, "oriStrength": 0.775, "speedDirection": -1, "speedStrength": 0.775, "speed_start": 0.12, "speed_end": 0.11622117539934956, "ori_start": -60, "ori_end": -51.43540542293229, "motion_direction": "out"}, "stimResponseInterval": 0.34840387589741173, "stimulusDuration": 1.5, "trial_count": 26, "ts": "orientation", "trial_type": "threshold_estimation", "exp_stage": "adaptive_procedure", "decision_var": 8.564594577067712, "response": "right", "rt": 0.34779955499834614, "FB": 1, "quest_estimate": 8.607379474827013, "trial_time": 2.7333951049949974}
{"FBDuration": 0.5, "FBonset": 0, "ITI": 0.5280784818258519, "displayFB": true, "onset": 118.86092726105419, "punishment_amount": 0, "responseWindow": 1.5, "reward_amount": 1, "stim": {"motionDirection": "in", "oriBase": -60, "oriDirection": -1, "oriStrength": 0.775, "speedDirection": -1, "speedStrength": 0.775, "speed_start": 0.12, "speed_end": 0.11622117539934956, "ori_start": -60, "ori_end": -68.22668296905421, "motion_direction": "in"}, "stimResponseInterval": 0.14870693316925643, "stimulusDuration": 1.5, "trial_count": 27, "ts": "orientation", "trial_type": "intensity-85", "exp_stage": "adaptive_procedure", "decision_var": 8.226682969054215, "response": "left", "rt": 0.4086429529997986, "FB": 1, "quest_estimate": 8.607264065627401, "trial_time": 2.594295757000509}
{"FBDuration": 0.5, "FBonset": 0, "ITI": 0.5503728873369123, "displayFB": true, "onset": 123.0377126760493, "punishment_amount": 0, "responseWindow": 1.5, "reward_amount": 1, "stim": {"motionDirection": "out", "oriBase": 30, "oriDirection": -1, "oriStrength": 0.775, "speedDirection": -1, "speedStrength": 0.775, "speed_start": 0.12, "speed_end": 0.11622117539934956, "ori_start": 30, "ori_end": 21.43638916092866, "motion_direction": "out"}, "stimResponseInterval": 0.21696938367370133, "stimulusDuration": 1.5, "trial_count": 28, "ts": "orientation", "trial_type": "threshold_estimation", "exp_stage": "adaptive_procedure", "decision_var": 8.563610839071341, "response": "left", "rt": 0.32095061199652264, "FB": 1, "quest_estimate": 8.606156208638492, "trial_time": 2.5636347789986758}
{"FBDuration": 0.5, "FBonset": 0, "ITI": 0.32577904726428975, "displayFB": true, "onset": 127.30505494705992, "punishment_amount": 0, "responseWindow": 1.5, "reward_amount": 1, "stim": {"motionDirection": "in", "oriBase": -60, "oriDirection": 1, "oriStrength": 0.775, "speedDirection": -1, "speedStrength": 0.775, "speed_start": 0.12, "speed_end": 0.11622117539934956, "ori_start": -60, "ori_end": -51.43713788046514, "motion_direction": "in"}, "stimResponseInterval": 0.32258360114768625, "stimulusDuration": 1.5, "trial_count": 29, "ts": "orientation", "trial_type": "threshold_estimation", "exp_stage": "adaptive_procedure", "decision_var": 8.562862119534863, "response": "right", "rt": 0.2859958330009249, "FB": 1, "quest_estimate": 8.605202566151583, "trial_time": 2.6324688980021165}
{"FBDuration": 0.5, "FBonset": 0, "ITI": 0.2732752653046462, "displayFB": true, "onset": 131.4534175954719, "punishment_amount": 0, "responseWindow": 1.5, "reward_amount": 1, "stim": {"motionDirection": "out", "oriBase": -60, "oriDirection": -1, "oriStrength": 0.775, "speedDirection": -1, "speedStrength": 0.775, "speed_start": 0.12, "speed_end": 0.11622117539934956, "ori_start": -60, "ori_end": -68.56223215675797, "motion_direction": "out"}, "stimResponseInterval": 0.6109129555623958, "stimulusDuration": 1.5, "trial_count": 30, "ts": "orientation", "trial_type": "threshold_estimation", "exp_stage": "adaptive_procedure", "decision_var": 8.562232156757965, "response": "left", "rt": 0.37086292899766704, "FB": 1, "quest_estimate": 8.60438339683499, "trial_time": 3.006502054995508}
{"FBDuration": 0.5, "FBonset": 0, "ITI": 0.22112496917731983, "displayFB": true, "onset": 135.83760581633894, "punishment_amount": 0, "responseWindow": 1.5, "reward_amount": 1, "stim": {"motionDirection": "in", "oriBase": -60, "oriDirection": -1, "oriStrength": 0.775, "speedDirection": 1, "speedStrength": 0.775, "speed_start": 0.12, "speed_end": 0.12377882460065043, "ori_start": -60, "ori_end": -68.56170169828631, "motion_direction": "in"}, "stimResponseInterval": 0.0707509984172261, "stimulusDuration": 1.5, "trial_count": 31, "ts": "orientation", "trial_type": "threshold_estimation", "exp_stage": "adaptive_procedure", "decision_var": 8.561701698286313, "response": "left", "rt": 0.3252911150048021, "FB": 1, "quest_estimate": 8.603680557338258, "trial_time": 2.4344898700001067}
{"FBDuration": 0.5, "FBonset": 0, "ITI": 0.03301585822043862, "displayFB": true, "onset": 139.62948178393347, "punishment_amount": 0, "responseWindow": 1.5, "reward_amount": 1, "stim": {"motionDirection": "out", "oriBase": -60, "oriDirection": 1, "oriStrength": 0.775, "speedDirection": 1, "speedStrength": 0.775, "speed_start": 0.12, "speed_end": 0.12377882460065043, "ori_start": -60, "ori_end": -51.43874546171044, "motion_direction": "out"}, "stimResponseInterval": 0.9804518737604224, "stimulusDuration": 1.5, "trial_count": 32, "ts": "orientation", "trial_type": "threshold_estimation", "exp_stage": "adaptive_procedure", "decision_var": 8.561254538289564, "response": "right", "rt": 0.2781051829952048, "FB": 1, "quest_estimate": 8.603077593456689, "trial_time": 3.2892717979993904}
{"FBDuration": 0.5, "FBonset": 0, "ITI": 0.0133830055259202, "displayFB": true, "onset": 144.14294951591432, "punishment_amount": 0, "responseWindow": 1.5, "reward_amount": 1, "stim": {"motionDirection": "out", "oriBase": 30, "oriDirection": 1, "oriStrength": 0.775, "speedDirection": 1, "speedStrength": 0.775, "speed_start": 0.12, "speed_end": 0.12377882460065043, "ori_start": 30, "ori_end": 36.02714729682779, "motion_direction": "out"}, "stimResponseInterval": 0.7376866562615196, "stimulusDuration": 1.5, "trial_count": 33, "ts": "orientation", "trial_type": "intensity-65", "exp_stage": "adaptive_procedure", "decision_var": 6.0271472968277955, "response": "right", "rt": 0.2557243350020144, "FB": 1, "quest_estimate": 8.603075200920216, "trial_time": 3.024260113001219}
{"FBDuration": 0.5, "FBonset": 0, "ITI": 0.0394298738270773, "displayFB": true, "onset": 148.39401917770175, "punishment_amount": 0, "responseWindow": 1.5, "reward_amount": 1, "stim": {"motionDirection": "in", "oriBase": 30, "oriDirection": 1, "oriStrength": 0.775, "speedDirection": -1, "speedStrength": 0.775, "speed_start": 0.12, "speed_end": 0.11622117539934956, "ori_start": 30, "ori_end": 38.560877011826506, "motion_direction": "in"}, "stimResponseInterval": 0.4747081633015192, "stimulusDuration": 1.5, "trial_count": 34, "ts": "orientation", "trial_type": "threshold_estimation", "exp_stage": "adaptive_procedure", "decision_var": 8.560877011826502, "response": "right", "rt": 0.07561189199623186, "FB": 1, "quest_estimate": 8.602556629558421, "trial_time": 2.578499629002181}
{"FBDuration": 0.5, "FBonset": 0, "ITI": 0.5084854899597437, "displayFB": true, "onset": 152.40815721483034, "punishment_amount": 0, "responseWindow": 1.5, "reward_amount": 1, "stim": {"motionDirection": "out", "oriBase": -60, "oriDirection": -1, "oriStrength": 0.775, "speedDirection": -1, "speedStrength": 0.775, "speed_start": 0.12, "speed_end": 0.11622117539934956, "ori_start": -60, "ori_end": -68.56055761360983, "motion_direction": "out"}, "stimResponseInterval": 0.610974833986736, "stimulusDuration": 1.5, "trial_count": 35, "ts": "orientation", "trial_type": "threshold_estimation", "exp_stage": "adaptive_procedure", "decision_var": 8.560557613609838, "response": "left", "rt": 0.32659653399605304, "FB": 1, "quest_estimate": 8.602109770911031, "trial_time": 2.9673937800034764}
{"FBDuration": 0.5, "FBonset": 0, "ITI": 0.3215845873700447, "displayFB": true, "onset": 157.0276175387768, "punishment_amount": 0, "responseWindow": 1.5, "reward_amount": 1, "stim": {"motionDirection": "out", "oriBase": 30, "oriDirection": 1, "oriStrength": 0.775, "speedDirection": -1, "speedStrength": 0.775, "speed_start": 0.12, "speed_end": 0.11622117539934956, "ori_start": 30, "ori_end": 38.560286594699384, "motion_direction": "out"}, "stimResponseInterval": 0.4484053762039325, "stimulusDuration": 1.5, "trial_count": 36, "ts": "orientation", "trial_type": "threshold_estimation", "exp_stage": "adaptive_procedure", "decision_var": 8.560286594699384, "response": "right", "rt": 0.3072226660005981, "FB": 1, "quest_estimate": 8.601722852236872, "trial_time": 2.780519665997417}
{"FBDuration": 0.5, "FBonset": 0, "ITI": 0.280779533402037, "displayFB": true, "onset": 161.2976075023508, "punishment_amount": 0, "responseWindow": 1.5, "reward_amount": 1, "stim": {"motionDirection": "in", "oriBase": -60, "oriDirection": -1, "oriStrength": 0.775, "speedDirection": -1, "speedStrength": 0.775, "speed_start": 0.12, "speed_end": 0.11622117539934956, "ori_start": -60, "ori_end": -68.56005569714718, "motion_direction": "in"}, "stimResponseInterval": 0.611612471994579, "stimulusDuration": 1.5, "trial_count": 37, "ts": "orientation", "trial_type": "threshold_estimation", "exp_stage": "adaptive_procedure", "decision_var": 8.560055697147174, "response": "left", "rt": 0.24903898099728394, "FB": 1, "quest_estimate": 8.601385396158086, "trial_time": 2.8979016539960867}
{"FBDuration": 0.5, "FBonset": 0, "ITI": 0.4283138369930817, "displayFB": true, "onset": 165.68999950774742, "punishment_amount": 0, "responseWindow": 1.5, "reward_amount": 1, "stim": {"motionDirection": "out", "oriBase": 30, "oriDirection": 1, "oriStrength": 0.775, "speedDirection": 1, "speedStrength": 0.775, "speed_start": 0.12, "speed_end": 0.12377882460065043, "ori_start": 30, "ori_end": 38.55985789445027, "motion_direction": "out"}, "stimResponseInterval": 0.1294191852547164, "stimulusDuration": 1.5, "trial_count": 38, "ts": "orientation", "trial_type": "threshold_estimation", "exp_stage": "adaptive_procedure", "decision_var": 8.559857894450268, "response": "right", "rt": 0.4955994770061807, "FB": 1, "quest_estimate": 8.601088046484492, "trial_time": 2.6516192339986446}
{"FBDuration": 0.5, "FBonset": 0, "ITI": 0.9706459703156667, "displayFB": true, "onset": 169.7477325299952, "punishment_amount": 0, "responseWindow": 1.5, "reward_amount": 1, "stim": {"motionDirection": "in", "oriBase": -60, "oriDirection": 1, "oriStrength": 0.775, "speedDirection": -1, "speedStrength": 0.775, "speed_start": 0.12, "speed_end": 0.11622117539934956, "ori_start": -60, "ori_end": -53.97285270317221, "motion_direction": "in"}, "stimResponseInterval": 0.5828639711961086, "stimulusDuration": 1.5, "trial_count": 39, "ts": "orientation", "trial_type": "intensity-65", "exp_stage": "adaptive_procedure", "decision_var": 6.0271472968277955, "response": "right", "rt": 0.2819743669970194, "FB": 1, "quest_estimate": 8.601070814498161, "trial_time": 2.899566299995058}
{"FBDuration": 0.5, "FBonset": 0, "ITI": 0.21692483021909137, "displayFB": true, "onset": 174.80124247150698, "punishment_amount": 0, "responseWindow": 1.5, "reward_amount": 1, "stim": {"motionDirection": "in", "oriBase": 30, "oriDirection": 1, "oriStrength": 0.775, "speedDirection": 1, "speedStrength": 0.775, "speed_start": 0.12, "speed_end": 0.12377882460065043, "ori_start": 30, "ori_end": 38.22668296905422, "motion_direction": "in"}, "stimResponseInterval": 0.4405562225013594, "stimulusDuration": 1.5, "trial_count": 40, "ts": "orientation", "trial_type": "intensity-85", "exp_stage": "adaptive_procedure", "decision_var": 8.226682969054215, "response": "right", "rt": 0.23080855599982897, "FB": 1, "quest_estimate": 8.60100729617049, "trial_time": 2.7006008970056428}
{"FBDuration": 0.5, "FBonset": 0, "ITI": 0.046740600789942355, "displayFB": true, "onset": 178.95872352422742, "punishment_amount": 0, "responseWindow": 1.5, "reward_amount": 1, "stim": {"motionDirection": "out", "oriBase": -60, "oriDirection": -1, "oriStrength": 0.775, "speedDirection": -1, "speedStrength": 0.775, "speed_start": 0.12, "speed_end": 0.11622117539934956, "ori_start": -60, "ori_end": -68.55966988596307, "motion_direction": "out"}, "stimResponseInterval": 0.9510259869451367, "stimulusDuration": 1.5, "trial_count": 41, "ts": "orientation", "trial_type": "threshold_estimation", "exp_stage": "adaptive_procedure", "decision_var": 8.559669885963075, "response": "left", "rt": 0.2521168969979044, "FB": 1, "quest_estimate": 8.600729008024608, "trial_time": 3.240544783002406}
{"FBDuration": 0.5, "FBonset": 0, "ITI": 0.2961674903752912, "displayFB": true, "onset": 183.4564901119625, "punishment_amount": 0, "responseWindow": 1.5, "reward_amount": 1, "stim": {"motionDirection": "in", "oriBase": 30, "oriDirection": -1, "oriStrength": 0.775, "speedDirection": 1, "speedStrength": 0.775, "speed_start": 0.12, "speed_end": 0.12377882460065043, "ori_start": 30, "ori_end": 21.773317030945783, "motion_direction": "in"}, "stimResponseInterval": 0.8531364272273569, "stimulusDuration": 1.5, "trial_count": 42, "ts": "orientation", "trial_type": "intensity-85", "exp_stage": "adaptive_procedure", "decision_var": 8.226682969054215, "response": "left", "rt": 0.27681641199887963, "FB": 1, "quest_estimate": 8.600618833158759, "trial_time": 3.1683807599983993}
{"FBDuration": 0.5, "FBonset": 0, "ITI": 0.42772483066866684, "displayFB": true, "onset": 188.10579402956515, "punishment_amount": 0, "responseWindow": 1.5, "reward_amount": 1, "stim": {"motionDirection": "in", "oriBase": 30, "oriDirection": 1, "oriStrength": 0.775, "speedDirection": 1, "speedStrength": 0.775, "speed_start": 0.12, "speed_end": 0.12377882460065043, "ori_start": 30, "ori_end": 38.55950656068151, "motion_direction": "in"}, "stimResponseInterval": 0.4449208687307159, "stimulusDuration": 1.5, "trial_count": 43, "ts": "orientation", "trial_type": "threshold_estimation", "exp_stage": "adaptive_procedure", "decision_var": 8.559506560681509, "response": "left", "rt": 0.27953368599992245, "FB": 0, "quest_estimate": 8.60156765271886, "trial_time": 2.761506704999192}
{"FBDuration": 0.5, "FBonset": 0, "ITI": 0.050320264279282045, "displayFB": true, "onset": 192.47843972896453, "punishment_amount": 0, "responseWindow": 1.5, "reward_amount": 1, "stim": {"motionDirection": "in", "oriBase": -60, "oriDirection": 1, "oriStrength": 0.775, "speedDirection": -1, "speedStrength": 0.775, "speed_start": 0.12, "speed_end": 0.11622117539934956, "ori_start": -60, "ori_end": -51.44005479987996, "motion_direction": "in"}, "stimResponseInterval": 0.9599162121108946, "stimulusDuration": 1.5, "trial_count": 44, "ts": "orientation", "trial_type": "threshold_estimation", "exp_stage": "adaptive_procedure", "decision_var": 8.559945200120044, "response": "right", "rt": 0.25196437099657487, "FB": 1, "quest_estimate": 8.601276591068032, "trial_time": 3.242421615999774}
{"FBDuration": 0.5, "FBonset": 0, "ITI": 0.9875193260269559, "displayFB": true, "onset": 196.98867620535472, "punishment_amount": 0, "responseWindow": 1.5, "reward_amount": 1, "stim": {"motionDirection": "out", "oriBase": 30, "oriDirection": -1, "oriStrength": 0.775, "speedDirection": 1, "speedStrength": 0.775, "speed_start": 0.12, "speed_end": 0.12377882460065043, "ori_start": 30, "ori_end": 21.44022686228449, "motion_direction": "out"}, "stimResponseInterval": 0.37318111528441, "stimulusDuration": 1.5, "trial_count": 45, "ts": "orientation", "trial_type": "threshold_estimation", "exp_stage": "adaptive_procedure", "decision_var": 8.55977313771551, "response": "left", "rt": 0.29805444500379963, "FB": 1, "quest_estimate": 8.601022927560102, "trial_time": 2.705845643999055}
{"FBDuration": 0.5, "FBonset": 0, "ITI": 0.8005803195877201, "displayFB": true, "onset": 201.8493766466661, "punishment_amount": 0, "responseWindow": 1.5, "reward_amount": 1, "stim": {"motionDirection": "out", "oriBase": 30, "oriDirection": -1, "oriStrength": 0.775, "speedDirection": -1, "speedStrength": 0.775, "speed_start": 0.12, "speed_end": 0.11622117539934956, "ori_start": 30, "ori_end": 21.440374504008798, "motion_direction": "out"}, "stimResponseInterval": 0.33729200610641596, "stimulusDuration": 1.5, "trial_count": 46, "ts": "orientation", "trial_type": "threshold_estimation", "exp_stage": "adaptive_procedure", "decision_var": 8.559625495991202, "response": "left", "rt": 0.29159080400131643, "FB": 1, "quest_estimate": 8.600799482359623, "trial_time": 2.6682030969968764}
{"FBDuration": 0.5, "FBonset": 0, "ITI": 0.18147911417189178, "displayFB": true, "onset": 206.48724897236022, "punishment_amount": 0, "responseWindow": 1.5, "reward_amount": 1, "stim": {"motionDirection": "out", "oriBase": -60, "oriDirection": -1, "oriStrength": 0.775, "speedDirection": 1, "speedStrength": 0.775, "speed_start": 0.12, "speed_end": 0.12377882460065043, "ori_start": -60, "ori_end": -68.55949779251435, "motion_direction": "out"}, "stimResponseInterval": 0.8859254211932233, "stimulusDuration": 1.5, "trial_count": 47, "ts": "orientation", "trial_type": "threshold_estimation", "exp_stage": "adaptive_procedure", "decision_var": 8.559497792514353, "response": "left", "rt": 0.28392181199888, "FB": 1, "quest_estimate": 8.6005998455805, "trial_time": 3.20361698600027}
{"FBDuration": 0.5, "FBonset": 0, "ITI": 0.5057469370591061, "displayFB": true, "onset": 211.05465350772533, "punishment_amount": 0, "responseWindow": 1.5, "reward_amount": 1, "stim": {"motionDirection": "in", "oriBase": 30, "oriDirection": -1, "oriStrength": 0.775, "speedDirection": 1, "speedStrength": 0.775, "speed_start": 0.12, "speed_end": 0.12377882460065043, "ori_start": 30, "ori_end": 21.440613840414972, "motion_direction": "in"}, "stimResponseInterval": 0.961812410922982, "stimulusDuration": 1.5, "trial_count": 48, "ts": "orientation", "trial_type": "threshold_estimation", "exp_stage": "adaptive_procedure", "decision_var": 8.559386159585028, "response": "left", "rt": 0.26705220499570714, "FB": 1, "quest_estimate": 8.60041822561023, "trial_time": 3.2603356429972337}
{"FBDuration": 0.5, "FBonset": 0, "ITI": 0.7109647005582347, "displayFB": true, "onset": 216.0222128557074, "punishment_amount": 0, "responseWindow": 1.5, "reward_amount": 1, "stim": {"motionDirection": "in", "oriBase": 30, "oriDirection": 1, "oriStrength": 0.775, "speedDirection": -1, "speedStrength": 0.775, "speed_start": 0.12, "speed_end": 0.11622117539934956, "ori_start": 30, "ori_end": 38.55928722694887, "motion_direction": "in"}, "stimResponseInterval": 0.5383115951504882, "stimulusDuration": 1.5, "trial_count": 49, "ts": "orientation", "trial_type": "threshold_estimation", "exp_stage": "adaptive_procedure", "decision_var": 8.559287226948868, "response": "right", "rt": 0.2693254099940532, "FB": 1, "quest_estimate": 8.600249303476275, "trial_time": 2.8361569870030507}
{"FBDuration": 0.5, "FBonset": 0, "ITI": 0.5703432854011694, "displayFB": true, "onset": 220.77148915141612, "punishment_amount": 0, "responseWindow": 1.5, "reward_amount": 1, "stim": {"motionDirection": "in", "oriBase": 30, "oriDirection": -1, "oriStrength": 0.775, "speedDirection": -1, "speedStrength": 0.775, "speed_start": 0.12, "speed_end": 0.11622117539934956, "ori_start": 30, "ori_end": 21.440801980100982, "motion_direction": "in"}, "stimResponseInterval": 0.5781159259556912, "stimulusDuration": 1.5, "trial_count": 50, "ts": "orientation", "trial_type": "threshold_estimation", "exp_stage": "adaptive_procedure", "decision_var": 8.559198019899018, "response": "left", "rt": 0.26565726099943276, "FB": 1, "quest_estimate": 8.600088092263675, "trial_time": 2.871620655001607}
{"FBDuration": 0.5, "FBonset": 0, "ITI": 0.5920803749191341, "displayFB": true, "onset": 225.41994836277297, "punishment_amount": 0, "responseWindow": 1.5, "reward_amount": 1, "stim": {"motionDirection": "out", "oriBase": -60, "oriDirection": -1, "oriStrength": 0.775, "speedDirection": 1, "speedStrength": 0.775, "speed_start": 0.12, "speed_end": 0.12377882460065043, "ori_start": -60, "ori_end": -68.5591158696793, "motion_direction": "out"}, "stimResponseInterval": 0.24098409850584435, "stimulusDuration": 1.5, "trial_count": 51, "ts": "orientation", "trial_type": "threshold_estimation", "exp_stage": "adaptive_procedure", "decision_var": 8.559115869679303, "response": "left", "rt": 0.3800253369990969, "FB": 1, "quest_estimate": 8.599929799794598, "trial_time": 2.6485536100008176}
{"FBDuration": 0.5, "FBonset": 0, "ITI": 0.664985824477422, "displayFB": true, "onset": 229.75301283619794, "punishment_amount": 0, "responseWindow": 1.5, "reward_amount": 1, "stim": {"motionDirection": "in", "oriBase": 30, "oriDirection": 1, "oriStrength": 0.775, "speedDirection": 1, "speedStrength": 0.775, "speed_start": 0.12, "speed_end": 0.12377882460065043, "ori_start": 30, "ori_end": 39.71041572960563, "motion_direction": "in"}, "stimResponseInterval": 0.7066682191971259, "stimulusDuration": 1.5, "trial_count": 52, "ts": "orientation", "trial_type": "intensity-95", "exp_stage": "adaptive_procedure", "decision_var": 9.710415729605625, "response": "right", "rt": 0.3006308860058198, "FB": 1, "quest_estimate": 8.599929799794591, "trial_time": 3.0342702550042304}
{"FBDuration": 0.5, "FBonset": 0, "ITI": 0.7722224650768643, "displayFB": true, "onset": 234.62466687987248, "punishment_amount": 0, "responseWindow": 1.5, "reward_amount": 1, "stim": {"motionDirection": "in", "oriBase": 30, "oriDirection": 1, "oriStrength": 0.775, "speedDirection": 1, "speedStrength": 0.775, "speed_start": 0.12, "speed_end": 0.12377882460065043, "ori_start": 30, "ori_end": 39.71041572960563, "motion_direction": "in"}, "stimResponseInterval": 0.11336416457491061, "stimulusDuration": 1.5, "trial_count": 53, "ts": "orientation", "trial_type": "intensity-95", "exp_stage": "adaptive_procedure", "decision_var": 9.710415729605625, "response": "left", "rt": 0.5765226009971229, "FB": 0, "quest_estimate": 8.599929799794591, "trial_time": 2.7261585690066568}
{"FBDuration": 0.5, "FBonset": 0, "ITI": 0.826139302477138, "displayFB": true, "onset": 239.01025350952426, "punishment_amount": 0, "responseWindow": 1.5, "reward_amount": 1, "stim": {"motionDirection": "in", "oriBase": -60, "oriDirection": 1, "oriStrength": 0.775, "speedDirection": 1, "speedStrength": 0.775, "speed_start": 0.12, "speed_end": 0.12377882460065043, "ori_start": -60, "ori_end": -51.440961666516685, "motion_direction": "in"}, "stimResponseInterval": 0.40200716140447357, "stimulusDuration": 1.5, "trial_count": 54, "ts": "orientation", "trial_type": "threshold_estimation", "exp_stage": "adaptive_procedure", "decision_var": 8.559038333483318, "response": "right", "rt": 0.29051026800152613, "FB": 1, "quest_estimate": 8.599769692184925, "trial_time": 2.7254601160020684}
{"FBDuration": 0.5, "FBonset": 0, "ITI": 0.2995325714527499, "displayFB": true, "onset": 243.73839997340588, "punishment_amount": 0, "responseWindow": 1.5, "reward_amount": 1, "stim": {"motionDirection": "out", "oriBase": -60, "oriDirection": -1, "oriStrength": 0.775, "speedDirection": 1, "speedStrength": 0.775, "speed_start": 0.12, "speed_end": 0.12377882460065043, "ori_start": -60, "ori_end": -68.55896312164467, "motion_direction": "out"}, "stimResponseInterval": 0.654516452145689, "stimulusDuration": 1.5, "trial_count": 55, "ts": "orientation", "trial_type": "threshold_estimation", "exp_stage": "adaptive_procedure", "decision_var": 8.558963121644663, "response": "left", "rt": 0.32143638599518454, "FB": 1, "quest_estimate": 8.599602955426832, "trial_time": 3.0128724559981492}
{"FBDuration": 0.5, "FBonset": 0, "ITI": 0.4962486831387446, "displayFB": true, "onset": 248.1924489970043, "punishment_amount": 0, "responseWindow": 1.5, "reward_amount": 1, "stim": {"motionDirection": "out", "oriBase": -60, "oriDirection": 1, "oriStrength": 0.775, "speedDirection": 1, "speedStrength": 0.775, "speed_start": 0.12, "speed_end": 0.12377882460065043, "ori_start": -60, "ori_end": -53.97285270317221, "motion_direction": "out"}, "stimResponseInterval": 0.9248610513446538, "stimulusDuration": 1.5, "trial_count": 56, "ts": "orientation", "trial_type": "intensity-65", "exp_stage": "adaptive_procedure", "decision_var": 6.0271472968277955, "response": "right", "rt": 0.3283303270000033, "FB": 1, "quest_estimate": 8.599556940439186, "trial_time": 3.28493004199845}
{"FBDuration": 0.5, "FBonset": 0, "ITI": 0.1181154397964771, "displayFB": true, "onset": 253.1135587314877, "punishment_amount": 0, "responseWindow": 1.5, "reward_amount": 1, "stim": {"motionDirection": "out", "oriBase": 30, "oriDirection": -1, "oriStrength": 0.775, "speedDirection": -1, "speedStrength": 0.775, "speed_start": 0.12, "speed_end": 0.11622117539934956, "ori_start": 30, "ori_end": 23.39298087872151, "motion_direction": "out"}, "stimResponseInterval": 0.02467049010549638, "stimulusDuration": 1.5, "trial_count": 57, "ts": "orientation", "trial_type": "intensity-70", "exp_stage": "adaptive_procedure", "decision_var": 6.60701912127849, "response": "left", "rt": 0.391252107998298, "FB": 1, "quest_estimate": 8.599465309261472, "trial_time": 2.440627495998342}
{"FBDuration": 0.5, "FBonset": 0, "ITI": 0.7997499966041106, "displayFB": true, "onset": 256.7563446613897, "punishment_amount": 0, "responseWindow": 1.5, "reward_amount": 1, "stim": {"motionDirection": "in", "oriBase": -60, "oriDirection": -1, "oriStrength": 0.775, "speedDirection": 1, "speedStrength": 0.775, "speed_start": 0.12, "speed_end": 0.12377882460065043, "ori_start": -60, "ori_end": -68.55888747869231, "motion_direction": "in"}, "stimResponseInterval": 0.893732838782467, "stimulusDuration": 1.5, "trial_count": 58, "ts": "orientation", "trial_type": "threshold_estimation", "exp_stage": "adaptive_procedure", "decision_var": 8.558887478692316, "response": "left", "rt": 0.2586453310068464, "FB": 1, "quest_estimate": 8.599247250484495, "trial_time": 3.183834094001213}
{"FBDuration": 0.5, "FBonset": 0, "ITI": 0.5572334887531716, "displayFB": true, "onset": 261.94982749677627, "punishment_amount": 0, "responseWindow": 1.5, "reward_amount": 1, "stim": {"motionDirection": "out", "oriBase": 30, "oriDirection": 1, "oriStrength": 0.775, "speedDirection": 1, "speedStrength": 0.775, "speed_start": 0.12, "speed_end": 0.12377882460065043, "ori_start": 30, "ori_end": 38.558810163862056, "motion_direction": "out"}, "stimResponseInterval": 0.5400984399069588, "stimulusDuration": 1.5, "trial_count": 59, "ts": "orientation", "trial_type": "threshold_estimation", "exp_stage": "adaptive_procedure", "decision_var": 8.558810163862056, "response": "right", "rt": 0.2909792440041201, "FB": 1, "quest_estimate": 8.599000753055446, "trial_time": 2.8672543069988023}
{"FBDuration": 0.5, "FBonset": 0, "ITI": 0.22580197510224165, "displayFB": true, "onset": 266.5471594254364, "punishment_amount": 0, "responseWindow": 1.5, "reward_amount": 1, "stim": {"motionDirection": "in", "oriBase": 30, "oriDirection": 1, "oriStrength": 0.775, "speedDirection": -1, "speedStrength": 0.775, "speed_start": 0.12, "speed_end": 0.11622117539934956, "ori_start": 30, "ori_end": 38.55872851232071, "motion_direction": "in"}, "stimResponseInterval": 0.9873290964881043, "stimulusDuration": 1.5, "trial_count": 60, "ts": "orientation", "trial_type": "threshold_estimation", "exp_stage": "adaptive_procedure", "decision_var": 8.558728512320712, "response": "right", "rt": 0.3144528810007614, "FB": 1, "quest_estimate": 8.598716635675611, "trial_time": 3.3397375630011084}
{"FBDuration": 0.5, "FBonset": 0, "ITI": 0.13151133677907723, "displayFB": true, "onset": 271.26029049702674, "punishment_amount": 0, "responseWindow": 1.5, "reward_amount": 1, "stim": {"motionDirection": "out", "oriBase": 30, "oriDirection": 1, "oriStrength": 0.775, "speedDirection": -1, "speedStrength": 0.775, "speed_start": 0.12, "speed_end": 0.11622117539934956, "ori_start": 30, "ori_end": 38.558640176178635, "motion_direction": "out"}, "stimResponseInterval": 0.25053372451135925, "stimulusDuration": 1.5, "trial_count": 61, "ts": "orientation", "trial_type": "threshold_estimation", "exp_stage": "adaptive_procedure", "decision_var": 8.558640176178635, "response": "left", "rt": 0.406061164001585, "FB": 0, "quest_estimate": 8.599850240706726, "trial_time": 2.6954459070038865}
{"FBDuration": 0.5, "FBonset": 0, "ITI": 0.32778042534193286, "displayFB": true, "onset": 275.1423355583172, "punishment_amount": 0, "responseWindow": 1.5, "reward_amount": 1, "stim": {"motionDirection": "in", "oriBase": 30, "oriDirection": -1, "oriStrength": 0.775, "speedDirection": -1, "speedStrength": 0.775, "speed_start": 0.12, "speed_end": 0.11622117539934956, "ori_start": 30, "ori_end": 21.441029714944186, "motion_direction": "in"}, "stimResponseInterval": 0.41034325280531536, "stimulusDuration": 1.5, "trial_count": 62, "ts": "orientation", "trial_type": "threshold_estimation", "exp_stage": "adaptive_procedure", "decision_var": 8.558970285055814, "response": "left", "rt": 0.2964085650019115, "FB": 1, "quest_estimate": 8.599729036558877, "trial_time": 2.745856459994684}
{"FBDuration": 0.5, "FBonset": 0, "ITI": 0.32744083391396595, "displayFB": true, "onset": 279.38045923646445, "punishment_amount": 0, "responseWindow": 1.5, "reward_amount": 1, "stim": {"motionDirection": "in", "oriBase": -60, "oriDirection": -1, "oriStrength": 0.775, "speedDirection": -1, "speedStrength": 0.775, "speed_start": 0.12, "speed_end": 0.11622117539934956, "ori_start": -60, "ori_end": -69.71041572960563, "motion_direction": "in"}, "stimResponseInterval": 0.48733297715402624, "stimulusDuration": 1.5, "trial_count": 63, "ts": "orientation", "trial_type": "intensity-95", "exp_stage": "adaptive_procedure", "decision_var": 9.710415729605625, "response": "left", "rt": 0.3332018169967341, "FB": 1, "quest_estimate": 8.599729036558873, "trial_time": 2.853452073999506}
{"FBDuration": 0.5, "FBonset": 0, "ITI": 0.2751236180632567, "displayFB": true, "onset": 283.69523304753244, "punishment_amount": 0, "responseWindow": 1.5, "reward_amount": 1, "stim": {"motionDirection": "out", "oriBase": -60, "oriDirection": 1, "oriStrength": 0.775, "speedDirection": 1, "speedStrength": 0.775, "speed_start": 0.12, "speed_end": 0.12377882460065043, "ori_start": -60, "ori_end": -51.77331703094578, "motion_direction": "out"}, "stimResponseInterval": 0.9007840380108401, "stimulusDuration": 1.5, "trial_count": 64, "ts": "orientation", "trial_type": "intensity-85", "exp_stage": "adaptive_procedure", "decision_var": 8.226682969054215, "response": "right", "rt": 0.2754766500002006, "FB": 1, "quest_estimate": 8.599697366328687, "trial_time": 3.2101350070006447}
