{"FBDuration": 0.5, "FBonset": 0, "ITI": 0.114675213239121, "displayFB": true, "onset": 2, "punishment_amount": 0, "responseWindow": 1.5, "reward_amount": 1, "stim": {"motionDirection": "in", "oriBase": -60, "oriDirection": -1, "oriStrength": "medium", "speedDirection": 1, "speedStrength": "medium", "speed_start": 0.12, "speed_end": 0.12200343173259418, "ori_start": -60, "ori_end": -64.2745575312318, "motion_direction": "in"}, "stimResponseInterval": 0.13430435595300938, "stimulusDuration": 1.5, "trial_count": 1, "ts": "orientation", "exp_stage": "adaptive_procedure", "decision_var": 4.274557531231807, "response": "right", "rt": 0.3604611300106626, "FB": 0, "quest_estimate": 4.368755251034749, "trial_time": 2.5346109429956414}
{"FBDuration": 0.5, "FBonset": 0, "ITI": 0.43238083411292894, "displayFB": true, "onset": 5.74897956919213, "punishment_amount": 0, "responseWindow": 1.5, "reward_amount": 1, "stim": {"motionDirection": "in", "oriBase": -60, "oriDirection": -1, "oriStrength": "medium", "speedDirection": -1, "speedStrength": "medium", "speed_start": 0.12, "speed_end": 0.11799656826740582, "ori_start": -60, "ori_end": -64.29359497830889, "motion_direction": "in"}, "stimResponseInterval": 0.4706385435556757, "stimulusDuration": 1.5, "trial_count": 2, "ts": "orientation", "exp_stage": "adaptive_procedure", "decision_var": 4.293594978308892, "response": "left", "rt": 0.2724594620085554, "FB": 1, "quest_estimate": 4.35237693008774, "trial_time": 2.7868363409943413}
{"FBDuration": 0.5, "FBonset": 0, "ITI": 0.22823072937176336, "displayFB": true, "onset": 10.151998946860735, "punishment_amount": 0, "responseWindow": 1.5, "reward_amount": 1, "stim": {"motionDirection": "out", "oriBase": 30, "oriDirection": -1, "oriStrength": "medium", "speedDirection": -1, "speedStrength": "medium", "speed_start": 0.12, "speed_end": 0.11799656826740582, "ori_start": 30, "ori_end": 25.713891318100497, "motion_direction": "out"}, "stimResponseInterval": 0.14169238426907738, "stimulusDuration": 1.5, "trial_count": 3, "ts": "orientation", "exp_stage": "adaptive_procedure", "decision_var": 4.286108681899503, "response": "left", "rt": 0.4464362160069868, "FB": 1, "quest_estimate": 4.339017272587455, "trial_time": 2.6587030130031053}
{"FBDuration": 0.5, "FBonset": 0, "ITI": 0.5204646144003877, "displayFB": true, "onset": 14.021922060501575, "punishment_amount": 0, "responseWindow": 1.5, "reward_amount": 1, "stim": {"motionDirection": "out", "oriBase": 30, "oriDirection": -1, "oriStrength": "medium", "speedDirection": 1, "speedStrength": "medium", "speed_start": 0.12, "speed_end": 0.12200343173259418, "ori_start": 30, "ori_end": 25.720106356408287, "motion_direction": "out"}, "stimResponseInterval": 0.8250892202950992, "stimulusDuration": 1.5, "trial_count": 4, "ts": "orientation", "exp_stage": "adaptive_procedure", "decision_var": 4.279893643591713, "response": "left", "rt": 0.28563376900274307, "FB": 1, "quest_estimate": 4.327990987134424, "trial_time": 3.146066186003736}
{"FBDuration": 0.5, "FBonset": 0, "ITI": 0.030507589383388822, "displayFB": true, "onset": 18.867475895197064, "punishment_amount": 0, "responseWindow": 1.5, "reward_amount": 1, "stim": {"motionDirection": "out", "oriBase": -60, "oriDirection": -1, "oriStrength": "medium", "speedDirection": -1, "speedStrength": "medium", "speed_start": 0.12, "speed_end": 0.11799656826740582, "ori_start": -60, "ori_end": -64.2746382849702, "motion_direction": "out"}, "stimResponseInterval": 0.39122833272131385, "stimulusDuration": 1.5, "trial_count": 5, "ts": "orientation", "exp_stage": "adaptive_procedure", "decision_var": 4.274638284970202, "response": "right", "rt": 0.45294021199515555, "FB": 0, "quest_estimate": 4.355905004872216, "trial_time": 2.892597408994334}
{"FBDuration": 0.5, "FBonset": 0, "ITI": 0.21704640606339598, "displayFB": true, "onset": 22.789211817301766, "punishment_amount": 0, "responseWindow": 1.5, "reward_amount": 1, "stim": {"motionDirection": "out", "oriBase": 30, "oriDirection": -1, "oriStrength": "medium", "speedDirection": 1, "speedStrength": "medium", "speed_start": 0.12, "speed_end": 0.12200343173259418, "ori_start": 30, "ori_end": 25.70999166306461, "motion_direction": "out"}, "stimResponseInterval": 0.3521796962443374, "stimulusDuration": 1.5, "trial_count": 6, "ts": "orientation", "exp_stage": "adaptive_procedure", "decision_var": 4.29000833693539, "response": "left", "rt": 0.31144606399175245, "FB": 1, "quest_estimate": 4.343697041759661, "trial_time": 2.71232899199822}
{"FBDuration": 0.5, "FBonset": 0, "ITI": 0.6511444147632417, "displayFB": true, "onset": 26.8584379196095, "punishment_amount": 0, "responseWindow": 1.5, "reward_amount": 1, "stim": {"motionDirection": "in", "oriBase": -60, "oriDirection": -1, "oriStrength": "medium", "speedDirection": -1, "speedStrength": "medium", "speed_start": 0.12, "speed_end": 0.11799656826740582, "ori_start": -60, "ori_end": -64.28372457688948, "motion_direction": "in"}, "stimResponseInterval": 0.7758190127944511, "stimulusDuration": 1.5, "trial_count": 7, "ts": "orientation", "exp_stage": "adaptive_procedure", "decision_var": 4.283724576889487, "response": "right", "rt": 0.32040979200974107, "FB": 0, "quest_estimate": 4.371637590544477, "trial_time": 3.1258360609936062}
{"FBDuration": 0.5, "FBonset": 0, "ITI": 0.6987690568680109, "displayFB": true, "onset": 31.785401347167195, "punishment_amount": 0, "responseWindow": 1.5, "reward_amount": 1, "stim": {"motionDirection": "in", "oriBase": 30, "oriDirection": 1, "oriStrength": "medium", "speedDirection": -1, "speedStrength": "medium", "speed_start": 0.12, "speed_end": 0.11799656826740582, "ori_start": 30, "ori_end": 34.30228871067987, "motion_direction": "in"}, "stimResponseInterval": 0.5154169385208596, "stimulusDuration": 1.5, "trial_count": 8, "ts": "orientation", "exp_stage": "adaptive_procedure", "decision_var": 4.302288710679868, "response": "left", "rt": 0.4099499160074629, "FB": 0, "quest_estimate": 4.4062562565528225, "trial_time": 2.980236616989714}
{"FBDuration": 0.5, "FBonset": 0, "ITI": 0.8401919549353858, "displayFB": true, "onset": 36.49958734255607, "punishment_amount": 0, "responseWindow": 1.5, "reward_amount": 1, "stim": {"motionDirection": "in", "oriBase": 30, "oriDirection": -1, "oriStrength": "medium", "speedDirection": 1, "speedStrength": "medium", "speed_start": 0.12, "speed_end": 0.12200343173259418, "ori_start": 30, "ori_end": 25.668954234121582, "motion_direction": "in"}, "stimResponseInterval": 0.8356718795808775, "stimulusDuration": 1.5, "trial_count": 9, "ts": "orientation", "exp_stage": "adaptive_procedure", "decision_var": 4.331045765878418, "response": "left", "rt": 0.27907869999762625, "FB": 1, "quest_estimate": 4.387374270409364, "trial_time": 3.1620685840025544}
{"FBDuration": 0.5, "FBonset": 0, "ITI": 0.05760518197204867, "displayFB": true, "onset": 41.67545117707233, "punishment_amount": 0, "responseWindow": 1.5, "reward_amount": 1, "stim": {"motionDirection": "out", "oriBase": 30, "oriDirection": 1, "oriStrength": "medium", "speedDirection": -1, "speedStrength": "medium", "speed_start": 0.12, "speed_end": 0.11799656826740582, "ori_start": 30, "ori_end": 34.320030890238016, "motion_direction": "out"}, "stimResponseInterval": 0.8028982711229968, "stimulusDuration": 1.5, "trial_count": 10, "ts": "orientation", "exp_stage": "adaptive_procedure", "decision_var": 4.320030890238016, "response": "right", "rt": 0.27375464599754196, "FB": 1, "quest_estimate": 4.3718090568106085, "trial_time": 3.1404180789977545}
{"FBDuration": 0.5, "FBonset": 0, "ITI": 0.5843475432844321, "displayFB": true, "onset": 46.03595463016738, "punishment_amount": 0, "responseWindow": 1.5, "reward_amount": 1, "stim": {"motionDirection": "out", "oriBase": -60, "oriDirection": 1, "oriStrength": "medium", "speedDirection": 1, "speedStrength": "medium", "speed_start": 0.12, "speed_end": 0.12200343173259418, "ori_start": -60, "ori_end": -55.69233446597265, "motion_direction": "out"}, "stimResponseInterval": 0.08085095369576756, "stimulusDuration": 1.5, "trial_count": 11, "ts": "orientation", "exp_stage": "adaptive_procedure", "decision_var": 4.307665534027347, "response": "right", "rt": 0.6026316280040191, "FB": 1, "quest_estimate": 4.358976993365392, "trial_time": 2.73778157599736}
{"FBDuration": 0.5, "FBonset": 0, "ITI": 0.6107896584631702, "displayFB": true, "onset": 50.20115312714758, "punishment_amount": 0, "responseWindow": 1.5, "reward_amount": 1, "stim": {"motionDirection": "out", "oriBase": 30, "oriDirection": -1, "oriStrength": "medium", "speedDirection": 1, "speedStrength": "medium", "speed_start": 0.12, "speed_end": 0.12200343173259418, "ori_start": 30, "ori_end": 25.70349652322353, "motion_direction": "out"}, "stimResponseInterval": 0.6813276467372189, "stimulusDuration": 1.5, "trial_count": 12, "ts": "orientation", "exp_stage": "adaptive_procedure", "decision_var": 4.2965034767764685, "response": "left", "rt": 0.24680289399111643, "FB": 1, "quest_estimate": 4.348376779839068, "trial_time": 2.9749016249988927}
{"FBDuration": 0.5, "FBonset": 0, "ITI": 0.8548573239699664, "displayFB": true, "onset": 54.99327043234797, "punishment_amount": 0, "responseWindow": 1.5, "reward_amount": 1, "stim": {"motionDirection": "out", "oriBase": -60, "oriDirection": 1, "oriStrength": "medium", "speedDirection": 1, "speedStrength": "medium", "speed_start": 0.12, "speed_end": 0.12200343173259418, "ori_start": -60, "ori_end": -55.7103665092546, "motion_direction": "out"}, "stimResponseInterval": 0.008839218800549942, "stimulusDuration": 1.5, "trial_count": 13, "ts": "orientation", "exp_stage": "adaptive_procedure", "decision_var": 4.289633490745398, "response": "right", "rt": 0.34224992799863685, "FB": 1, "quest_estimate": 4.339586151958418, "trial_time": 2.4044921699969564}
{"FBDuration": 0.5, "FBonset": 0, "ITI": 0.3411881118499388, "displayFB": true, "onset": 59.35696697511849, "punishment_amount": 0, "responseWindow": 1.5, "reward_amount": 1, "stim": {"motionDirection": "in", "oriBase": -60, "oriDirection": 1, "oriStrength": "medium", "speedDirection": 1, "speedStrength": "medium", "speed_start": 0.12, "speed_end": 0.12200343173259418, "ori_start": -60, "ori_end": -55.715985021764126, "motion_direction": "in"}, "stimResponseInterval": 0.47840550699327733, "stimulusDuration": 1.5, "trial_count": 14, "ts": "orientation", "exp_stage": "adaptive_procedure", "decision_var": 4.28401497823587, "response": "left", "rt": 0.2744251990079647, "FB": 0, "quest_estimate": 4.359757807349801, "trial_time": 2.8242629439919256}
{"FBDuration": 0.5, "FBonset": 0, "ITI": 0.4600768947687436, "displayFB": true, "onset": 63.6765605939617, "punishment_amount": 0, "responseWindow": 1.5, "reward_amount": 1, "stim": {"motionDirection": "in", "oriBase": 30, "oriDirection": 1, "oriStrength": "medium", "speedDirection": 1, "speedStrength": "medium", "speed_start": 0.12, "speed_end": 0.12200343173259418, "ori_start": 30, "ori_end": 34.299669350043914, "motion_direction": "in"}, "stimResponseInterval": 0.8685423234774636, "stimulusDuration": 1.5, "trial_count": 15, "ts": "orientation", "exp_stage": "adaptive_procedure", "decision_var": 4.29966935004391, "response": "left", "rt": 0.32618447799177375, "FB": 0, "quest_estimate": 4.385115977320972, "trial_time": 3.2491712579940213}
{"FBDuration": 0.5, "FBonset": 0, "ITI": 0.900890182541008, "displayFB": true, "onset": 68.50517981220791, "punishment_amount": 0, "responseWindow": 1.5, "reward_amount": 1, "stim": {"motionDirection": "in", "oriBase": -60, "oriDirection": -1, "oriStrength": "medium", "speedDirection": 1, "speedStrength": "medium", "speed_start": 0.12, "speed_end": 0.12200343173259418, "ori_start": -60, "ori_end": -64.32674417250993, "motion_direction": "in"}, "stimResponseInterval": 0.148411316843433, "stimulusDuration": 1.5, "trial_count": 16, "ts": "orientation", "exp_stage": "adaptive_procedure", "decision_var": 4.32674417250993, "response": "left", "rt": 0.48035129900381435, "FB": 1, "quest_estimate": 4.3717099474013, "trial_time": 2.6766165240114788}
{"FBDuration": 0.5, "FBonset": 0, "ITI": 0.09180418909537524, "displayFB": true, "onset": 73.05448131159235, "punishment_amount": 0, "responseWindow": 1.5, "reward_amount": 1, "stim": {"motionDirection": "in", "oriBase": 30, "oriDirection": -1, "oriStrength": "medium", "speedDirection": -1, "speedStrength": "medium", "speed_start": 0.12, "speed_end": 0.11799656826740582, "ori_start": 30, "ori_end": 25.683606112359453, "motion_direction": "in"}, "stimResponseInterval": 0.6064146406238304, "stimulusDuration": 1.5, "trial_count": 17, "ts": "orientation", "exp_stage": "adaptive_procedure", "decision_var": 4.316393887640547, "response": "left", "rt": 0.308494355995208, "FB": 1, "quest_estimate": 4.360423637997492, "trial_time": 2.958058490010444}
{"FBDuration": 0.5, "FBonset": 0, "ITI": 0.28970730451398197, "displayFB": true, "onset": 77.25270014131156, "punishment_amount": 0, "responseWindow": 1.5, "reward_amount": 1, "stim": {"motionDirection": "in", "oriBase": 30, "oriDirection": 1, "oriStrength": "medium", "speedDirection": 1, "speedStrength": "medium", "speed_start": 0.12, "speed_end": 0.12200343173259418, "ori_start": 30, "ori_end": 34.304623524810275, "motion_direction": "in"}, "stimResponseInterval": 0.0350677084080977, "stimulusDuration": 1.5, "trial_count": 18, "ts": "orientation", "exp_stage": "adaptive_procedure", "decision_var": 4.304623524810275, "response": "right", "rt": 0.501454544995795, "FB": 1, "quest_estimate": 4.350902410459945, "trial_time": 2.593090641996241}
{"FBDuration": 0.5, "FBonset": 0, "ITI": 0.8828698975454472, "displayFB": true, "onset": 81.07747515423364, "punishment_amount": 0, "responseWindow": 1.5, "reward_amount": 1, "stim": {"motionDirection": "in", "oriBase": -60, "oriDirection": -1, "oriStrength": "medium", "speedDirection": -1, "speedStrength": "medium", "speed_start": 0.12, "speed_end": 0.11799656826740582, "ori_start": -60, "ori_end": -64.29518547795274, "motion_direction": "in"}, "stimResponseInterval": 0.305954331634804, "stimulusDuration": 1.5, "trial_count": 19, "ts": "orientation", "exp_stage": "adaptive_procedure", "decision_var": 4.295185477952749, "response": "right", "rt": 0.541963208001107, "FB": 0, "quest_estimate": 4.371736935668864, "trial_time": 2.904569090998848}
{"FBDuration": 0.5, "FBonset": 0, "ITI": 0.6322784528309124, "displayFB": true, "onset": 85.7662993834139, "punishment_amount": 0, "responseWindow": 1.5, "reward_amount": 1, "stim": {"motionDirection": "in", "oriBase": 30, "oriDirection": -1, "oriStrength": "medium", "speedDirection": 1, "speedStrength": "medium", "speed_start": 0.12, "speed_end": 0.12200343173259418, "ori_start": 30, "ori_end": 25.67991699066461, "motion_direction": "in"}, "stimResponseInterval": 0.8899514923617482, "stimulusDuration": 1.5, "trial_count": 20, "ts": "orientation", "exp_stage": "adaptive_procedure", "decision_var": 4.3200830093353915, "response": "left", "rt": 0.2278706959914416, "FB": 1, "quest_estimate": 4.36109577749626, "trial_time": 3.1844158960011555}
{"FBDuration": 0.5, "FBonset": 0, "ITI": 0.44157203999633754, "displayFB": true, "onset": 90.78852932860656, "punishment_amount": 0, "responseWindow": 1.5, "reward_amount": 1, "stim": {"motionDirection": "in", "oriBase": -60, "oriDirection": -1, "oriStrength": "medium", "speedDirection": 1, "speedStrength": "medium", "speed_start": 0.12, "speed_end": 0.12200343173259418, "ori_start": -60, "ori_end": -64.30927734259015, "motion_direction": "in"}, "stimResponseInterval": 0.2334900515949434, "stimulusDuration": 1.5, "trial_count": 21, "ts": "orientation", "exp_stage": "adaptive_procedure", "decision_var": 4.30927734259015, "response": "left", "rt": 0.32643246500811074, "FB": 1, "quest_estimate": 4.35200957334343, "trial_time": 2.5950733110075817}
{"FBDuration": 0.5, "FBonset": 0, "ITI": 0.30810664340682736, "displayFB": true, "onset": 94.96359142019784, "punishment_amount": 0, "responseWindow": 1.5, "reward_amount": 1, "stim": {"motionDirection": "in", "oriBase": 30, "oriDirection": -1, "oriStrength": "medium", "speedDirection": -1, "speedStrength": "medium", "speed_start": 0.12, "speed_end": 0.11799656826740582, "ori_start": 30, "ori_end": 25.7018480512196, "motion_direction": "in"}, "stimResponseInterval": 0.9782802169955365, "stimulusDuration": 1.5, "trial_count": 22, "ts": "orientation", "exp_stage": "adaptive_procedure", "decision_var": 4.298151948780401, "response": "left", "rt": 0.282146418991033, "FB": 1, "quest_estimate": 4.344234198601871, "trial_time": 3.3070770320045995}
{"FBDuration": 0.5, "FBonset": 0, "ITI": 0.008298378251013538, "displayFB": true, "onset": 99.7499782806002, "punishment_amount": 0, "responseWindow": 1.5, "reward_amount": 1, "stim": {"motionDirection": "out", "oriBase": -60, "oriDirection": 1, "oriStrength": "medium", "speedDirection": -1, "speedStrength": "medium", "speed_start": 0.12, "speed_end": 0.11799656826740582, "ori_start": -60, "ori_end": -55.70865974857151, "motion_direction": "out"}, "stimResponseInterval": 0.8949460295619134, "stimulusDuration": 1.5, "trial_count": 23, "ts": "orientation", "exp_stage": "adaptive_procedure", "decision_var": 4.291340251428487, "response": "right", "rt": 0.300160158003564, "FB": 1, "quest_estimate": 4.337568441235803, "trial_time": 3.25664412099286}
{"FBDuration": 0.5, "FBonset": 0, "ITI": 0.9262565198612236, "displayFB": true, "onset": 104.15322268841312, "punishment_amount": 0, "responseWindow": 1.5, "reward_amount": 1, "stim": {"motionDirection": "in", "oriBase": 30, "oriDirection": -1, "oriStrength": "medium", "speedDirection": 1, "speedStrength": "medium", "speed_start": 0.12, "speed_end": 0.12200343173259418, "ori_start": 30, "ori_end": 25.714249816698704, "motion_direction": "in"}, "stimResponseInterval": 0.9719947320759414, "stimulusDuration": 1.5, "trial_count": 24, "ts": "orientation", "exp_stage": "adaptive_procedure", "decision_var": 4.285750183301296, "response": "left", "rt": 0.27822121400095057, "FB": 1, "quest_estimate": 4.331845813611135, "trial_time": 3.306311356005608}
