{"stimulusDuration": 2, "reward_amount": 1, "FBonset": 0.5, "stim": {"speedDirection": 1, "oriDirection": -1, "oriBase": -60, "speedStrength": "easy", "oriStrength": "hard", "motionDirection": "out"}, "ITI": 1.5985439112683486, "rt": 19.460041046142578, "FBDuration": 0.5, "trial_count": 1, "ts": "motion", "response": "up", "onset": 2, "quest_estimate": 0.01882316900825714, "FB": 1, "displayFB": true, "actualOnsetTime": 2.000793933868408, "punishment_amount": 0, "responseWindow": 1.5, "decision_var": 0.022039697920999718, "stimResponseInterval": 1}
{"stimulusDuration": 2, "reward_amount": 1, "FBonset": 0.5, "stim": {"speedDirection": -1, "oriDirection": -1, "oriBase": 30, "speedStrength": "hard", "oriStrength": "easy", "motionDirection": "out"}, "ITI": 1.3370403569070461, "rt": 26.8471519947052, "FBDuration": 0.5, "trial_count": 2, "ts": "motion", "response": "up", "onset": 9.098543911268349, "quest_estimate": 0.007998458864073063, "FB": 0, "displayFB": true, "actualOnsetTime": 9.099273920059204, "punishment_amount": 0, "responseWindow": 1.5, "decision_var": 0.007199488563654044, "stimResponseInterval": 1}
{"stimulusDuration": 2, "reward_amount": 1, "FBonset": 0.5, "stim": {"speedDirection": -1, "oriDirection": -1, "oriBase": -60, "speedStrength": "hard", "oriStrength": "hard", "motionDirection": "out"}, "ITI": 1.5112526725596227, "rt": 33.25554895401001, "FBDuration": 0.5, "trial_count": 3, "ts": "motion", "response": "down", "onset": 15.935584268175395, "quest_estimate": 0.006835410159266961, "FB": 1, "displayFB": true, "actualOnsetTime": 15.936387062072754, "punishment_amount": 0, "responseWindow": 1.5, "decision_var": 0.009987831688878034, "stimResponseInterval": 1}
{"stimulusDuration": 2, "reward_amount": 1, "FBonset": 0.5, "stim": {"speedDirection": 1, "oriDirection": -1, "oriBase": -60, "speedStrength": "easy", "oriStrength": "easy", "motionDirection": "in"}, "ITI": 1.8593928824298072, "rt": 40.46073794364929, "FBDuration": 0.5, "trial_count": 4, "ts": "motion", "response": "up", "onset": 22.946836940735018, "quest_estimate": 0.023339713413437796, "FB": 1, "displayFB": true, "actualOnsetTime": 22.94759511947632, "punishment_amount": 0, "responseWindow": 1.5, "decision_var": 0.026686089586300754, "stimResponseInterval": 1}
{"stimulusDuration": 2, "reward_amount": 1, "FBonset": 0.5, "stim": {"speedDirection": -1, "oriDirection": -1, "oriBase": 30, "speedStrength": "easy", "oriStrength": "easy", "motionDirection": "out"}, "ITI": 1.9617420825193999, "rt": 47.791471004486084, "FBDuration": 0.5, "trial_count": 5, "ts": "motion", "response": "down", "onset": 30.306229823164827, "quest_estimate": 0.018122621440835693, "FB": 1, "displayFB": true, "actualOnsetTime": 30.306955099105835, "punishment_amount": 0, "responseWindow": 1.5, "decision_var": 0.021298837581324934, "stimResponseInterval": 1}
{"stimulusDuration": 2, "reward_amount": 1, "FBonset": 0.5, "stim": {"speedDirection": -1, "oriDirection": 1, "oriBase": 30, "speedStrength": "hard", "oriStrength": "hard", "motionDirection": "in"}, "ITI": 1.6179494362206561, "rt": 55.80732703208923, "FBDuration": 0.5, "trial_count": 6, "ts": "motion", "response": "down", "onset": 37.76797190568423, "quest_estimate": 0.01309233443741779, "FB": 1, "displayFB": true, "actualOnsetTime": 37.76871705055237, "punishment_amount": 0, "responseWindow": 1.5, "decision_var": 0.016276942388784323, "stimResponseInterval": 1}
{"stimulusDuration": 2, "reward_amount": 1, "FBonset": 0.5, "stim": {"speedDirection": 1, "oriDirection": 1, "oriBase": -60, "speedStrength": "hard", "oriStrength": "hard", "motionDirection": "out"}, "ITI": 1.2714266989137797, "rt": 62.3369619846344, "FBDuration": 0.5, "trial_count": 7, "ts": "motion", "response": "up", "onset": 44.88592134190488, "quest_estimate": 0.005686306138994748, "FB": 1, "displayFB": true, "actualOnsetTime": 44.88660907745361, "punishment_amount": 0, "responseWindow": 1.5, "decision_var": 0.008814639427218208, "stimResponseInterval": 1}
{"stimulusDuration": 2, "reward_amount": 1, "FBonset": 0.5, "stim": {"speedDirection": -1, "oriDirection": 1, "oriBase": 30, "speedStrength": "easy", "oriStrength": "hard", "motionDirection": "in"}, "ITI": 1.4645589461943027, "rt": 68.9287588596344, "FBDuration": 0.5, "trial_count": 8, "ts": "motion", "response": "down", "onset": 51.65734804081866, "quest_estimate": 0.022625815570222974, "FB": 1, "displayFB": true, "actualOnsetTime": 51.65805006027222, "punishment_amount": 0, "responseWindow": 1.5, "decision_var": 0.025941986922128, "stimResponseInterval": 1}
{"stimulusDuration": 2, "reward_amount": 1, "FBonset": 0.5, "stim": {"speedDirection": 1, "oriDirection": -1, "oriBase": -60, "speedStrength": "easy", "oriStrength": "hard", "motionDirection": "in"}, "ITI": 1.6303028741523726, "rt": 76.2205159664154, "FBDuration": 0.5, "trial_count": 9, "ts": "motion", "response": "down", "onset": 58.62190698701296, "quest_estimate": 0.02673225330785762, "FB": 0, "displayFB": true, "actualOnsetTime": 58.622565031051636, "punishment_amount": 0, "responseWindow": 1.5, "decision_var": 0.025205636572937562, "stimResponseInterval": 1}
{"stimulusDuration": 2, "reward_amount": 1, "FBonset": 0.5, "stim": {"speedDirection": 1, "oriDirection": -1, "oriBase": 30, "speedStrength": "easy", "oriStrength": "easy", "motionDirection": "out"}, "ITI": 1.453414988366964, "rt": 83.14663600921631, "FBDuration": 0.5, "trial_count": 10, "ts": "motion", "response": "up", "onset": 65.75220986116534, "quest_estimate": 0.01743134047379502, "FB": 1, "displayFB": true, "actualOnsetTime": 65.75277805328369, "punishment_amount": 0, "responseWindow": 1.5, "decision_var": 0.020566439057751643, "stimResponseInterval": 1}
{"stimulusDuration": 2, "reward_amount": 1, "FBonset": 0.5, "stim": {"speedDirection": -1, "oriDirection": -1, "oriBase": -60, "speedStrength": "easy", "oriStrength": "easy", "motionDirection": "out"}, "ITI": 1.3847571502987672, "rt": 90.1035590171814, "FBDuration": 0.5, "trial_count": 11, "ts": "motion", "response": "down", "onset": 72.7056248495323, "quest_estimate": 0.016749234527830476, "FB": 1, "displayFB": true, "actualOnsetTime": 72.7064700126648, "punishment_amount": 0, "responseWindow": 1.5, "decision_var": 0.01984237218274587, "stimResponseInterval": 1}
{"stimulusDuration": 2, "reward_amount": 1, "FBonset": 0.5, "stim": {"speedDirection": -1, "oriDirection": 1, "oriBase": -60, "speedStrength": "easy", "oriStrength": "easy", "motionDirection": "out"}, "ITI": 1.0009778299565788, "rt": 96.91944789886475, "FBDuration": 0.5, "trial_count": 12, "ts": "motion", "response": "down", "onset": 79.59038199983107, "quest_estimate": 0.016077919026672494, "FB": 1, "displayFB": true, "actualOnsetTime": 79.59106707572937, "punishment_amount": 0, "responseWindow": 1.5, "decision_var": 0.019126516698491053, "stimResponseInterval": 1}
{"stimulusDuration": 2, "reward_amount": 1, "FBonset": 0.5, "stim": {"speedDirection": 1, "oriDirection": 1, "oriBase": -60, "speedStrength": "easy", "oriStrength": "easy", "motionDirection": "in"}, "ITI": 1.5762842060160203, "rt": 103.50686001777649, "FBDuration": 0.5, "trial_count": 13, "ts": "motion", "response": "up", "onset": 86.09135982978765, "quest_estimate": 0.026027020864170587, "FB": 1, "displayFB": true, "actualOnsetTime": 86.09224605560303, "punishment_amount": 0, "responseWindow": 1.5, "decision_var": 0.029362483470456086, "stimResponseInterval": 1}
{"stimulusDuration": 2, "reward_amount": 1, "FBonset": 0.5, "stim": {"speedDirection": -1, "oriDirection": -1, "oriBase": 30, "speedStrength": "hard", "oriStrength": "hard", "motionDirection": "out"}, "ITI": 1.9133307857630477, "rt": 110.42573189735413, "FBDuration": 0.5, "trial_count": 14, "ts": "motion", "response": "down", "onset": 93.16764403580368, "quest_estimate": 0.004552342484836033, "FB": 1, "displayFB": true, "actualOnsetTime": 93.16837096214294, "punishment_amount": 0, "responseWindow": 1.5, "decision_var": 0.00765552291760558, "stimResponseInterval": 1}
{"stimulusDuration": 2, "reward_amount": 1, "FBonset": 0.5, "stim": {"speedDirection": -1, "oriDirection": 1, "oriBase": 30, "speedStrength": "easy", "oriStrength": "easy", "motionDirection": "out"}, "ITI": 1.4471315327115217, "rt": 118.02799892425537, "FBDuration": 0.5, "trial_count": 15, "ts": "motion", "response": "down", "onset": 100.58097482156673, "quest_estimate": 0.015415571463708505, "FB": 1, "displayFB": true, "actualOnsetTime": 100.5817379951477, "punishment_amount": 0, "responseWindow": 1.5, "decision_var": 0.018420551091931976, "stimResponseInterval": 1}
{"stimulusDuration": 2, "reward_amount": 1, "FBonset": 0.5, "stim": {"speedDirection": -1, "oriDirection": -1, "oriBase": -60, "speedStrength": "hard", "oriStrength": "easy", "motionDirection": "in"}, "ITI": 1.4170013631544647, "rt": 124.86019492149353, "FBDuration": 0.5, "trial_count": 16, "ts": "motion", "response": "down", "onset": 107.52810635427825, "quest_estimate": 0.01192206930456239, "FB": 1, "displayFB": true, "actualOnsetTime": 107.52899503707886, "punishment_amount": 0, "responseWindow": 1.5, "decision_var": 0.015081435200208899, "stimResponseInterval": 1}
{"stimulusDuration": 2, "reward_amount": 1, "FBonset": 0.5, "stim": {"speedDirection": 1, "oriDirection": -1, "oriBase": -60, "speedStrength": "hard", "oriStrength": "easy", "motionDirection": "in"}, "ITI": 1.477902224090069, "rt": 131.9790198802948, "FBDuration": 0.5, "trial_count": 17, "ts": "motion", "response": "up", "onset": 114.44510771743272, "quest_estimate": 0.010767792910165868, "FB": 1, "displayFB": true, "actualOnsetTime": 114.44578409194946, "punishment_amount": 0, "responseWindow": 1.5, "decision_var": 0.013900910297010793, "stimResponseInterval": 1}
{"stimulusDuration": 2, "reward_amount": 1, "FBonset": 0.5, "stim": {"speedDirection": -1, "oriDirection": -1, "oriBase": 30, "speedStrength": "easy", "oriStrength": "easy", "motionDirection": "in"}, "ITI": 1.6479975934738387, "rt": 138.78605198860168, "FBDuration": 0.5, "trial_count": 18, "ts": "motion", "response": "down", "onset": 121.42300994152279, "quest_estimate": 0.025330750277518473, "FB": 1, "displayFB": true, "actualOnsetTime": 121.4238440990448, "punishment_amount": 0, "responseWindow": 1.5, "decision_var": 0.02864067752840975, "stimResponseInterval": 1}
{"stimulusDuration": 2, "reward_amount": 1, "FBonset": 0.5, "stim": {"speedDirection": 1, "oriDirection": -1, "oriBase": -60, "speedStrength": "hard", "oriStrength": "easy", "motionDirection": "out"}, "ITI": 1.440112953241787, "rt": 145.97708988189697, "FBDuration": 0.5, "trial_count": 19, "ts": "motion", "response": "up", "onset": 128.57100753499662, "quest_estimate": 0.0034313687575616494, "FB": 1, "displayFB": true, "actualOnsetTime": 128.57168912887573, "punishment_amount": 0, "responseWindow": 1.5, "decision_var": 0.006511633891129506, "stimResponseInterval": 1}
{"stimulusDuration": 2, "reward_amount": 1, "FBonset": 0.5, "stim": {"speedDirection": -1, "oriDirection": -1, "oriBase": -60, "speedStrength": "easy", "oriStrength": "easy", "motionDirection": "out"}, "ITI": 1.708014088621684, "rt": 153.11828804016113, "FBDuration": 0.5, "trial_count": 20, "ts": "motion", "response": "down", "onset": 135.51112048823842, "quest_estimate": 0.014762125391370756, "FB": 1, "displayFB": true, "actualOnsetTime": 135.51194310188293, "punishment_amount": 0, "responseWindow": 1.5, "decision_var": 0.01772253850399528, "stimResponseInterval": 1}
{"stimulusDuration": 2, "reward_amount": 1, "FBonset": 0.5, "stim": {"speedDirection": -1, "oriDirection": -1, "oriBase": 30, "speedStrength": "easy", "oriStrength": "hard", "motionDirection": "in"}, "ITI": 1.9139435797842759, "rt": 160.2371690273285, "FBDuration": 0.5, "trial_count": 21, "ts": "motion", "response": "down", "onset": 142.7191345768601, "quest_estimate": 0.024641491195176307, "FB": 1, "displayFB": true, "actualOnsetTime": 142.7200300693512, "punishment_amount": 0, "responseWindow": 1.5, "decision_var": 0.027927494688971898, "stimResponseInterval": 1}
{"stimulusDuration": 2, "reward_amount": 1, "FBonset": 0.5, "stim": {"speedDirection": 1, "oriDirection": 1, "oriBase": 30, "speedStrength": "easy", "oriStrength": "hard", "motionDirection": "out"}, "ITI": 1.18673719384211, "rt": 167.41237783432007, "FBDuration": 0.5, "trial_count": 22, "ts": "motion", "response": "up", "onset": 150.1330781566444, "quest_estimate": 0.01411752134678429, "FB": 1, "displayFB": true, "actualOnsetTime": 150.1336030960083, "punishment_amount": 0, "responseWindow": 1.5, "decision_var": 0.017032484407226683, "stimResponseInterval": 1}
{"stimulusDuration": 2, "reward_amount": 1, "FBonset": 0.5, "stim": {"speedDirection": 1, "oriDirection": 1, "oriBase": 30, "speedStrength": "hard", "oriStrength": "hard", "motionDirection": "out"}, "ITI": 1.12439057381914, "rt": 174.49046397209167, "FBDuration": 0.5, "trial_count": 23, "ts": "motion", "response": "up", "onset": 156.8198153504865, "quest_estimate": 0.002324589477278184, "FB": 1, "displayFB": true, "actualOnsetTime": 156.82057809829712, "punishment_amount": 0, "responseWindow": 1.5, "decision_var": 0.005380993089826959, "stimResponseInterval": 1}
{"stimulusDuration": 2, "reward_amount": 1, "FBonset": 0.5, "stim": {"speedDirection": 1, "oriDirection": 1, "oriBase": -60, "speedStrength": "hard", "oriStrength": "easy", "motionDirection": "in"}, "ITI": 1.1798864270175682, "rt": 180.99686288833618, "FBDuration": 0.5, "trial_count": 24, "ts": "motion", "response": "up", "onset": 163.44420592430563, "quest_estimate": 0.009627275491022446, "FB": 1, "displayFB": true, "actualOnsetTime": 163.44494009017944, "punishment_amount": 0, "responseWindow": 1.5, "decision_var": 0.012736510028021272, "stimResponseInterval": 1}
{"stimulusDuration": 2, "reward_amount": 1, "FBonset": 0.5, "stim": {"speedDirection": -1, "oriDirection": 1, "oriBase": -60, "speedStrength": "easy", "oriStrength": "easy", "motionDirection": "in"}, "ITI": 1.3765448409481338, "rt": 187.58249187469482, "FBDuration": 0.5, "trial_count": 25, "ts": "motion", "response": "down", "onset": 170.1240923513232, "quest_estimate": 0.023959124049718915, "FB": 1, "displayFB": true, "actualOnsetTime": 170.1247501373291, "punishment_amount": 0, "responseWindow": 1.5, "decision_var": 0.027220912516343718, "stimResponseInterval": 1}
{"stimulusDuration": 2, "reward_amount": 1, "FBonset": 0.5, "stim": {"speedDirection": -1, "oriDirection": 1, "oriBase": 30, "speedStrength": "hard", "oriStrength": "easy", "motionDirection": "in"}, "ITI": 1.7857807645447816, "rt": 194.33688688278198, "FBDuration": 0.5, "trial_count": 26, "ts": "motion", "response": "down", "onset": 177.00063719227134, "quest_estimate": 0.008500045777414575, "FB": 1, "displayFB": true, "actualOnsetTime": 177.00151801109314, "punishment_amount": 0, "responseWindow": 1.5, "decision_var": 0.011586165526940244, "stimResponseInterval": 1}
{"stimulusDuration": 2, "reward_amount": 1, "FBonset": 0.5, "stim": {"speedDirection": -1, "oriDirection": -1, "oriBase": -60, "speedStrength": "hard", "oriStrength": "hard", "motionDirection": "in"}, "ITI": 1.9630546914969442, "rt": 201.70183992385864, "FBDuration": 0.5, "trial_count": 27, "ts": "motion", "response": "down", "onset": 184.28641795681614, "quest_estimate": 0.007387291302313838, "FB": 1, "displayFB": true, "actualOnsetTime": 184.28710293769836, "punishment_amount": 0, "responseWindow": 1.5, "decision_var": 0.0104492090562085, "stimResponseInterval": 1}
{"stimulusDuration": 2, "reward_amount": 1, "FBonset": 0.5, "stim": {"speedDirection": 1, "oriDirection": 1, "oriBase": 30, "speedStrength": "hard", "oriStrength": "hard", "motionDirection": "in"}, "ITI": 1.1165634173695294, "rt": 209.28349089622498, "FBDuration": 0.5, "trial_count": 28, "ts": "motion", "response": "up", "onset": 191.7494726483131, "quest_estimate": 0.006286915890436347, "FB": 1, "displayFB": true, "actualOnsetTime": 191.75033497810364, "punishment_amount": 0, "responseWindow": 1.5, "decision_var": 0.009326938725478157, "stimResponseInterval": 1}
{"stimulusDuration": 2, "reward_amount": 1, "FBonset": 0.5, "stim": {"speedDirection": -1, "oriDirection": -1, "oriBase": -60, "speedStrength": "easy", "oriStrength": "hard", "motionDirection": "out"}, "ITI": 1.5357766794474017, "rt": 215.797837972641, "FBDuration": 0.5, "trial_count": 29, "ts": "motion", "response": "down", "onset": 198.3660360656826, "quest_estimate": 0.013481706222160633, "FB": 1, "displayFB": true, "actualOnsetTime": 198.3668429851532, "punishment_amount": 0, "responseWindow": 1.5, "decision_var": 0.016350311008075005, "stimResponseInterval": 1}
{"stimulusDuration": 2, "reward_amount": 1, "FBonset": 0.5, "stim": {"speedDirection": -1, "oriDirection": -1, "oriBase": -60, "speedStrength": "easy", "oriStrength": "hard", "motionDirection": "in"}, "ITI": 1.4165731167102562, "rt": 222.74200201034546, "FBDuration": 0.5, "trial_count": 30, "ts": "motion", "response": "down", "onset": 205.40181274513, "quest_estimate": 0.023283538982590363, "FB": 1, "displayFB": true, "actualOnsetTime": 205.40237593650818, "punishment_amount": 0, "responseWindow": 1.5, "decision_var": 0.026520831459232758, "stimResponseInterval": 1}
{"stimulusDuration": 2, "reward_amount": 1, "FBonset": 0.5, "stim": {"speedDirection": -1, "oriDirection": 1, "oriBase": -60, "speedStrength": "hard", "oriStrength": "easy", "motionDirection": "in"}, "ITI": 1.435260706196747, "rt": 229.71869087219238, "FBDuration": 0.5, "trial_count": 31, "ts": "motion", "response": "down", "onset": 212.31838586184026, "quest_estimate": 0.005200111862352322, "FB": 1, "displayFB": true, "actualOnsetTime": 212.31919598579407, "punishment_amount": 0, "responseWindow": 1.5, "decision_var": 0.008217156287512364, "stimResponseInterval": 1}
{"stimulusDuration": 2, "reward_amount": 1, "FBonset": 0.5, "stim": {"speedDirection": -1, "oriDirection": -1, "oriBase": -60, "speedStrength": "easy", "oriStrength": "hard", "motionDirection": "out"}, "ITI": 1.3780981293351462, "rt": 236.49720788002014, "FBDuration": 0.5, "trial_count": 32, "ts": "motion", "response": "down", "onset": 219.253646568037, "quest_estimate": 0.01285620745794784, "FB": 1, "displayFB": true, "actualOnsetTime": 219.25452494621277, "punishment_amount": 0, "responseWindow": 1.5, "decision_var": 0.01567585702784577, "stimResponseInterval": 1}
{"stimulusDuration": 2, "reward_amount": 1, "FBonset": 0.5, "stim": {"speedDirection": 1, "oriDirection": 1, "oriBase": 30, "speedStrength": "hard", "oriStrength": "easy", "motionDirection": "in"}, "ITI": 1.1292426046693915, "rt": 243.5154209136963, "FBDuration": 0.5, "trial_count": 33, "ts": "motion", "response": "up", "onset": 226.13174469737214, "quest_estimate": 0.004124863758226779, "FB": 1, "displayFB": true, "actualOnsetTime": 226.13256907463074, "punishment_amount": 0, "responseWindow": 1.5, "decision_var": 0.0071211743901660185, "stimResponseInterval": 1}
{"stimulusDuration": 2, "reward_amount": 1, "FBonset": 0.5, "stim": {"speedDirection": -1, "oriDirection": 1, "oriBase": 30, "speedStrength": "easy", "oriStrength": "hard", "motionDirection": "in"}, "ITI": 1.0731212392736011, "rt": 250.124577999115, "FBDuration": 0.5, "trial_count": 34, "ts": "motion", "response": "down", "onset": 232.76098730204154, "quest_estimate": 0.02261463549684168, "FB": 1, "displayFB": true, "actualOnsetTime": 232.76167392730713, "punishment_amount": 0, "responseWindow": 1.5, "decision_var": 0.025827140200960164, "stimResponseInterval": 1}
{"stimulusDuration": 2, "reward_amount": 1, "FBonset": 0.5, "stim": {"speedDirection": -1, "oriDirection": 1, "oriBase": -60, "speedStrength": "easy", "oriStrength": "hard", "motionDirection": "in"}, "ITI": 1.8795450510581304, "rt": 256.71276092529297, "FBDuration": 0.5, "trial_count": 35, "ts": "motion", "response": "up", "onset": 239.33410854131515, "quest_estimate": 0.02646408630656353, "FB": 0, "displayFB": true, "actualOnsetTime": 239.3349311351776, "punishment_amount": 0, "responseWindow": 1.5, "decision_var": 0.025139611501363027, "stimResponseInterval": 1}
{"stimulusDuration": 2, "reward_amount": 1, "FBonset": 0.5, "stim": {"speedDirection": -1, "oriDirection": 1, "oriBase": 30, "speedStrength": "hard", "oriStrength": "hard", "motionDirection": "out"}, "ITI": 1.0141013839466333, "rt": 263.99895000457764, "FBDuration": 0.5, "trial_count": 36, "ts": "motion", "response": "up", "onset": 246.71365359237328, "quest_estimate": 0.004937307486646822, "FB": 0, "displayFB": true, "actualOnsetTime": 246.71453595161438, "punishment_amount": 0, "responseWindow": 1.5, "decision_var": 0.004264553044470543, "stimResponseInterval": 1}
{"stimulusDuration": 2, "reward_amount": 1, "FBonset": 0.5, "stim": {"speedDirection": -1, "oriDirection": 1, "oriBase": -60, "speedStrength": "hard", "oriStrength": "easy", "motionDirection": "in"}, "ITI": 1.0551169121965256, "rt": 270.50621485710144, "FBDuration": 0.5, "trial_count": 37, "ts": "motion", "response": "down", "onset": 253.22775497631991, "quest_estimate": 0.0030623662411436575, "FB": 1, "displayFB": true, "actualOnsetTime": 253.228600025177, "punishment_amount": 0, "responseWindow": 1.5, "decision_var": 0.006036806739635366, "stimResponseInterval": 1}
{"stimulusDuration": 2, "reward_amount": 1, "FBonset": 0.5, "stim": {"speedDirection": 1, "oriDirection": -1, "oriBase": 30, "speedStrength": "easy", "oriStrength": "hard", "motionDirection": "out"}, "ITI": 1.6217003593292139, "rt": 277.205778837204, "FBDuration": 0.5, "trial_count": 38, "ts": "motion", "response": "up", "onset": 259.78287188851647, "quest_estimate": 0.012239358369712489, "FB": 1, "displayFB": true, "actualOnsetTime": 259.7834379673004, "punishment_amount": 0, "responseWindow": 1.5, "decision_var": 0.015010766245517823, "stimResponseInterval": 1}
{"stimulusDuration": 2, "reward_amount": 1, "FBonset": 0.5, "stim": {"speedDirection": -1, "oriDirection": -1, "oriBase": -60, "speedStrength": "easy", "oriStrength": "easy", "motionDirection": "in"}, "ITI": 1.6539212237575276, "rt": 284.2606120109558, "FBDuration": 0.5, "trial_count": 39, "ts": "motion", "response": "down", "onset": 266.9045722478457, "quest_estimate": 0.025805590359004364, "FB": 1, "displayFB": true, "actualOnsetTime": 266.9053490161896, "punishment_amount": 0, "responseWindow": 1.5, "decision_var": 0.029021580662146614, "stimResponseInterval": 1}
{"stimulusDuration": 2, "reward_amount": 1, "FBonset": 0.5, "stim": {"speedDirection": -1, "oriDirection": 1, "oriBase": 30, "speedStrength": "hard", "oriStrength": "hard", "motionDirection": "in"}, "ITI": 1.4245751089327374, "rt": 291.5000669956207, "FBDuration": 0.5, "trial_count": 40, "ts": "motion", "response": "down", "onset": 274.05849347160324, "quest_estimate": 0.0020122233017546357, "FB": 1, "displayFB": true, "actualOnsetTime": 274.05917406082153, "punishment_amount": 0, "responseWindow": 1.5, "decision_var": 0.004965357573703658, "stimResponseInterval": 1}
{"stimulusDuration": 2, "reward_amount": 1, "FBonset": 0.5, "stim": {"speedDirection": -1, "oriDirection": 1, "oriBase": -60, "speedStrength": "hard", "oriStrength": "hard", "motionDirection": "out"}, "ITI": 1.275273570239801, "rt": 298.3814640045166, "FBDuration": 0.5, "trial_count": 41, "ts": "motion", "response": "down", "onset": 280.983068580536, "quest_estimate": 0.00384984869087128, "FB": 1, "displayFB": true, "actualOnsetTime": 280.9836781024933, "punishment_amount": 0, "responseWindow": 1.5, "decision_var": 0.006866263602796997, "stimResponseInterval": 1}
{"stimulusDuration": 2, "reward_amount": 1, "FBonset": 0.5, "stim": {"speedDirection": -1, "oriDirection": 1, "oriBase": -60, "speedStrength": "hard", "oriStrength": "hard", "motionDirection": "in"}, "ITI": 1.5060962288106075, "rt": 305.0250999927521, "FBDuration": 0.5, "trial_count": 42, "ts": "motion", "response": "down", "onset": 287.7583421507758, "quest_estimate": 0.0009740578357723684, "FB": 1, "displayFB": true, "actualOnsetTime": 287.7591600418091, "punishment_amount": 0, "responseWindow": 1.5, "decision_var": 0.003906425465496813, "stimResponseInterval": 1}
{"stimulusDuration": 2, "reward_amount": 1, "FBonset": 0.5, "stim": {"speedDirection": -1, "oriDirection": -1, "oriBase": -60, "speedStrength": "hard", "oriStrength": "easy", "motionDirection": "out"}, "ITI": 1.4761405986128748, "rt": 312.09083700180054, "FBDuration": 0.5, "trial_count": 43, "ts": "motion", "response": "up", "onset": 294.7644383795864, "quest_estimate": 0.006413231982499067, "FB": 0, "displayFB": true, "actualOnsetTime": 294.76519799232483, "punishment_amount": 0, "responseWindow": 1.5, "decision_var": 0.005769465801232866, "stimResponseInterval": 1}
{"stimulusDuration": 2, "reward_amount": 1, "FBonset": 0.5, "stim": {"speedDirection": -1, "oriDirection": -1, "oriBase": 30, "speedStrength": "hard", "oriStrength": "easy", "motionDirection": "in"}, "ITI": 1.055602275849505, "rt": 319.1381959915161, "FBDuration": 0.5, "trial_count": 44, "ts": "motion", "response": "down", "onset": 301.74057897819927, "quest_estimate": -5.40001281758018e-05, "FB": 1, "displayFB": true, "actualOnsetTime": 301.74130511283875, "punishment_amount": 0, "responseWindow": 1.5, "decision_var": 0.0028595495688187797, "stimResponseInterval": 1}
{"stimulusDuration": 2, "reward_amount": 1, "FBonset": 0.5, "stim": {"speedDirection": 1, "oriDirection": -1, "oriBase": 30, "speedStrength": "hard", "oriStrength": "hard", "motionDirection": "out"}, "ITI": 1.3837839855073333, "rt": 325.5991020202637, "FBDuration": 0.5, "trial_count": 45, "ts": "motion", "response": "up", "onset": 308.29618125404875, "quest_estimate": 0.0053460950859166925, "FB": 1, "displayFB": true, "actualOnsetTime": 308.2969551086426, "punishment_amount": 0, "responseWindow": 1.5, "decision_var": 0.008322093772893557, "stimResponseInterval": 1}
{"stimulusDuration": 2, "reward_amount": 1, "FBonset": 0.5, "stim": {"speedDirection": 1, "oriDirection": 1, "oriBase": 30, "speedStrength": "hard", "oriStrength": "easy", "motionDirection": "in"}, "ITI": 1.6192648890111743, "rt": 332.5756878852844, "FBDuration": 0.5, "trial_count": 46, "ts": "motion", "response": "up", "onset": 315.17996523955605, "quest_estimate": -0.0010707539198724705, "FB": 1, "displayFB": true, "actualOnsetTime": 315.1807999610901, "punishment_amount": 0, "responseWindow": 1.5, "decision_var": 0.0018228581520058906, "stimResponseInterval": 1}
{"stimulusDuration": 2, "reward_amount": 1, "FBonset": 0.5, "stim": {"speedDirection": 1, "oriDirection": -1, "oriBase": -60, "speedStrength": "hard", "oriStrength": "hard", "motionDirection": "out"}, "ITI": 1.5777947200268643, "rt": 339.7509000301361, "FBDuration": 0.5, "trial_count": 47, "ts": "motion", "response": "up", "onset": 322.2992301285672, "quest_estimate": 0.004291599054292702, "FB": 1, "displayFB": true, "actualOnsetTime": 322.2999529838562, "punishment_amount": 0, "responseWindow": 1.5, "decision_var": 0.007245869422603274, "stimResponseInterval": 1}
{"stimulusDuration": 2, "reward_amount": 1, "FBonset": 0.5, "stim": {"speedDirection": 1, "oriDirection": -1, "oriBase": -60, "speedStrength": "easy", "oriStrength": "easy", "motionDirection": "in"}, "ITI": 1.2452290470985852, "rt": 346.7197599411011, "FBDuration": 0.5, "trial_count": 48, "ts": "motion", "response": "up", "onset": 329.3770248485941, "quest_estimate": 0.025152833595630496, "FB": 1, "displayFB": true, "actualOnsetTime": 329.37794399261475, "punishment_amount": 0, "responseWindow": 1.5, "decision_var": 0.02834915385617797, "stimResponseInterval": 1}
{"stimulusDuration": 2, "reward_amount": 1, "FBonset": 0.5, "stim": {"speedDirection": 1, "oriDirection": 1, "oriBase": -60, "speedStrength": "easy", "oriStrength": "hard", "motionDirection": "out"}, "ITI": 1.795815001341658, "rt": NaN, "FBDuration": 0.5, "trial_count": 49, "ts": "motion", "response": NaN, "onset": 336.12225389569267, "FB": NaN, "displayFB": true, "actualOnsetTime": 336.12284207344055, "punishment_amount": 0, "responseWindow": 1.5, "decision_var": 0.014353470862599665, "stimResponseInterval": 1}
{"stimulusDuration": 2, "reward_amount": 1, "FBonset": 0.5, "stim": {"speedDirection": -1, "oriDirection": 1, "oriBase": -60, "speedStrength": "easy", "oriStrength": "easy", "motionDirection": "in"}, "ITI": 1.3759515802685338, "rt": 360.7146370410919, "FBDuration": 0.5, "trial_count": 50, "ts": "motion", "response": "down", "onset": 343.41806889703435, "quest_estimate": 0.02450737346595199, "FB": 1, "displayFB": true, "actualOnsetTime": 343.4187870025635, "punishment_amount": 0, "responseWindow": 1.5, "decision_var": 0.0276821113104726, "stimResponseInterval": 1}
{"stimulusDuration": 2, "reward_amount": 1, "FBonset": 0.5, "stim": {"speedDirection": -1, "oriDirection": -1, "oriBase": 30, "speedStrength": "easy", "oriStrength": "hard", "motionDirection": "in"}, "ITI": 1.9139656804626766, "rt": 367.6425859928131, "FBDuration": 0.5, "trial_count": 51, "ts": "motion", "response": "down", "onset": 350.29402047730287, "quest_estimate": 0.02386743621501773, "FB": 1, "displayFB": true, "actualOnsetTime": 350.29486203193665, "punishment_amount": 0, "responseWindow": 1.5, "decision_var": 0.027022064138755277, "stimResponseInterval": 1}
{"stimulusDuration": 2, "reward_amount": 1, "FBonset": 0.5, "stim": {"speedDirection": -1, "oriDirection": 1, "oriBase": -60, "speedStrength": "easy", "oriStrength": "hard", "motionDirection": "in"}, "ITI": 1.0667655453984, "rt": 375.07234501838684, "FBDuration": 0.5, "trial_count": 52, "ts": "motion", "response": "down", "onset": 357.70798615776556, "quest_estimate": 0.02323294163162056, "FB": 1, "displayFB": true, "actualOnsetTime": 357.7085280418396, "punishment_amount": 0, "responseWindow": 1.5, "decision_var": 0.026367312490421985, "stimResponseInterval": 1}
{"stimulusDuration": 2, "reward_amount": 1, "FBonset": 0.5, "stim": {"speedDirection": 1, "oriDirection": 1, "oriBase": -60, "speedStrength": "easy", "oriStrength": "easy", "motionDirection": "out"}, "ITI": 1.8461268523486223, "rt": 381.5329999923706, "FBDuration": 0.5, "trial_count": 53, "ts": "motion", "response": "up", "onset": 364.274751703164, "quest_estimate": 0.015128689272925197, "FB": 1, "displayFB": true, "actualOnsetTime": 364.27548599243164, "punishment_amount": 0, "responseWindow": 1.5, "decision_var": 0.018058267328325668, "stimResponseInterval": 1}
{"stimulusDuration": 2, "reward_amount": 1, "FBonset": 0.5, "stim": {"speedDirection": -1, "oriDirection": -1, "oriBase": 30, "speedStrength": "easy", "oriStrength": "hard", "motionDirection": "out"}, "ITI": 1.5113014598762085, "rt": 388.9219419956207, "FBDuration": 0.5, "trial_count": 54, "ts": "motion", "response": "down", "onset": 371.6208785555126, "quest_estimate": 0.01451425423099896, "FB": 1, "displayFB": true, "actualOnsetTime": 371.62147092819214, "punishment_amount": 0, "responseWindow": 1.5, "decision_var": 0.01740389844108517, "stimResponseInterval": 1}
{"stimulusDuration": 2, "reward_amount": 1, "FBonset": 0.5, "stim": {"speedDirection": -1, "oriDirection": 1, "oriBase": 30, "speedStrength": "hard", "oriStrength": "easy", "motionDirection": "out"}, "ITI": 1.801866552594109, "rt": 395.89099502563477, "FBDuration": 0.5, "trial_count": 55, "ts": "motion", "response": "down", "onset": 378.6321800153888, "quest_estimate": 0.0032493485373510586, "FB": 1, "displayFB": true, "actualOnsetTime": 378.6329391002655, "punishment_amount": 0, "responseWindow": 1.5, "decision_var": 0.006182546304377402, "stimResponseInterval": 1}
{"stimulusDuration": 2, "reward_amount": 1, "FBonset": 0.5, "stim": {"speedDirection": 1, "oriDirection": 1, "oriBase": -60, "speedStrength": "hard", "oriStrength": "easy", "motionDirection": "in"}, "ITI": 1.4604520146332207, "rt": 403.28907799720764, "FBDuration": 0.5, "trial_count": 56, "ts": "motion", "response": "up", "onset": 385.93404656798293, "quest_estimate": -0.002076528592763298, "FB": 1, "displayFB": true, "actualOnsetTime": 385.93485713005066, "punishment_amount": 0, "responseWindow": 1.5, "decision_var": 0.0007975499487549789, "stimResponseInterval": 1}
{"stimulusDuration": 2, "reward_amount": 1, "FBonset": 0.5, "stim": {"speedDirection": 1, "oriDirection": 1, "oriBase": -60, "speedStrength": "hard", "oriStrength": "hard", "motionDirection": "out"}, "ITI": 1.1374742898951102, "rt": 410.42485880851746, "FBDuration": 0.5, "trial_count": 57, "ts": "motion", "response": "up", "onset": 392.89449858261617, "quest_estimate": 0.002218966492369717, "FB": 1, "displayFB": true, "actualOnsetTime": 392.8952739238739, "punishment_amount": 0, "responseWindow": 1.5, "decision_var": 0.005131563960026939, "stimResponseInterval": 1}
{"stimulusDuration": 2, "reward_amount": 1, "FBonset": 0.5, "stim": {"speedDirection": -1, "oriDirection": 1, "oriBase": -60, "speedStrength": "easy", "oriStrength": "hard", "motionDirection": "out"}, "ITI": 1.207942732602203, "rt": 416.4550678730011, "FBDuration": 0.5, "trial_count": 58, "ts": "motion", "response": "down", "onset": 399.5319728725113, "quest_estimate": 0.013907099961362024, "FB": 1, "displayFB": true, "actualOnsetTime": 399.532683134079, "punishment_amount": 0, "responseWindow": 1.5, "decision_var": 0.016757501899568428, "stimResponseInterval": 1}
{"stimulusDuration": 2, "reward_amount": 1, "FBonset": 0.5, "stim": {"speedDirection": 1, "oriDirection": 1, "oriBase": 30, "speedStrength": "hard", "oriStrength": "hard", "motionDirection": "out"}, "ITI": 1.166496640783312, "rt": 423.71190094947815, "FBDuration": 0.5, "trial_count": 59, "ts": "motion", "response": "up", "onset": 406.2399156051135, "quest_estimate": 0.0011985937386005188, "FB": 1, "displayFB": true, "actualOnsetTime": 406.2405960559845, "punishment_amount": 0, "responseWindow": 1.5, "decision_var": 0.004092552932356469, "stimResponseInterval": 1}
{"stimulusDuration": 2, "reward_amount": 1, "FBonset": 0.5, "stim": {"speedDirection": -1, "oriDirection": 1, "oriBase": 30, "speedStrength": "easy", "oriStrength": "easy", "motionDirection": "out"}, "ITI": 1.2516983767761423, "rt": 430.1396539211273, "FBDuration": 0.5, "trial_count": 60, "ts": "motion", "response": "down", "onset": 412.9064122458968, "quest_estimate": 0.013307205058868496, "FB": 1, "displayFB": true, "actualOnsetTime": 412.9070279598236, "punishment_amount": 0, "responseWindow": 1.5, "decision_var": 0.01611762488215153, "stimResponseInterval": 1}
{"stimulusDuration": 2, "reward_amount": 1, "FBonset": 0.5, "stim": {"speedDirection": -1, "oriDirection": 1, "oriBase": 30, "speedStrength": "hard", "oriStrength": "easy", "motionDirection": "in"}, "ITI": 1.7617408316524292, "rt": 436.9270098209381, "FBDuration": 0.5, "trial_count": 61, "ts": "motion", "response": "up", "onset": 419.6581106226729, "quest_estimate": 0.00030071061152100315, "FB": 0, "displayFB": true, "actualOnsetTime": 419.65876603126526, "punishment_amount": 0, "responseWindow": 1.5, "decision_var": 0.0001, "stimResponseInterval": 1}
{"stimulusDuration": 2, "reward_amount": 1, "FBonset": 0.5, "stim": {"speedDirection": 1, "oriDirection": -1, "oriBase": 30, "speedStrength": "hard", "oriStrength": "easy", "motionDirection": "out"}, "ITI": 1.09099189320187, "rt": 444.1012179851532, "FBDuration": 0.5, "trial_count": 62, "ts": "motion", "response": "down", "onset": 426.91985145432534, "quest_estimate": 0.003603951472949153, "FB": 0, "displayFB": true, "actualOnsetTime": 426.9205400943756, "punishment_amount": 0, "responseWindow": 1.5, "decision_var": 0.003063652450169818, "stimResponseInterval": 1}
{"stimulusDuration": 2, "reward_amount": 1, "FBonset": 0.5, "stim": {"speedDirection": 1, "oriDirection": 1, "oriBase": 30, "speedStrength": "hard", "oriStrength": "hard", "motionDirection": "in"}, "ITI": 1.1726770854203754, "rt": 450.82266783714294, "FBDuration": 0.5, "trial_count": 63, "ts": "motion", "response": "down", "onset": 433.5108433475272, "quest_estimate": 0.0026593050887519717, "FB": 0, "displayFB": true, "actualOnsetTime": 433.5113959312439, "punishment_amount": 0, "responseWindow": 1.5, "decision_var": 0.0021506653656201344, "stimResponseInterval": 1}
{"stimulusDuration": 2, "reward_amount": 1, "FBonset": 0.5, "stim": {"speedDirection": 1, "oriDirection": -1, "oriBase": 30, "speedStrength": "hard", "oriStrength": "easy", "motionDirection": "in"}, "ITI": 1.7583821803778399, "rt": 488.00404691696167, "FBDuration": 0.5, "trial_count": 64, "ts": "motion", "response": "down", "onset": 440.1835204329476, "quest_estimate": 0.005000025622920921, "FB": 0, "displayFB": true, "actualOnsetTime": 470.21033811569214, "punishment_amount": 0, "responseWindow": 1.5, "decision_var": 0.004499190304802295, "stimResponseInterval": 1}
{"stimulusDuration": 2, "reward_amount": 1, "FBonset": 0.5, "stim": {"speedDirection": 1, "oriDirection": -1, "oriBase": -60, "speedStrength": "easy", "oriStrength": "hard", "motionDirection": "in"}, "ITI": 1.4482543995228698, "rt": 494.95841002464294, "FBDuration": 0.5, "trial_count": 65, "ts": "motion", "response": "up", "onset": 447.44190261332545, "quest_estimate": 0.022605422253743027, "FB": 1, "displayFB": true, "actualOnsetTime": 477.4688310623169, "punishment_amount": 0, "responseWindow": 1.5, "decision_var": 0.02571753435124695, "stimResponseInterval": 1}
{"stimulusDuration": 2, "reward_amount": 1, "FBonset": 0.5, "stim": {"speedDirection": 1, "oriDirection": -1, "oriBase": 30, "speedStrength": "easy", "oriStrength": "hard", "motionDirection": "in"}, "ITI": 1.8864486795351232, "rt": 501.9281358718872, "FBDuration": 0.5, "trial_count": 66, "ts": "motion", "response": "up", "onset": 454.3901570128483, "quest_estimate": 0.021983174529994876, "FB": 1, "displayFB": true, "actualOnsetTime": 484.41721200942993, "punishment_amount": 0, "responseWindow": 1.5, "decision_var": 0.025074469402053316, "stimResponseInterval": 1}
{"stimulusDuration": 2, "reward_amount": 1, "FBonset": 0.5, "stim": {"speedDirection": -1, "oriDirection": -1, "oriBase": 30, "speedStrength": "hard", "oriStrength": "hard", "motionDirection": "out"}, "ITI": 1.4266988486840748, "rt": 509.04845786094666, "FBDuration": 0.5, "trial_count": 67, "ts": "motion", "response": "up", "onset": 461.77660569238344, "quest_estimate": 0.005994919460820362, "FB": 0, "displayFB": true, "actualOnsetTime": 491.80357098579407, "punishment_amount": 0, "responseWindow": 1.5, "decision_var": 0.0054589924626429545, "stimResponseInterval": 1}
{"stimulusDuration": 2, "reward_amount": 1, "FBonset": 0.5, "stim": {"speedDirection": 1, "oriDirection": 1, "oriBase": 30, "speedStrength": "hard", "oriStrength": "easy", "motionDirection": "out"}, "ITI": 1.155175214475876, "rt": 516.1285469532013, "FBDuration": 0.5, "trial_count": 68, "ts": "motion", "response": "up", "onset": 468.7033045410675, "quest_estimate": 0.0049987962160357585, "FB": 1, "displayFB": true, "actualOnsetTime": 498.73021602630615, "punishment_amount": 0, "responseWindow": 1.5, "decision_var": 0.007840210225261345, "stimResponseInterval": 1}
{"stimulusDuration": 2, "reward_amount": 1, "FBonset": 0.5, "stim": {"speedDirection": 1, "oriDirection": -1, "oriBase": -60, "speedStrength": "easy", "oriStrength": "hard", "motionDirection": "out"}, "ITI": 1.7189371587315487, "rt": 522.6603260040283, "FBDuration": 0.5, "trial_count": 69, "ts": "motion", "response": "up", "onset": 475.3584797555434, "quest_estimate": 0.01271604487790004, "FB": 1, "displayFB": true, "actualOnsetTime": 505.3853681087494, "punishment_amount": 0, "responseWindow": 1.5, "decision_var": 0.015483908193349716, "stimResponseInterval": 1}
{"stimulusDuration": 2, "reward_amount": 1, "FBonset": 0.5, "stim": {"speedDirection": 1, "oriDirection": -1, "oriBase": -60, "speedStrength": "hard", "oriStrength": "hard", "motionDirection": "out"}, "ITI": 1.0726443832198893, "rt": 529.9630389213562, "FBDuration": 0.5, "trial_count": 70, "ts": "motion", "response": "up", "onset": 482.5774169142749, "quest_estimate": 0.004013324959460676, "FB": 1, "displayFB": true, "actualOnsetTime": 512.6044161319733, "punishment_amount": 0, "responseWindow": 1.5, "decision_var": 0.006835878527191669, "stimResponseInterval": 1}
{"stimulusDuration": 2, "reward_amount": 1, "FBonset": 0.5, "stim": {"speedDirection": 1, "oriDirection": 1, "oriBase": 30, "speedStrength": "easy", "oriStrength": "easy", "motionDirection": "out"}, "ITI": 1.7429644724005338, "rt": 536.6537878513336, "FBDuration": 0.5, "trial_count": 71, "ts": "motion", "response": "up", "onset": 489.1500612974948, "quest_estimate": 0.012132072273043679, "FB": 1, "displayFB": true, "actualOnsetTime": 519.1770341396332, "punishment_amount": 0, "responseWindow": 1.5, "decision_var": 0.014858221815542264, "stimResponseInterval": 1}
{"stimulusDuration": 2, "reward_amount": 1, "FBonset": 0.5, "stim": {"speedDirection": -1, "oriDirection": -1, "oriBase": 30, "speedStrength": "easy", "oriStrength": "easy", "motionDirection": "out"}, "ITI": 1.9189088299024937, "rt": 543.7485790252686, "FBDuration": 0.5, "trial_count": 72, "ts": "motion", "response": "down", "onset": 496.39302576989536, "quest_estimate": 0.011556728393440019, "FB": 1, "displayFB": true, "actualOnsetTime": 526.4198670387268, "punishment_amount": 0, "responseWindow": 1.5, "decision_var": 0.014238618794101321, "stimResponseInterval": 1}
{"stimulusDuration": 2, "reward_amount": 1, "FBonset": 0.5, "stim": {"speedDirection": -1, "oriDirection": 1, "oriBase": 30, "speedStrength": "easy", "oriStrength": "easy", "motionDirection": "in"}, "ITI": 1.0823154349505661, "rt": 551.2334229946136, "FBDuration": 0.5, "trial_count": 73, "ts": "motion", "response": "down", "onset": 503.81193459979784, "quest_estimate": 0.0213677138123001, "FB": 1, "displayFB": true, "actualOnsetTime": 533.8388459682465, "punishment_amount": 0, "responseWindow": 1.5, "decision_var": 0.02443622151925575, "stimResponseInterval": 1}
{"stimulusDuration": 2, "reward_amount": 1, "FBonset": 0.5, "stim": {"speedDirection": 1, "oriDirection": 1, "oriBase": 30, "speedStrength": "hard", "oriStrength": "easy", "motionDirection": "out"}, "ITI": 1.4533079440477636, "rt": NaN, "FBDuration": 0.5, "trial_count": 74, "ts": "motion", "response": NaN, "onset": 510.3942500347484, "FB": NaN, "displayFB": true, "actualOnsetTime": 540.42134308815, "punishment_amount": 0, "responseWindow": 1.5, "decision_var": 0.005842331408238963, "stimResponseInterval": 1}
{"stimulusDuration": 2, "reward_amount": 1, "FBonset": 0.5, "stim": {"speedDirection": -1, "oriDirection": 1, "oriBase": -60, "speedStrength": "hard", "oriStrength": "easy", "motionDirection": "out"}, "ITI": 1.7987149660430504, "rt": 564.6392688751221, "FBDuration": 0.5, "trial_count": 75, "ts": "motion", "response": "down", "onset": 517.3475579787961, "quest_estimate": 0.00536778550839534, "FB": 1, "displayFB": true, "actualOnsetTime": 547.3743691444397, "punishment_amount": 0, "responseWindow": 1.5, "decision_var": 0.008155436614329048, "stimResponseInterval": 1}
{"stimulusDuration": 2, "reward_amount": 1, "FBonset": 0.5, "stim": {"speedDirection": 1, "oriDirection": 1, "oriBase": -60, "speedStrength": "hard", "oriStrength": "easy", "motionDirection": "out"}, "ITI": 1.136997264053552, "rt": 572.0790529251099, "FBDuration": 0.5, "trial_count": 76, "ts": "motion", "response": "up", "onset": 524.6462729448391, "quest_estimate": 0.004409740617549049, "FB": 1, "displayFB": true, "actualOnsetTime": 554.6732940673828, "punishment_amount": 0, "responseWindow": 1.5, "decision_var": 0.007179540647952003, "stimResponseInterval": 1}
{"stimulusDuration": 2, "reward_amount": 1, "FBonset": 0.5, "stim": {"speedDirection": 1, "oriDirection": 1, "oriBase": 30, "speedStrength": "easy", "oriStrength": "easy", "motionDirection": "out"}, "ITI": 1.138081166477199, "rt": 578.5626838207245, "FBDuration": 0.5, "trial_count": 77, "ts": "motion", "response": "up", "onset": 531.2832702088926, "quest_estimate": 0.0109899441454223, "FB": 1, "displayFB": true, "actualOnsetTime": 561.3102290630341, "punishment_amount": 0, "responseWindow": 1.5, "decision_var": 0.013626960027339471, "stimResponseInterval": 1}
{"stimulusDuration": 2, "reward_amount": 1, "FBonset": 0.5, "stim": {"speedDirection": 1, "oriDirection": 1, "oriBase": -60, "speedStrength": "easy", "oriStrength": "hard", "motionDirection": "in"}, "ITI": 1.8498245809982652, "rt": 585.2358119487762, "FBDuration": 0.5, "trial_count": 78, "ts": "motion", "response": "down", "onset": 537.9213513753698, "quest_estimate": 0.024913573206934415, "FB": 0, "displayFB": true, "actualOnsetTime": 567.9482300281525, "punishment_amount": 0, "responseWindow": 1.5, "decision_var": 0.023804364129211303, "stimResponseInterval": 1}
{"stimulusDuration": 2, "reward_amount": 1, "FBonset": 0.5, "stim": {"speedDirection": -1, "oriDirection": -1, "oriBase": 30, "speedStrength": "hard", "oriStrength": "easy", "motionDirection": "out"}, "ITI": 1.9555595647149806, "rt": 592.5371479988098, "FBDuration": 0.5, "trial_count": 79, "ts": "motion", "response": "down", "onset": 545.2711759563681, "quest_estimate": 0.003461341177328721, "FB": 1, "displayFB": true, "actualOnsetTime": 575.2980110645294, "punishment_amount": 0, "responseWindow": 1.5, "decision_var": 0.0062136872264808365, "stimResponseInterval": 1}
{"stimulusDuration": 2, "reward_amount": 1, "FBonset": 0.5, "stim": {"speedDirection": 1, "oriDirection": 1, "oriBase": -60, "speedStrength": "easy", "oriStrength": "easy", "motionDirection": "out"}, "ITI": 1.7988019910678612, "rt": 599.9912979602814, "FBDuration": 0.5, "trial_count": 80, "ts": "motion", "response": "up", "onset": 552.7267355210831, "quest_estimate": 0.01043024646343281, "FB": 1, "displayFB": true, "actualOnsetTime": 582.7537140846252, "punishment_amount": 0, "responseWindow": 1.5, "decision_var": 0.013022865331278485, "stimResponseInterval": 1}
{"stimulusDuration": 2, "reward_amount": 1, "FBonset": 0.5, "stim": {"speedDirection": -1, "oriDirection": -1, "oriBase": 30, "speedStrength": "easy", "oriStrength": "easy", "motionDirection": "in"}, "ITI": 1.1687827307219414, "rt": 607.3567759990692, "FBDuration": 0.5, "trial_count": 81, "ts": "motion", "response": "down", "onset": 560.025537512151, "quest_estimate": 0.02430735216494303, "FB": 1, "displayFB": true, "actualOnsetTime": 590.0524101257324, "punishment_amount": 0, "responseWindow": 1.5, "decision_var": 0.027376823615238348, "stimResponseInterval": 1}
{"stimulusDuration": 2, "reward_amount": 1, "FBonset": 0.5, "stim": {"speedDirection": 1, "oriDirection": 1, "oriBase": -60, "speedStrength": "easy", "oriStrength": "hard", "motionDirection": "in"}, "ITI": 1.740690712000208, "rt": 613.952693939209, "FBDuration": 0.5, "trial_count": 82, "ts": "motion", "response": "up", "onset": 566.6943202428729, "quest_estimate": 0.02370557262368226, "FB": 1, "displayFB": true, "actualOnsetTime": 596.7213001251221, "punishment_amount": 0, "responseWindow": 1.5, "decision_var": 0.026758096210468832, "stimResponseInterval": 1}
{"stimulusDuration": 2, "reward_amount": 1, "FBonset": 0.5, "stim": {"speedDirection": -1, "oriDirection": 1, "oriBase": -60, "speedStrength": "hard", "oriStrength": "hard", "motionDirection": "in"}, "ITI": 1.421683073491582, "rt": 621.1682999134064, "FBDuration": 0.5, "trial_count": 83, "ts": "motion", "response": "up", "onset": 573.9350109548731, "quest_estimate": 0.007323774879622706, "FB": 0, "displayFB": true, "actualOnsetTime": 603.9618780612946, "punishment_amount": 0, "responseWindow": 1.5, "decision_var": 0.0068301900777877275, "stimResponseInterval": 1}
{"stimulusDuration": 2, "reward_amount": 1, "FBonset": 0.5, "stim": {"speedDirection": 1, "oriDirection": -1, "oriBase": -60, "speedStrength": "hard", "oriStrength": "hard", "motionDirection": "in"}, "ITI": 1.5820574168491168, "rt": 628.1668758392334, "FBDuration": 0.5, "trial_count": 84, "ts": "motion", "response": "down", "onset": 580.8566940283647, "quest_estimate": 0.009635899020059437, "FB": 0, "displayFB": true, "actualOnsetTime": 610.883551120758, "punishment_amount": 0, "responseWindow": 1.5, "decision_var": 0.009144500524880046, "stimResponseInterval": 1}
{"stimulusDuration": 2, "reward_amount": 1, "FBonset": 0.5, "stim": {"speedDirection": -1, "oriDirection": 1, "oriBase": -60, "speedStrength": "easy", "oriStrength": "hard", "motionDirection": "out"}, "ITI": 1.901178584035847, "rt": 635.1912620067596, "FBDuration": 0.5, "trial_count": 85, "ts": "motion", "response": "up", "onset": 587.9387514452138, "quest_estimate": 0.013621506050374266, "FB": 0, "displayFB": true, "actualOnsetTime": 617.9656839370728, "punishment_amount": 0, "responseWindow": 1.5, "decision_var": 0.01242504327686908, "stimResponseInterval": 1}
{"stimulusDuration": 2, "reward_amount": 1, "FBonset": 0.5, "stim": {"speedDirection": -1, "oriDirection": -1, "oriBase": 30, "speedStrength": "hard", "oriStrength": "hard", "motionDirection": "in"}, "ITI": 1.9442187117583591, "rt": 642.6989278793335, "FBDuration": 0.5, "trial_count": 86, "ts": "motion", "response": "down", "onset": 595.3399300292497, "quest_estimate": 0.008673180161085842, "FB": 1, "displayFB": true, "actualOnsetTime": 625.3668401241302, "punishment_amount": 0, "responseWindow": 1.5, "decision_var": 0.011447545881916914, "stimResponseInterval": 1}
{"stimulusDuration": 2, "reward_amount": 1, "FBonset": 0.5, "stim": {"speedDirection": 1, "oriDirection": 1, "oriBase": 30, "speedStrength": "easy", "oriStrength": "easy", "motionDirection": "in"}, "ITI": 1.834131375398321, "rt": 650.2647738456726, "FBDuration": 0.5, "trial_count": 87, "ts": "motion", "response": "up", "onset": 602.784148741008, "quest_estimate": 0.023109703521549334, "FB": 1, "displayFB": true, "actualOnsetTime": 632.8111169338226, "punishment_amount": 0, "responseWindow": 1.5, "decision_var": 0.02614371132124412, "stimResponseInterval": 1}
{"stimulusDuration": 2, "reward_amount": 1, "FBonset": 0.5, "stim": {"speedDirection": -1, "oriDirection": -1, "oriBase": -60, "speedStrength": "easy", "oriStrength": "easy", "motionDirection": "in"}, "ITI": 1.6546587630197775, "rt": 657.5429120063782, "FBDuration": 0.5, "trial_count": 88, "ts": "motion", "response": "down", "onset": 610.1182801164064, "quest_estimate": 0.022518135455659324, "FB": 1, "displayFB": true, "actualOnsetTime": 640.1453850269318, "punishment_amount": 0, "responseWindow": 1.5, "decision_var": 0.025534854907962666, "stimResponseInterval": 1}
{"stimulusDuration": 2, "reward_amount": 1, "FBonset": 0.5, "stim": {"speedDirection": 1, "oriDirection": 1, "oriBase": -60, "speedStrength": "hard", "oriStrength": "easy", "motionDirection": "out"}, "ITI": 1.0857977627282227, "rt": 664.6633148193359, "FBDuration": 0.5, "trial_count": 89, "ts": "motion", "response": "up", "onset": 617.2729388794262, "quest_estimate": 0.0025223113005217665, "FB": 1, "displayFB": true, "actualOnsetTime": 647.2998070716858, "punishment_amount": 0, "responseWindow": 1.5, "decision_var": 0.005257593783335207, "stimResponseInterval": 1}
{"stimulusDuration": 2, "reward_amount": 1, "FBonset": 0.5, "stim": {"speedDirection": -1, "oriDirection": -1, "oriBase": -60, "speedStrength": "hard", "oriStrength": "hard", "motionDirection": "in"}, "ITI": 1.0289616460370348, "rt": 671.1702289581299, "FBDuration": 0.5, "trial_count": 90, "ts": "motion", "response": "down", "onset": 623.8587366421544, "quest_estimate": 0.00772031672827541, "FB": 1, "displayFB": true, "actualOnsetTime": 653.8856489658356, "punishment_amount": 0, "responseWindow": 1.5, "decision_var": 0.010476921560770874, "stimResponseInterval": 1}
{"stimulusDuration": 2, "reward_amount": 1, "FBonset": 0.5, "stim": {"speedDirection": -1, "oriDirection": -1, "oriBase": 30, "speedStrength": "easy", "oriStrength": "hard", "motionDirection": "out"}, "ITI": 1.7896025322324536, "rt": 677.7814028263092, "FBDuration": 0.5, "trial_count": 91, "ts": "motion", "response": "down", "onset": 630.3876982881915, "quest_estimate": 0.013054762109937307, "FB": 1, "displayFB": true, "actualOnsetTime": 660.4146730899811, "punishment_amount": 0, "responseWindow": 1.5, "decision_var": 0.015801836517649187, "stimResponseInterval": 1}
{"stimulusDuration": 2, "reward_amount": 1, "FBonset": 0.5, "stim": {"speedDirection": -1, "oriDirection": 1, "oriBase": -60, "speedStrength": "hard", "oriStrength": "easy", "motionDirection": "out"}, "ITI": 1.605295463218377, "rt": 684.9334788322449, "FBDuration": 0.5, "trial_count": 92, "ts": "motion", "response": "down", "onset": 637.677300820424, "quest_estimate": 0.0015923864754548711, "FB": 1, "displayFB": true, "actualOnsetTime": 667.7042469978333, "punishment_amount": 0, "responseWindow": 1.5, "decision_var": 0.004311065906793976, "stimResponseInterval": 1}
{"stimulusDuration": 2, "reward_amount": 1, "FBonset": 0.5, "stim": {"speedDirection": 1, "oriDirection": 1, "oriBase": -60, "speedStrength": "easy", "oriStrength": "easy", "motionDirection": "in"}, "ITI": 1.733317827971351, "rt": 692.2282068729401, "FBDuration": 0.5, "trial_count": 93, "ts": "motion", "response": "up", "onset": 644.7825962836423, "quest_estimate": 0.02193232172163089, "FB": 1, "displayFB": true, "actualOnsetTime": 674.8094871044159, "punishment_amount": 0, "responseWindow": 1.5, "decision_var": 0.02493007009794057, "stimResponseInterval": 1}
{"stimulusDuration": 2, "reward_amount": 1, "FBonset": 0.5, "stim": {"speedDirection": 1, "oriDirection": 1, "oriBase": 30, "speedStrength": "easy", "oriStrength": "easy", "motionDirection": "in"}, "ITI": 1.9216373563855145, "rt": 699.3478398323059, "FBDuration": 0.5, "trial_count": 94, "ts": "motion", "response": "up", "onset": 652.0159141116137, "quest_estimate": 0.021350691192146762, "FB": 1, "displayFB": true, "actualOnsetTime": 682.0427629947662, "punishment_amount": 0, "responseWindow": 1.5, "decision_var": 0.024330719229591305, "stimResponseInterval": 1}
{"stimulusDuration": 2, "reward_amount": 1, "FBonset": 0.5, "stim": {"speedDirection": 1, "oriDirection": -1, "oriBase": -60, "speedStrength": "hard", "oriStrength": "hard", "motionDirection": "in"}, "ITI": 1.820465641914957, "rt": 706.7213180065155, "FBDuration": 0.5, "trial_count": 95, "ts": "motion", "response": "up", "onset": 659.4375514679992, "quest_estimate": 0.006777022381337483, "FB": 1, "displayFB": true, "actualOnsetTime": 689.464448928833, "punishment_amount": 0, "responseWindow": 1.5, "decision_var": 0.009516301892025604, "stimResponseInterval": 1}
{"stimulusDuration": 2, "reward_amount": 1, "FBonset": 0.5, "stim": {"speedDirection": 1, "oriDirection": 1, "oriBase": 30, "speedStrength": "easy", "oriStrength": "hard", "motionDirection": "in"}, "ITI": 1.6055011892863402, "rt": 714.0077338218689, "FBDuration": 0.5, "trial_count": 96, "ts": "motion", "response": "up", "onset": 666.7580171099142, "quest_estimate": 0.020774681304490443, "FB": 1, "displayFB": true, "actualOnsetTime": 696.7848651409149, "punishment_amount": 0, "responseWindow": 1.5, "decision_var": 0.023735130057694502, "stimResponseInterval": 1}
{"stimulusDuration": 2, "reward_amount": 1, "FBonset": 0.5, "stim": {"speedDirection": 1, "oriDirection": -1, "oriBase": 30, "speedStrength": "easy", "oriStrength": "easy", "motionDirection": "in"}, "ITI": 1.4069506875611533, "rt": 721.1749269962311, "FBDuration": 0.5, "trial_count": 97, "ts": "motion", "response": "up", "onset": 673.8635182992006, "quest_estimate": 0.020204219636620536, "FB": 1, "displayFB": true, "actualOnsetTime": 703.8904309272766, "punishment_amount": 0, "responseWindow": 1.5, "decision_var": 0.023144953036542015, "stimResponseInterval": 1}
{"stimulusDuration": 2, "reward_amount": 1, "FBonset": 0.5, "stim": {"speedDirection": 1, "oriDirection": -1, "oriBase": -60, "speedStrength": "easy", "oriStrength": "easy", "motionDirection": "out"}, "ITI": 1.9749672322575351, "rt": 727.8806178569794, "FBDuration": 0.5, "trial_count": 98, "ts": "motion", "response": "down", "onset": 680.7704689867617, "quest_estimate": 0.016298707422153585, "FB": 0, "displayFB": true, "actualOnsetTime": 710.7973239421844, "punishment_amount": 0, "responseWindow": 1.5, "decision_var": 0.015205319623942948, "stimResponseInterval": 1}
{"stimulusDuration": 2, "reward_amount": 1, "FBonset": 0.5, "stim": {"speedDirection": 1, "oriDirection": -1, "oriBase": 30, "speedStrength": "easy", "oriStrength": "easy", "motionDirection": "in"}, "ITI": 1.3941179051422659, "rt": 735.5340030193329, "FBDuration": 0.5, "trial_count": 99, "ts": "motion", "response": "up", "onset": 688.2454362190192, "quest_estimate": 0.01963779101443442, "FB": 1, "displayFB": true, "actualOnsetTime": 718.2723069190979, "punishment_amount": 0, "responseWindow": 1.5, "decision_var": 0.022559865268993146, "stimResponseInterval": 1}
{"stimulusDuration": 2, "reward_amount": 1, "FBonset": 0.5, "stim": {"speedDirection": -1, "oriDirection": 1, "oriBase": 30, "speedStrength": "easy", "oriStrength": "hard", "motionDirection": "out"}, "ITI": 1.9130994030621515, "rt": 742.4224038124084, "FBDuration": 0.5, "trial_count": 100, "ts": "motion", "response": "down", "onset": 695.1395541241615, "quest_estimate": 0.015730374354981785, "FB": 1, "displayFB": true, "actualOnsetTime": 725.1663019657135, "punishment_amount": 0, "responseWindow": 1.5, "decision_var": 0.018574765032626964, "stimResponseInterval": 1}
{"stimulusDuration": 2, "reward_amount": 1, "FBonset": 0.5, "stim": {"speedDirection": 1, "oriDirection": 1, "oriBase": -60, "speedStrength": "hard", "oriStrength": "hard", "motionDirection": "in"}, "ITI": 1.8824175177507185, "rt": 749.8225009441376, "FBDuration": 0.5, "trial_count": 101, "ts": "motion", "response": "up", "onset": 702.5526535272236, "quest_estimate": 0.005843022252386747, "FB": 1, "displayFB": true, "actualOnsetTime": 732.579528093338, "punishment_amount": 0, "responseWindow": 1.5, "decision_var": 0.008565426792180489, "stimResponseInterval": 1}
{"stimulusDuration": 2, "reward_amount": 1, "FBonset": 0.5, "stim": {"speedDirection": 1, "oriDirection": 1, "oriBase": 30, "speedStrength": "easy", "oriStrength": "hard", "motionDirection": "in"}, "ITI": 1.5056234476407655, "rt": 757.3645188808441, "FBDuration": 0.5, "trial_count": 102, "ts": "motion", "response": "up", "onset": 709.9350710449743, "quest_estimate": 0.019076808478841405, "FB": 1, "displayFB": true, "actualOnsetTime": 739.9619889259338, "punishment_amount": 0, "responseWindow": 1.5, "decision_var": 0.021978371901556805, "stimResponseInterval": 1}
{"stimulusDuration": 2, "reward_amount": 1, "FBonset": 0.5, "stim": {"speedDirection": 1, "oriDirection": -1, "oriBase": -60, "speedStrength": "hard", "oriStrength": "easy", "motionDirection": "in"}, "ITI": 1.732486072791771, "rt": 764.181391954422, "FBDuration": 0.5, "trial_count": 103, "ts": "motion", "response": "up", "onset": 716.9406944926151, "quest_estimate": 0.004918052406960929, "FB": 1, "displayFB": true, "actualOnsetTime": 746.9676239490509, "punishment_amount": 0, "responseWindow": 1.5, "decision_var": 0.007623940202516229, "stimResponseInterval": 1}
{"stimulusDuration": 2, "reward_amount": 1, "FBonset": 0.5, "stim": {"speedDirection": -1, "oriDirection": -1, "oriBase": -60, "speedStrength": "hard", "oriStrength": "hard", "motionDirection": "out"}, "ITI": 1.9934928983316154, "rt": 771.6341948509216, "FBDuration": 0.5, "trial_count": 104, "ts": "motion", "response": "up", "onset": 724.1731805654068, "quest_estimate": 0.003784108416383908, "FB": 0, "displayFB": true, "actualOnsetTime": 754.2001509666443, "punishment_amount": 0, "responseWindow": 1.5, "decision_var": 0.0033737196941211953, "stimResponseInterval": 1}
{"stimulusDuration": 2, "reward_amount": 1, "FBonset": 0.5, "stim": {"speedDirection": -1, "oriDirection": 1, "oriBase": 30, "speedStrength": "hard", "oriStrength": "easy", "motionDirection": "out"}, "ITI": 1.792397579667692, "rt": 779.0065488815308, "FBDuration": 0.5, "trial_count": 105, "ts": "motion", "response": "down", "onset": 731.6666734637384, "quest_estimate": 0.002868956897408015, "FB": 1, "displayFB": true, "actualOnsetTime": 761.693498134613, "punishment_amount": 0, "responseWindow": 1.5, "decision_var": 0.005556651852036777, "stimResponseInterval": 1}
{"stimulusDuration": 2, "reward_amount": 1, "FBonset": 0.5, "stim": {"speedDirection": 1, "oriDirection": 1, "oriBase": -60, "speedStrength": "hard", "oriStrength": "hard", "motionDirection": "in"}, "ITI": 1.3655520312785718, "rt": 786.205778837204, "FBDuration": 0.5, "trial_count": 106, "ts": "motion", "response": "down", "onset": 738.9590710434061, "quest_estimate": 0.007100130877143174, "FB": 0, "displayFB": true, "actualOnsetTime": 768.9859161376953, "punishment_amount": 0, "responseWindow": 1.5, "decision_var": 0.006691557675078896, "stimResponseInterval": 1}
{"stimulusDuration": 2, "reward_amount": 1, "FBonset": 0.5, "stim": {"speedDirection": -1, "oriDirection": -1, "oriBase": -60, "speedStrength": "hard", "oriStrength": "easy", "motionDirection": "out"}, "ITI": 1.9494168211329352, "rt": 793.1346960067749, "FBDuration": 0.5, "trial_count": 107, "ts": "motion", "response": "down", "onset": 745.8246230746846, "quest_estimate": 0.001963668365924917, "FB": 1, "displayFB": true, "actualOnsetTime": 775.8513810634613, "punishment_amount": 0, "responseWindow": 1.5, "decision_var": 0.004634234270931931, "stimResponseInterval": 1}
{"stimulusDuration": 2, "reward_amount": 1, "FBonset": 0.5, "stim": {"speedDirection": 1, "oriDirection": 1, "oriBase": -60, "speedStrength": "easy", "oriStrength": "hard", "motionDirection": "out"}, "ITI": 1.254122941439783, "rt": 800.8673009872437, "FBDuration": 0.5, "trial_count": 108, "ts": "motion", "response": "down", "onset": 753.2740398958175, "quest_estimate": 0.018992639661530426, "FB": 0, "displayFB": true, "actualOnsetTime": 783.3009419441223, "punishment_amount": 0, "responseWindow": 1.5, "decision_var": 0.0179838915324802, "stimResponseInterval": 1}
{"stimulusDuration": 2, "reward_amount": 1, "FBonset": 0.5, "stim": {"speedDirection": 1, "oriDirection": -1, "oriBase": 30, "speedStrength": "easy", "oriStrength": "hard", "motionDirection": "in"}, "ITI": 1.5578199503386325, "rt": 807.2967419624329, "FBDuration": 0.5, "trial_count": 109, "ts": "motion", "response": "up", "onset": 760.0281628372572, "quest_estimate": 0.018521214858909604, "FB": 1, "displayFB": true, "actualOnsetTime": 790.0550620555878, "punishment_amount": 0, "responseWindow": 1.5, "decision_var": 0.02140201797622674, "stimResponseInterval": 1}
{"stimulusDuration": 2, "reward_amount": 1, "FBonset": 0.5, "stim": {"speedDirection": 1, "oriDirection": -1, "oriBase": 30, "speedStrength": "hard", "oriStrength": "hard", "motionDirection": "in"}, "ITI": 1.0055937724273556, "rt": 814.4722099304199, "FBDuration": 0.5, "trial_count": 110, "ts": "motion", "response": "up", "onset": 767.0859827875959, "quest_estimate": 0.006189743257714424, "FB": 1, "displayFB": true, "actualOnsetTime": 797.1128249168396, "punishment_amount": 0, "responseWindow": 1.5, "decision_var": 0.008865111121522447, "stimResponseInterval": 1}
{"stimulusDuration": 2, "reward_amount": 1, "FBonset": 0.5, "stim": {"speedDirection": 1, "oriDirection": -1, "oriBase": -60, "speedStrength": "hard", "oriStrength": "easy", "motionDirection": "out"}, "ITI": 1.792689132918384, "rt": 820.8363518714905, "FBDuration": 0.5, "trial_count": 111, "ts": "motion", "response": "up", "onset": 773.5915765600232, "quest_estimate": 0.0010666561561550741, "FB": 1, "displayFB": true, "actualOnsetTime": 803.6184771060944, "punishment_amount": 0, "responseWindow": 1.5, "decision_var": 0.00372171398660507, "stimResponseInterval": 1}
{"stimulusDuration": 2, "reward_amount": 1, "FBonset": 0.5, "stim": {"speedDirection": 1, "oriDirection": -1, "oriBase": 30, "speedStrength": "hard", "oriStrength": "hard", "motionDirection": "out"}, "ITI": 1.925832272966184, "rt": 828.1388139724731, "FBDuration": 0.5, "trial_count": 112, "ts": "motion", "response": "up", "onset": 780.8842656929417, "quest_estimate": 0.00017769687087688946, "FB": 1, "displayFB": true, "actualOnsetTime": 810.911276102066, "punishment_amount": 0, "responseWindow": 1.5, "decision_var": 0.0028176559814920288, "stimResponseInterval": 1}
{"stimulusDuration": 2, "reward_amount": 1, "FBonset": 0.5, "stim": {"speedDirection": 1, "oriDirection": 1, "oriBase": 30, "speedStrength": "easy", "oriStrength": "hard", "motionDirection": "out"}, "ITI": 1.821710068076202, "rt": 835.6003458499908, "FBDuration": 0.5, "trial_count": 113, "ts": "motion", "response": "up", "onset": 788.3100979659079, "quest_estimate": 0.018427250396982134, "FB": 1, "displayFB": true, "actualOnsetTime": 818.3370931148529, "punishment_amount": 0, "responseWindow": 1.5, "decision_var": 0.021321864540445642, "stimResponseInterval": 1}
{"stimulusDuration": 2, "reward_amount": 1, "FBonset": 0.5, "stim": {"speedDirection": 1, "oriDirection": -1, "oriBase": 30, "speedStrength": "hard", "oriStrength": "easy", "motionDirection": "in"}, "ITI": 1.4770363356895055, "rt": 842.8150470256805, "FBDuration": 0.5, "trial_count": 114, "ts": "motion", "response": "down", "onset": 795.631808033984, "quest_estimate": 0.008337302918430295, "FB": 0, "displayFB": true, "actualOnsetTime": 825.6586680412292, "punishment_amount": 0, "responseWindow": 1.5, "decision_var": 0.007947437010584667, "stimResponseInterval": 1}
{"stimulusDuration": 2, "reward_amount": 1, "FBonset": 0.5, "stim": {"speedDirection": -1, "oriDirection": 1, "oriBase": 30, "speedStrength": "easy", "oriStrength": "hard", "motionDirection": "out"}, "ITI": 1.0479379283481833, "rt": 849.8956589698792, "FBDuration": 0.5, "trial_count": 115, "ts": "motion", "response": "down", "onset": 802.6088443696735, "quest_estimate": 0.01786756582681656, "FB": 1, "displayFB": true, "actualOnsetTime": 832.6357090473175, "punishment_amount": 0, "responseWindow": 1.5, "decision_var": 0.020739641410775757, "stimResponseInterval": 1}
{"stimulusDuration": 2, "reward_amount": 1, "FBonset": 0.5, "stim": {"speedDirection": -1, "oriDirection": -1, "oriBase": -60, "speedStrength": "hard", "oriStrength": "easy", "motionDirection": "in"}, "ITI": 1.6722490837239534, "rt": 856.5081360340118, "FBDuration": 0.5, "trial_count": 116, "ts": "motion", "response": "down", "onset": 809.1567822980218, "quest_estimate": 0.007441090420970083, "FB": 1, "displayFB": true, "actualOnsetTime": 839.1838729381561, "punishment_amount": 0, "responseWindow": 1.5, "decision_var": 0.010086854506170362, "stimResponseInterval": 1}
{"stimulusDuration": 2, "reward_amount": 1, "FBonset": 0.5, "stim": {"speedDirection": -1, "oriDirection": 1, "oriBase": -60, "speedStrength": "hard", "oriStrength": "hard", "motionDirection": "out"}, "ITI": 1.0872668852536762, "rt": 863.9074590206146, "FBDuration": 0.5, "trial_count": 117, "ts": "motion", "response": "down", "onset": 816.3290313817457, "quest_estimate": -0.0007021301512478498, "FB": 1, "displayFB": true, "actualOnsetTime": 846.3558881282806, "punishment_amount": 0, "responseWindow": 1.5, "decision_var": 0.0019217157859425377, "stimResponseInterval": 1}
{"stimulusDuration": 2, "reward_amount": 1, "FBonset": 0.5, "stim": {"speedDirection": -1, "oriDirection": -1, "oriBase": 30, "speedStrength": "hard", "oriStrength": "easy", "motionDirection": "in"}, "ITI": 1.6952622454628707, "rt": 870.3129639625549, "FBDuration": 0.5, "trial_count": 118, "ts": "motion", "response": "down", "onset": 822.9162982669994, "quest_estimate": 0.006554350082851414, "FB": 1, "displayFB": true, "actualOnsetTime": 852.9433739185333, "punishment_amount": 0, "responseWindow": 1.5, "decision_var": 0.0091834944440999, "stimResponseInterval": 1}
{"stimulusDuration": 2, "reward_amount": 1, "FBonset": 0.5, "stim": {"speedDirection": -1, "oriDirection": -1, "oriBase": 30, "speedStrength": "hard", "oriStrength": "hard", "motionDirection": "in"}, "ITI": 1.3060438291970073, "rt": 877.4087448120117, "FBDuration": 0.5, "trial_count": 119, "ts": "motion", "response": "down", "onset": 830.1115605124623, "quest_estimate": 0.005675535077376649, "FB": 1, "displayFB": true, "actualOnsetTime": 860.1385459899902, "punishment_amount": 0, "responseWindow": 1.5, "decision_var": 0.00828971235024245, "stimResponseInterval": 1}
{"stimulusDuration": 2, "reward_amount": 1, "FBonset": 0.5, "stim": {"speedDirection": -1, "oriDirection": 1, "oriBase": 30, "speedStrength": "hard", "oriStrength": "hard", "motionDirection": "out"}, "ITI": 1.138281795140542, "rt": 884.2041058540344, "FBDuration": 0.5, "trial_count": 120, "ts": "motion", "response": "up", "onset": 836.9176043416594, "quest_estimate": 0.0013748998645619764, "FB": 0, "displayFB": true, "actualOnsetTime": 866.9445040225983, "punishment_amount": 0, "responseWindow": 1.5, "decision_var": 0.001034966378626663, "stimResponseInterval": 1}
{"stimulusDuration": 2, "reward_amount": 1, "FBonset": 0.5, "stim": {"speedDirection": -1, "oriDirection": -1, "oriBase": -60, "speedStrength": "easy", "oriStrength": "hard", "motionDirection": "in"}, "ITI": 1.5829815682464188, "rt": 890.8072810173035, "FBDuration": 0.5, "trial_count": 121, "ts": "motion", "response": "down", "onset": 843.5558861367999, "quest_estimate": 0.017969549126502053, "FB": 1, "displayFB": true, "actualOnsetTime": 873.5827300548553, "punishment_amount": 0, "responseWindow": 1.5, "decision_var": 0.02083055376865938, "stimResponseInterval": 1}
{"stimulusDuration": 2, "reward_amount": 1, "FBonset": 0.5, "stim": {"speedDirection": -1, "oriDirection": 1, "oriBase": -60, "speedStrength": "easy", "oriStrength": "easy", "motionDirection": "out"}, "ITI": 1.206759347719985, "rt": 897.9116768836975, "FBDuration": 0.5, "trial_count": 122, "ts": "motion", "response": "down", "onset": 850.6388677050463, "quest_estimate": 0.01731353098146679, "FB": 1, "displayFB": true, "actualOnsetTime": 880.6658041477203, "punishment_amount": 0, "responseWindow": 1.5, "decision_var": 0.020162787506931644, "stimResponseInterval": 1}
{"stimulusDuration": 2, "reward_amount": 1, "FBonset": 0.5, "stim": {"speedDirection": 1, "oriDirection": -1, "oriBase": 30, "speedStrength": "hard", "oriStrength": "hard", "motionDirection": "in"}, "ITI": 1.852926554694065, "rt": 904.6438348293304, "FBDuration": 0.5, "trial_count": 123, "ts": "motion", "response": "up", "onset": 857.3456270527663, "quest_estimate": 0.004805711051152718, "FB": 1, "displayFB": true, "actualOnsetTime": 887.3725199699402, "punishment_amount": 0, "responseWindow": 1.5, "decision_var": 0.007404014259196796, "stimResponseInterval": 1}
{"stimulusDuration": 2, "reward_amount": 1, "FBonset": 0.5, "stim": {"speedDirection": 1, "oriDirection": -1, "oriBase": -60, "speedStrength": "easy", "oriStrength": "easy", "motionDirection": "out"}, "ITI": 1.0463064572650476, "rt": 912.0425128936768, "FBDuration": 0.5, "trial_count": 124, "ts": "motion", "response": "up", "onset": 864.6985536074603, "quest_estimate": 0.016763694172254137, "FB": 1, "displayFB": true, "actualOnsetTime": 894.725389957428, "punishment_amount": 0, "responseWindow": 1.5, "decision_var": 0.019591019023380243, "stimResponseInterval": 1}
{"stimulusDuration": 2, "reward_amount": 1, "FBonset": 0.5, "stim": {"speedDirection": 1, "oriDirection": -1, "oriBase": 30, "speedStrength": "hard", "oriStrength": "easy", "motionDirection": "out"}, "ITI": 1.8186599592896586, "rt": 918.5119299888611, "FBDuration": 0.5, "trial_count": 125, "ts": "motion", "response": "up", "onset": 871.2448600647253, "quest_estimate": 0.0005074305705364407, "FB": 1, "displayFB": true, "actualOnsetTime": 901.2717769145966, "punishment_amount": 0, "responseWindow": 1.5, "decision_var": 0.0031037995640920135, "stimResponseInterval": 1}
{"stimulusDuration": 2, "reward_amount": 1, "FBonset": 0.5, "stim": {"speedDirection": 1, "oriDirection": -1, "oriBase": 30, "speedStrength": "easy", "oriStrength": "hard", "motionDirection": "out"}, "ITI": 1.3415398895263095, "rt": 925.8861839771271, "FBDuration": 0.5, "trial_count": 126, "ts": "motion", "response": "down", "onset": 878.563520024015, "quest_estimate": 0.0199234554381348, "FB": 0, "displayFB": true, "actualOnsetTime": 908.5905261039734, "punishment_amount": 0, "responseWindow": 1.5, "decision_var": 0.019022827802735794, "stimResponseInterval": 1}
{"stimulusDuration": 2, "reward_amount": 1, "FBonset": 0.5, "stim": {"speedDirection": 1, "oriDirection": -1, "oriBase": 30, "speedStrength": "easy", "oriStrength": "easy", "motionDirection": "out"}, "ITI": 1.8203254584066246, "rt": 932.8957369327545, "FBDuration": 0.5, "trial_count": 127, "ts": "motion", "response": "up", "onset": 885.4050599135413, "quest_estimate": 0.019378813761307935, "FB": 1, "displayFB": true, "actualOnsetTime": 915.4321300983429, "punishment_amount": 0, "responseWindow": 1.5, "decision_var": 0.022233323168223164, "stimResponseInterval": 1}
{"stimulusDuration": 2, "reward_amount": 1, "FBonset": 0.5, "stim": {"speedDirection": -1, "oriDirection": 1, "oriBase": 30, "speedStrength": "easy", "oriStrength": "easy", "motionDirection": "in"}, "ITI": 1.4867437319615964, "rt": 940.0853378772736, "FBDuration": 0.5, "trial_count": 128, "ts": "motion", "response": "down", "onset": 892.7253853719479, "quest_estimate": 0.017423198994277994, "FB": 1, "displayFB": true, "actualOnsetTime": 922.7521760463715, "punishment_amount": 0, "responseWindow": 1.5, "decision_var": 0.020262466757254127, "stimResponseInterval": 1}
