{"stimulusDuration": 2, "reward_amount": 1, "FBonset": 0.5, "stim": {"ori_start": -60, "motion_direction": "out", "speed_end": 0.09405513871166951, "oriDirection": 1, "oriBase": -60, "motionDirection": "out", "speedDirection": -1, "speedStrength": "hard", "speed_start": 0.1, "oriStrength": "hard", "ori_end": -45}, "ITI": 1.4781717968363453, "rt": 0.3468308448791504, "decision_var": 0.005944861288330501, "FBDuration": 0.5, "trial_count": 1, "ts": "motion", "response": "down", "onset": 2, "quest_estimate": 0.0023101954221333362, "FB": 1, "displayFB": true, "punishment_amount": 0, "responseWindow": 1.5, "exp_stage": "adaptive_procedure", "stimResponseInterval": 1, "trial_time": 4.39286208152771}
{"stimulusDuration": 2, "reward_amount": 1, "FBonset": 0.5, "stim": {"ori_start": -60, "motion_direction": "out", "speed_end": 0.1045108464639502, "oriDirection": -1, "oriBase": -60, "motionDirection": "out", "speedDirection": 1, "speedStrength": "hard", "speed_start": 0.1, "oriStrength": "easy", "ori_end": -85}, "ITI": 1.845528423116676, "rt": 0.33708786964416504, "decision_var": 0.0045108464639502036, "FBDuration": 0.5, "trial_count": 2, "ts": "motion", "response": "up", "onset": 8.978171796836346, "quest_estimate": 0.0009113180736858711, "FB": 1, "displayFB": true, "punishment_amount": 0, "responseWindow": 1.5, "exp_stage": "adaptive_procedure", "stimResponseInterval": 1, "trial_time": 4.385140895843506}
{"stimulusDuration": 2, "reward_amount": 1, "FBonset": 0.5, "stim": {"ori_start": -60, "motion_direction": "in", "speed_end": 0.0945447878140449, "oriDirection": -1, "oriBase": -60, "motionDirection": "in", "speedDirection": -1, "speedStrength": "easy", "speed_start": 0.1, "oriStrength": "easy", "ori_end": -85}, "ITI": 1.777722290499856, "rt": 0.26866888999938965, "decision_var": 0.0054552121859550995, "FBDuration": 0.5, "trial_count": 3, "ts": "motion", "response": "down", "onset": 16.32370021995302, "quest_estimate": 0.003860435850866817, "FB": 1, "displayFB": true, "punishment_amount": 0, "responseWindow": 1.5, "exp_stage": "adaptive_procedure", "stimResponseInterval": 1, "trial_time": 4.318327903747559}
{"stimulusDuration": 2, "reward_amount": 1, "FBonset": 0.5, "stim": {"ori_start": 30, "motion_direction": "in", "speed_end": 0.10309720918370527, "oriDirection": -1, "oriBase": 30, "motionDirection": "in", "speedDirection": 1, "speedStrength": "hard", "speed_start": 0.1, "oriStrength": "easy", "ori_end": 5}, "ITI": 1.132328121722045, "rt": 0.2928798198699951, "decision_var": 0.003097209183705256, "FBDuration": 0.5, "trial_count": 4, "ts": "motion", "response": "down", "onset": 23.601422510452878, "quest_estimate": 0.004207359618283141, "FB": 0, "displayFB": true, "punishment_amount": 0, "responseWindow": 1.5, "exp_stage": "adaptive_procedure", "stimResponseInterval": 1, "trial_time": 4.329239845275879}
{"stimulusDuration": 2, "reward_amount": 1, "FBonset": 0.5, "stim": {"ori_start": 30, "motion_direction": "in", "speed_end": 0.1047184467344784, "oriDirection": -1, "oriBase": 30, "motionDirection": "in", "speedDirection": 1, "speedStrength": "easy", "speed_start": 0.1, "oriStrength": "easy", "ori_end": 5}, "ITI": 1.2091437335717499, "rt": 0.38637399673461914, "decision_var": 0.004718446734478396, "FBDuration": 0.5, "trial_count": 5, "ts": "motion", "response": "up", "onset": 30.233750632174925, "quest_estimate": 0.0032287929446654373, "FB": 1, "displayFB": true, "punishment_amount": 0, "responseWindow": 1.5, "exp_stage": "adaptive_procedure", "stimResponseInterval": 1, "trial_time": 4.437037944793701}
{"stimulusDuration": 2, "reward_amount": 1, "FBonset": 0.5, "stim": {"ori_start": 30, "motion_direction": "in", "speed_end": 0.09361956054309425, "oriDirection": -1, "oriBase": 30, "motionDirection": "in", "speedDirection": -1, "speedStrength": "hard", "speed_start": 0.1, "oriStrength": "hard", "ori_end": 15}, "ITI": 1.0760740099149464, "rt": 0.3159911632537842, "decision_var": 0.006380439456905744, "FBDuration": 0.5, "trial_count": 6, "ts": "motion", "response": "down", "onset": 36.942894365746675, "quest_estimate": 0.0028426209519420917, "FB": 1, "displayFB": true, "punishment_amount": 0, "responseWindow": 1.5, "exp_stage": "adaptive_procedure", "stimResponseInterval": 1, "trial_time": 4.355625152587891}
{"stimulusDuration": 2, "reward_amount": 1, "FBonset": 0.5, "stim": {"ori_start": 30, "motion_direction": "in", "speed_end": 0.10400384320820256, "oriDirection": -1, "oriBase": 30, "motionDirection": "in", "speedDirection": 1, "speedStrength": "easy", "speed_start": 0.1, "oriStrength": "easy", "ori_end": 5}, "ITI": 1.6465880607639651, "rt": 0.25573205947875977, "decision_var": 0.004003843208202559, "FBDuration": 0.5, "trial_count": 7, "ts": "motion", "response": "up", "onset": 43.51896837566162, "quest_estimate": 0.0026166765803353337, "FB": 1, "displayFB": true, "punishment_amount": 0, "responseWindow": 1.5, "exp_stage": "adaptive_procedure", "stimResponseInterval": 1, "trial_time": 4.308695077896118}
{"stimulusDuration": 2, "reward_amount": 1, "FBonset": 0.5, "stim": {"ori_start": 30, "motion_direction": "in", "speed_end": 0.10500218665394467, "oriDirection": 1, "oriBase": 30, "motionDirection": "in", "speedDirection": 1, "speedStrength": "hard", "speed_start": 0.1, "oriStrength": "easy", "ori_end": 55}, "ITI": 1.3604630551179684, "rt": 0.47780799865722656, "decision_var": 0.005002186653944661, "FBDuration": 0.5, "trial_count": 8, "ts": "motion", "response": "down", "onset": 50.66555643642559, "quest_estimate": 0.006063575088905801, "FB": 0, "displayFB": true, "punishment_amount": 0, "responseWindow": 1.5, "exp_stage": "adaptive_procedure", "stimResponseInterval": 1, "trial_time": 4.523253917694092}
{"stimulusDuration": 2, "reward_amount": 1, "FBonset": 0.5, "stim": {"ori_start": 30, "motion_direction": "out", "speed_end": 0.10820862347427647, "oriDirection": -1, "oriBase": 30, "motionDirection": "out", "speedDirection": 1, "speedStrength": "hard", "speed_start": 0.1, "oriStrength": "hard", "ori_end": 15}, "ITI": 1.8629149000589198, "rt": 0.33385515213012695, "decision_var": 0.008208623474276464, "FBDuration": 0.5, "trial_count": 9, "ts": "motion", "response": "up", "onset": 57.52601949154356, "quest_estimate": 0.004730034305381124, "FB": 1, "displayFB": true, "punishment_amount": 0, "responseWindow": 1.5, "exp_stage": "adaptive_procedure", "stimResponseInterval": 1, "trial_time": 4.382158994674683}
{"stimulusDuration": 2, "reward_amount": 1, "FBonset": 0.5, "stim": {"ori_start": 30, "motion_direction": "in", "speed_end": 0.09668889641261157, "oriDirection": 1, "oriBase": 30, "motionDirection": "in", "speedDirection": -1, "speedStrength": "easy", "speed_start": 0.1, "oriStrength": "easy", "ori_end": 55}, "ITI": 1.6825912716194926, "rt": 0.30109500885009766, "decision_var": 0.0033111035873884392, "FBDuration": 0.5, "trial_count": 10, "ts": "motion", "response": "up", "onset": 64.88893439160248, "quest_estimate": 0.0059670991095420595, "FB": 0, "displayFB": true, "punishment_amount": 0, "responseWindow": 1.5, "exp_stage": "adaptive_procedure", "stimResponseInterval": 1, "trial_time": 4.351723909378052}
{"stimulusDuration": 2, "reward_amount": 1, "FBonset": 0.5, "stim": {"ori_start": 30, "motion_direction": "out", "speed_end": 0.09313740387417972, "oriDirection": -1, "oriBase": 30, "motionDirection": "out", "speedDirection": -1, "speedStrength": "hard", "speed_start": 0.1, "oriStrength": "hard", "ori_end": 15}, "ITI": 1.5680927225436134, "rt": 0.36193013191223145, "decision_var": 0.006862596125820283, "FBDuration": 0.5, "trial_count": 11, "ts": "motion", "response": "down", "onset": 72.07152566322196, "quest_estimate": 0.0034137482187954205, "FB": 1, "displayFB": true, "punishment_amount": 0, "responseWindow": 1.5, "exp_stage": "adaptive_procedure", "stimResponseInterval": 1, "trial_time": 4.411079168319702}
{"stimulusDuration": 2, "reward_amount": 1, "FBonset": 0.5, "stim": {"ori_start": -60, "motion_direction": "out", "speed_end": 0.09278727469107163, "oriDirection": -1, "oriBase": -60, "motionDirection": "out", "speedDirection": -1, "speedStrength": "easy", "speed_start": 0.1, "oriStrength": "hard", "ori_end": -75}, "ITI": 1.743256888423065, "rt": 0.32666897773742676, "decision_var": 0.007212725308928372, "FBDuration": 0.5, "trial_count": 12, "ts": "motion", "response": "down", "onset": 79.13961838576557, "quest_estimate": 0.005306791270088318, "FB": 1, "displayFB": true, "punishment_amount": 0, "responseWindow": 1.5, "exp_stage": "adaptive_procedure", "stimResponseInterval": 1, "trial_time": 4.37137508392334}
{"stimulusDuration": 2, "reward_amount": 1, "FBonset": 0.5, "stim": {"ori_start": -60, "motion_direction": "out", "speed_end": 0.09446615746982043, "oriDirection": -1, "oriBase": -60, "motionDirection": "out", "speedDirection": -1, "speedStrength": "hard", "speed_start": 0.1, "oriStrength": "hard", "ori_end": -75}, "ITI": 1.9471832319327949, "rt": 0.5871500968933105, "decision_var": 0.005533842530179571, "FBDuration": 0.5, "trial_count": 13, "ts": "motion", "response": "up", "onset": 86.38287527418863, "quest_estimate": 0.0065158680115733544, "FB": 0, "displayFB": true, "punishment_amount": 0, "responseWindow": 1.5, "exp_stage": "adaptive_procedure", "stimResponseInterval": 1, "trial_time": 4.636916875839233}
{"stimulusDuration": 2, "reward_amount": 1, "FBonset": 0.5, "stim": {"ori_start": 30, "motion_direction": "out", "speed_end": 0.09137857895561488, "oriDirection": 1, "oriBase": 30, "motionDirection": "out", "speedDirection": -1, "speedStrength": "hard", "speed_start": 0.1, "oriStrength": "hard", "ori_end": 45}, "ITI": 1.1836639357883194, "rt": 0.2727508544921875, "decision_var": 0.008621421044385118, "FBDuration": 0.5, "trial_count": 14, "ts": "motion", "response": "up", "onset": 93.83005850612143, "quest_estimate": 0.009587457523466094, "FB": 0, "displayFB": true, "punishment_amount": 0, "responseWindow": 1.5, "exp_stage": "adaptive_procedure", "stimResponseInterval": 1, "trial_time": 4.3224451541900635}
{"stimulusDuration": 2, "reward_amount": 1, "FBonset": 0.5, "stim": {"ori_start": -60, "motion_direction": "out", "speed_end": 0.0935300288341714, "oriDirection": 1, "oriBase": -60, "motionDirection": "out", "speedDirection": -1, "speedStrength": "easy", "speed_start": 0.1, "oriStrength": "hard", "ori_end": -45}, "ITI": 1.3535288820691647, "rt": 0.29462099075317383, "decision_var": 0.006469971165828606, "FBDuration": 0.5, "trial_count": 15, "ts": "motion", "response": "down", "onset": 100.51372244190975, "quest_estimate": 0.004664862347180207, "FB": 1, "displayFB": true, "punishment_amount": 0, "responseWindow": 1.5, "exp_stage": "adaptive_procedure", "stimResponseInterval": 1, "trial_time": 4.341485023498535}
{"stimulusDuration": 2, "reward_amount": 1, "FBonset": 0.5, "stim": {"ori_start": 30, "motion_direction": "out", "speed_end": 0.09425331535344743, "oriDirection": -1, "oriBase": 30, "motionDirection": "out", "speedDirection": -1, "speedStrength": "easy", "speed_start": 0.1, "oriStrength": "easy", "ori_end": 5}, "ITI": 1.487668281559431, "rt": 0.35074400901794434, "decision_var": 0.005746684646552577, "FBDuration": 0.5, "trial_count": 16, "ts": "motion", "response": "up", "onset": 107.36725132397892, "quest_estimate": 0.008213254933264691, "FB": 0, "displayFB": true, "punishment_amount": 0, "responseWindow": 1.5, "exp_stage": "adaptive_procedure", "stimResponseInterval": 1, "trial_time": 4.393035888671875}
{"stimulusDuration": 2, "reward_amount": 1, "FBonset": 0.5, "stim": {"ori_start": -60, "motion_direction": "out", "speed_end": 0.09018232614664512, "oriDirection": -1, "oriBase": -60, "motionDirection": "out", "speedDirection": -1, "speedStrength": "easy", "speed_start": 0.1, "oriStrength": "easy", "ori_end": -85}, "ITI": 1.690875354604284, "rt": 0.6143379211425781, "decision_var": 0.009817673853354886, "FBDuration": 0.5, "trial_count": 17, "ts": "motion", "response": "down", "onset": 114.35491960553836, "quest_estimate": 0.007529795096587563, "FB": 1, "displayFB": true, "punishment_amount": 0, "responseWindow": 1.5, "exp_stage": "adaptive_procedure", "stimResponseInterval": 1, "trial_time": 4.648421049118042}
{"stimulusDuration": 2, "reward_amount": 1, "FBonset": 0.5, "stim": {"ori_start": 30, "motion_direction": "out", "speed_end": 0.08832204922380843, "oriDirection": -1, "oriBase": 30, "motionDirection": "out", "speedDirection": -1, "speedStrength": "hard", "speed_start": 0.1, "oriStrength": "easy", "ori_end": 5}, "ITI": 1.5090516531052005, "rt": 0.32059311866760254, "decision_var": 0.011677950776191583, "FBDuration": 0.5, "trial_count": 18, "ts": "motion", "response": "up", "onset": 121.54579496014264, "quest_estimate": 0.01263570886551519, "FB": 0, "displayFB": true, "punishment_amount": 0, "responseWindow": 1.5, "exp_stage": "adaptive_procedure", "stimResponseInterval": 1, "trial_time": 4.362352132797241}
{"stimulusDuration": 2, "reward_amount": 1, "FBonset": 0.5, "stim": {"ori_start": -60, "motion_direction": "in", "speed_end": 0.08528860020157794, "oriDirection": 1, "oriBase": -60, "motionDirection": "in", "speedDirection": -1, "speedStrength": "hard", "speed_start": 0.1, "oriStrength": "easy", "ori_end": -35}, "ITI": 1.0216581591956428, "rt": 0.4081249237060547, "decision_var": 0.014711399798422068, "FBDuration": 0.5, "trial_count": 19, "ts": "motion", "response": "up", "onset": 128.55484661324783, "quest_estimate": 0.015656431193021843, "FB": 0, "displayFB": true, "punishment_amount": 0, "responseWindow": 1.5, "exp_stage": "adaptive_procedure", "stimResponseInterval": 1, "trial_time": 4.455209970474243}
{"stimulusDuration": 2, "reward_amount": 1, "FBonset": 0.5, "stim": {"ori_start": 30, "motion_direction": "in", "speed_end": 0.08228203805399048, "oriDirection": 1, "oriBase": 30, "motionDirection": "in", "speedDirection": -1, "speedStrength": "hard", "speed_start": 0.1, "oriStrength": "hard", "ori_end": 45}, "ITI": 1.854796694575788, "rt": 0.2791759967803955, "decision_var": 0.01771796194600953, "FBDuration": 0.5, "trial_count": 20, "ts": "motion", "response": "down", "onset": 135.07650477244349, "quest_estimate": 0.014403767498840387, "FB": 1, "displayFB": true, "punishment_amount": 0, "responseWindow": 1.5, "exp_stage": "adaptive_procedure", "stimResponseInterval": 1, "trial_time": 4.318832159042358}
{"stimulusDuration": 2, "reward_amount": 1, "FBonset": 0.5, "stim": {"ori_start": 30, "motion_direction": "out", "speed_end": 0.09094292830162647, "oriDirection": -1, "oriBase": 30, "motionDirection": "out", "speedDirection": -1, "speedStrength": "easy", "speed_start": 0.1, "oriStrength": "hard", "ori_end": 15}, "ITI": 1.7897143140900842, "rt": 0.2091209888458252, "decision_var": 0.00905707169837354, "FBDuration": 0.5, "trial_count": 21, "ts": "motion", "response": "down", "onset": 142.43130146701927, "quest_estimate": 0.006863206712013875, "FB": 1, "displayFB": true, "punishment_amount": 0, "responseWindow": 1.5, "exp_stage": "adaptive_procedure", "stimResponseInterval": 1, "trial_time": 4.2581751346588135}
{"stimulusDuration": 2, "reward_amount": 1, "FBonset": 0.5, "stim": {"ori_start": 30, "motion_direction": "out", "speed_end": 0.09168648321702015, "oriDirection": 1, "oriBase": 30, "motionDirection": "out", "speedDirection": -1, "speedStrength": "easy", "speed_start": 0.1, "oriStrength": "easy", "ori_end": 55}, "ITI": 1.6361025262485567, "rt": 0.27660608291625977, "decision_var": 0.008313516782979855, "FBDuration": 0.5, "trial_count": 22, "ts": "motion", "response": "up", "onset": 149.72101578110934, "quest_estimate": 0.010575647590504056, "FB": 0, "displayFB": true, "punishment_amount": 0, "responseWindow": 1.5, "exp_stage": "adaptive_procedure", "stimResponseInterval": 1, "trial_time": 4.316375970840454}
{"stimulusDuration": 2, "reward_amount": 1, "FBonset": 0.5, "stim": {"ori_start": -60, "motion_direction": "in", "speed_end": 0.1124904993171408, "oriDirection": -1, "oriBase": -60, "motionDirection": "in", "speedDirection": 1, "speedStrength": "easy", "speed_start": 0.1, "oriStrength": "hard", "ori_end": -75}, "ITI": 1.7803880350576544, "rt": 0.40579891204833984, "decision_var": 0.012490499317140788, "FBDuration": 0.5, "trial_count": 23, "ts": "motion", "response": "up", "onset": 156.8571183073579, "quest_estimate": 0.009877426916447135, "FB": 1, "displayFB": true, "punishment_amount": 0, "responseWindow": 1.5, "exp_stage": "adaptive_procedure", "stimResponseInterval": 1, "trial_time": 4.440608024597168}
{"stimulusDuration": 2, "reward_amount": 1, "FBonset": 0.5, "stim": {"ori_start": -60, "motion_direction": "in", "speed_end": 0.11645415628845124, "oriDirection": -1, "oriBase": -60, "motionDirection": "in", "speedDirection": 1, "speedStrength": "hard", "speed_start": 0.1, "oriStrength": "hard", "ori_end": -75}, "ITI": 1.481904497158831, "rt": 0.2581338882446289, "decision_var": 0.016454156288451236, "FBDuration": 0.5, "trial_count": 24, "ts": "motion", "response": "up", "onset": 164.13750634241555, "quest_estimate": 0.013167919462661892, "FB": 1, "displayFB": true, "punishment_amount": 0, "responseWindow": 1.5, "exp_stage": "adaptive_procedure", "stimResponseInterval": 1, "trial_time": 4.292288064956665}
{"stimulusDuration": 2, "reward_amount": 1, "FBonset": 0.5, "stim": {"ori_start": -60, "motion_direction": "out", "speed_end": 0.08827563587019768, "oriDirection": 1, "oriBase": -60, "motionDirection": "out", "speedDirection": -1, "speedStrength": "easy", "speed_start": 0.1, "oriStrength": "hard", "ori_end": -45}, "ITI": 1.787229655011073, "rt": 0.2663140296936035, "decision_var": 0.011724364129802323, "FBDuration": 0.5, "trial_count": 25, "ts": "motion", "response": "up", "onset": 171.11941083957439, "quest_estimate": 0.013807375253765589, "FB": 0, "displayFB": true, "punishment_amount": 0, "responseWindow": 1.5, "exp_stage": "adaptive_procedure", "stimResponseInterval": 1, "trial_time": 4.301100015640259}
{"stimulusDuration": 2, "reward_amount": 1, "FBonset": 0.5, "stim": {"ori_start": -60, "motion_direction": "out", "speed_end": 0.11603291373306863, "oriDirection": 1, "oriBase": -60, "motionDirection": "out", "speedDirection": 1, "speedStrength": "easy", "speed_start": 0.1, "oriStrength": "easy", "ori_end": -35}, "ITI": 1.7051111397377678, "rt": 0.34143900871276855, "decision_var": 0.01603291373306863, "FBDuration": 0.5, "trial_count": 26, "ts": "motion", "response": "up", "onset": 178.40664049458545, "quest_estimate": 0.013087403240730475, "FB": 1, "displayFB": true, "punishment_amount": 0, "responseWindow": 1.5, "exp_stage": "adaptive_procedure", "stimResponseInterval": 1, "trial_time": 4.3858959674835205}
{"stimulusDuration": 2, "reward_amount": 1, "FBonset": 0.5, "stim": {"ori_start": -60, "motion_direction": "out", "speed_end": 0.11520737897244841, "oriDirection": -1, "oriBase": -60, "motionDirection": "out", "speedDirection": 1, "speedStrength": "hard", "speed_start": 0.1, "oriStrength": "hard", "ori_end": -75}, "ITI": 1.6452597153278359, "rt": 0.33301401138305664, "decision_var": 0.01520737897244841, "FBDuration": 0.5, "trial_count": 27, "ts": "motion", "response": "up", "onset": 185.6117516343232, "quest_estimate": 0.011948268088305767, "FB": 1, "displayFB": true, "punishment_amount": 0, "responseWindow": 1.5, "exp_stage": "adaptive_procedure", "stimResponseInterval": 1, "trial_time": 4.3692309856414795}
{"stimulusDuration": 2, "reward_amount": 1, "FBonset": 0.5, "stim": {"ori_start": -60, "motion_direction": "in", "speed_end": 0.08474265786461652, "oriDirection": 1, "oriBase": -60, "motionDirection": "in", "speedDirection": -1, "speedStrength": "easy", "speed_start": 0.1, "oriStrength": "hard", "ori_end": -45}, "ITI": 1.0946995924232632, "rt": 0.3102850914001465, "decision_var": 0.01525734213538349, "FBDuration": 0.5, "trial_count": 28, "ts": "motion", "response": "down", "onset": 192.75701134965104, "quest_estimate": 0.01238064772891663, "FB": 1, "displayFB": true, "punishment_amount": 0, "responseWindow": 1.5, "exp_stage": "adaptive_procedure", "stimResponseInterval": 1, "trial_time": 4.3554229736328125}
{"stimulusDuration": 2, "reward_amount": 1, "FBonset": 0.5, "stim": {"ori_start": -60, "motion_direction": "in", "speed_end": 0.0855060374567943, "oriDirection": -1, "oriBase": -60, "motionDirection": "in", "speedDirection": -1, "speedStrength": "easy", "speed_start": 0.1, "oriStrength": "easy", "ori_end": -85}, "ITI": 1.059216256732881, "rt": 0.05901002883911133, "decision_var": 0.014493962543205702, "FBDuration": 0.5, "trial_count": 29, "ts": "motion", "response": "down", "onset": 199.3517109420743, "quest_estimate": 0.011686961436328594, "FB": 1, "displayFB": true, "punishment_amount": 0, "responseWindow": 1.5, "exp_stage": "adaptive_procedure", "stimResponseInterval": 1, "trial_time": 4.100409030914307}
{"stimulusDuration": 2, "reward_amount": 1, "FBonset": 0.5, "stim": {"ori_start": -60, "motion_direction": "out", "speed_end": 0.0860230002223359, "oriDirection": 1, "oriBase": -60, "motionDirection": "out", "speedDirection": -1, "speedStrength": "hard", "speed_start": 0.1, "oriStrength": "hard", "ori_end": -45}, "ITI": 1.2222156859525533, "rt": 0.2711448669433594, "decision_var": 0.013976999777664104, "FBDuration": 0.5, "trial_count": 30, "ts": "motion", "response": "up", "onset": 205.9109271988072, "quest_estimate": 0.014825964668388012, "FB": 0, "displayFB": true, "punishment_amount": 0, "responseWindow": 1.5, "exp_stage": "adaptive_procedure", "stimResponseInterval": 1, "trial_time": 4.319690942764282}
{"stimulusDuration": 2, "reward_amount": 1, "FBonset": 0.5, "stim": {"ori_start": -60, "motion_direction": "out", "speed_end": 0.08625735003997435, "oriDirection": 1, "oriBase": -60, "motionDirection": "out", "speedDirection": -1, "speedStrength": "easy", "speed_start": 0.1, "oriStrength": "easy", "ori_end": -35}, "ITI": 1.4011891221028545, "rt": 0.31563901901245117, "decision_var": 0.013742649960025652, "FBDuration": 0.5, "trial_count": 31, "ts": "motion", "response": "down", "onset": 212.63314288475976, "quest_estimate": 0.011006202462488887, "FB": 1, "displayFB": true, "punishment_amount": 0, "responseWindow": 1.5, "exp_stage": "adaptive_procedure", "stimResponseInterval": 1, "trial_time": 4.355946779251099}
{"stimulusDuration": 2, "reward_amount": 1, "FBonset": 0.5, "stim": {"ori_start": -60, "motion_direction": "out", "speed_end": 0.08315850597218537, "oriDirection": 1, "oriBase": -60, "motionDirection": "out", "speedDirection": -1, "speedStrength": "hard", "speed_start": 0.1, "oriStrength": "easy", "ori_end": -35}, "ITI": 1.6981702394674545, "rt": 0.3058631420135498, "decision_var": 0.016841494027814635, "FBDuration": 0.5, "trial_count": 32, "ts": "motion", "response": "down", "onset": 219.53433200686263, "quest_estimate": 0.013630635530237065, "FB": 1, "displayFB": true, "punishment_amount": 0, "responseWindow": 1.5, "exp_stage": "adaptive_procedure", "stimResponseInterval": 1, "trial_time": 4.341387987136841}
{"stimulusDuration": 2, "reward_amount": 1, "FBonset": 0.5, "stim": {"ori_start": 30, "motion_direction": "out", "speed_end": 0.11300330479075012, "oriDirection": -1, "oriBase": 30, "motionDirection": "out", "speedDirection": 1, "speedStrength": "easy", "speed_start": 0.1, "oriStrength": "easy", "ori_end": 5}, "ITI": 1.336373255681298, "rt": 0.35399317741394043, "decision_var": 0.013003304790750111, "FBDuration": 0.5, "trial_count": 33, "ts": "motion", "response": "up", "onset": 226.73250224633009, "quest_estimate": 0.010338233391299079, "FB": 1, "displayFB": true, "punishment_amount": 0, "responseWindow": 1.5, "exp_stage": "adaptive_procedure", "stimResponseInterval": 1, "trial_time": 4.39044713973999}
{"stimulusDuration": 2, "reward_amount": 1, "FBonset": 0.5, "stim": {"ori_start": 30, "motion_direction": "out", "speed_end": 0.11227589740773282, "oriDirection": 1, "oriBase": 30, "motionDirection": "out", "speedDirection": 1, "speedStrength": "easy", "speed_start": 0.1, "oriStrength": "easy", "ori_end": 55}, "ITI": 1.718965424818492, "rt": 0.2730128765106201, "decision_var": 0.012275897407732814, "FBDuration": 0.5, "trial_count": 34, "ts": "motion", "response": "up", "onset": 233.5688755020114, "quest_estimate": 0.009682920456304325, "FB": 1, "displayFB": true, "punishment_amount": 0, "responseWindow": 1.5, "exp_stage": "adaptive_procedure", "stimResponseInterval": 1, "trial_time": 4.323323965072632}
{"stimulusDuration": 2, "reward_amount": 1, "FBonset": 0.5, "stim": {"ori_start": 30, "motion_direction": "out", "speed_end": 0.11563571982345973, "oriDirection": 1, "oriBase": 30, "motionDirection": "out", "speedDirection": 1, "speedStrength": "hard", "speed_start": 0.1, "oriStrength": "easy", "ori_end": 55}, "ITI": 1.4873786515932212, "rt": 0.2704141139984131, "decision_var": 0.01563571982345972, "FBDuration": 0.5, "trial_count": 35, "ts": "motion", "response": "up", "onset": 240.7878409268299, "quest_estimate": 0.012451949805828161, "FB": 1, "displayFB": true, "punishment_amount": 0, "responseWindow": 1.5, "exp_stage": "adaptive_procedure", "stimResponseInterval": 1, "trial_time": 4.312762022018433}
{"stimulusDuration": 2, "reward_amount": 1, "FBonset": 0.5, "stim": {"ori_start": 30, "motion_direction": "out", "speed_end": 0.08555323117488303, "oriDirection": -1, "oriBase": 30, "motionDirection": "out", "speedDirection": -1, "speedStrength": "hard", "speed_start": 0.1, "oriStrength": "hard", "ori_end": 15}, "ITI": 1.899532000464917, "rt": 0.26293492317199707, "decision_var": 0.014446768825116967, "FBDuration": 0.5, "trial_count": 36, "ts": "motion", "response": "down", "onset": 247.7752195784231, "quest_estimate": 0.01128761034699947, "FB": 1, "displayFB": true, "punishment_amount": 0, "responseWindow": 1.5, "exp_stage": "adaptive_procedure", "stimResponseInterval": 1, "trial_time": 4.297091960906982}
{"stimulusDuration": 2, "reward_amount": 1, "FBonset": 0.5, "stim": {"ori_start": -60, "motion_direction": "in", "speed_end": 0.0867276405222735, "oriDirection": -1, "oriBase": -60, "motionDirection": "in", "speedDirection": -1, "speedStrength": "hard", "speed_start": 0.1, "oriStrength": "easy", "ori_end": -85}, "ITI": 1.5706050806541885, "rt": 0.28389716148376465, "decision_var": 0.013272359477726502, "FBDuration": 0.5, "trial_count": 37, "ts": "motion", "response": "down", "onset": 255.17475157888802, "quest_estimate": 0.01013711767468978, "FB": 1, "displayFB": true, "punishment_amount": 0, "responseWindow": 1.5, "exp_stage": "adaptive_procedure", "stimResponseInterval": 1, "trial_time": 4.3340020179748535}
{"stimulusDuration": 2, "reward_amount": 1, "FBonset": 0.5, "stim": {"ori_start": 30, "motion_direction": "in", "speed_end": 0.08843967425709942, "oriDirection": -1, "oriBase": 30, "motionDirection": "in", "speedDirection": -1, "speedStrength": "easy", "speed_start": 0.1, "oriStrength": "easy", "ori_end": 5}, "ITI": 1.633059310791277, "rt": 0.24869418144226074, "decision_var": 0.011560325742900585, "FBDuration": 0.5, "trial_count": 38, "ts": "motion", "response": "down", "onset": 262.2453566595422, "quest_estimate": 0.009040132767413861, "FB": 1, "displayFB": true, "punishment_amount": 0, "responseWindow": 1.5, "exp_stage": "adaptive_procedure", "stimResponseInterval": 1, "trial_time": 4.292430877685547}
{"stimulusDuration": 2, "reward_amount": 1, "FBonset": 0.5, "stim": {"ori_start": -60, "motion_direction": "out", "speed_end": 0.11085651276901522, "oriDirection": -1, "oriBase": -60, "motionDirection": "out", "speedDirection": 1, "speedStrength": "easy", "speed_start": 0.1, "oriStrength": "easy", "ori_end": -85}, "ITI": 1.1826082274648795, "rt": 0.27684903144836426, "decision_var": 0.010856512769015211, "FBDuration": 0.5, "trial_count": 39, "ts": "motion", "response": "up", "onset": 269.3784159703335, "quest_estimate": 0.008409741598116915, "FB": 1, "displayFB": true, "punishment_amount": 0, "responseWindow": 1.5, "exp_stage": "adaptive_procedure", "stimResponseInterval": 1, "trial_time": 4.318243980407715}
{"stimulusDuration": 2, "reward_amount": 1, "FBonset": 0.5, "stim": {"ori_start": -60, "motion_direction": "in", "speed_end": 0.08788794138809711, "oriDirection": -1, "oriBase": -60, "motionDirection": "in", "speedDirection": -1, "speedStrength": "hard", "speed_start": 0.1, "oriStrength": "easy", "ori_end": -85}, "ITI": 1.0667727242397942, "rt": 0.504688024520874, "decision_var": 0.012112058611902891, "FBDuration": 0.5, "trial_count": 40, "ts": "motion", "response": "down", "onset": 276.06102419779836, "quest_estimate": 0.008999996477314538, "FB": 1, "displayFB": true, "punishment_amount": 0, "responseWindow": 1.5, "exp_stage": "adaptive_procedure", "stimResponseInterval": 1, "trial_time": 4.545055866241455}
{"stimulusDuration": 2, "reward_amount": 1, "FBonset": 0.5, "stim": {"ori_start": -60, "motion_direction": "in", "speed_end": 0.08903478243975269, "oriDirection": -1, "oriBase": -60, "motionDirection": "in", "speedDirection": -1, "speedStrength": "hard", "speed_start": 0.1, "oriStrength": "hard", "ori_end": -75}, "ITI": 1.3787576854544068, "rt": 0.22208595275878906, "decision_var": 0.010965217560247327, "FBDuration": 0.5, "trial_count": 41, "ts": "motion", "response": "down", "onset": 282.62779692203816, "quest_estimate": 0.007877445195474578, "FB": 1, "displayFB": true, "punishment_amount": 0, "responseWindow": 1.5, "exp_stage": "adaptive_procedure", "stimResponseInterval": 1, "trial_time": 4.259492874145508}
{"stimulusDuration": 2, "reward_amount": 1, "FBonset": 0.5, "stim": {"ori_start": 30, "motion_direction": "in", "speed_end": 0.09016680679663716, "oriDirection": -1, "oriBase": 30, "motionDirection": "in", "speedDirection": -1, "speedStrength": "hard", "speed_start": 0.1, "oriStrength": "easy", "ori_end": 5}, "ITI": 1.894496803093534, "rt": 0.2924661636352539, "decision_var": 0.009833193203362848, "FBDuration": 0.5, "trial_count": 42, "ts": "motion", "response": "down", "onset": 289.50655460749255, "quest_estimate": 0.006767349146699873, "FB": 1, "displayFB": true, "punishment_amount": 0, "responseWindow": 1.5, "exp_stage": "adaptive_procedure", "stimResponseInterval": 1, "trial_time": 4.331154823303223}
{"stimulusDuration": 2, "reward_amount": 1, "FBonset": 0.5, "stim": {"ori_start": 30, "motion_direction": "out", "speed_end": 0.08983561844644415, "oriDirection": 1, "oriBase": 30, "motionDirection": "out", "speedDirection": -1, "speedStrength": "easy", "speed_start": 0.1, "oriStrength": "hard", "ori_end": 45}, "ITI": 1.6929966330701052, "rt": 0.25049495697021484, "decision_var": 0.010164381553555854, "FBDuration": 0.5, "trial_count": 43, "ts": "motion", "response": "up", "onset": 296.9010514105861, "quest_estimate": 0.01196048201284601, "FB": 0, "displayFB": true, "punishment_amount": 0, "responseWindow": 1.5, "exp_stage": "adaptive_procedure", "stimResponseInterval": 1, "trial_time": 4.295438051223755}
{"stimulusDuration": 2, "reward_amount": 1, "FBonset": 0.5, "stim": {"ori_start": 30, "motion_direction": "out", "speed_end": 0.09128627968596437, "oriDirection": 1, "oriBase": 30, "motionDirection": "out", "speedDirection": -1, "speedStrength": "hard", "speed_start": 0.1, "oriStrength": "easy", "ori_end": 55}, "ITI": 1.4730271891874098, "rt": 0.26496195793151855, "decision_var": 0.008713720314035632, "FBDuration": 0.5, "trial_count": 44, "ts": "motion", "response": "up", "onset": 304.0940480436562, "quest_estimate": 0.009386335244912461, "FB": 0, "displayFB": true, "punishment_amount": 0, "responseWindow": 1.5, "exp_stage": "adaptive_procedure", "stimResponseInterval": 1, "trial_time": 4.31310510635376}
{"stimulusDuration": 2, "reward_amount": 1, "FBonset": 0.5, "stim": {"ori_start": -60, "motion_direction": "in", "speed_end": 0.08594025276506082, "oriDirection": -1, "oriBase": -60, "motionDirection": "in", "speedDirection": -1, "speedStrength": "easy", "speed_start": 0.1, "oriStrength": "hard", "ori_end": -75}, "ITI": 1.4259079168883058, "rt": 0.313169002532959, "decision_var": 0.01405974723493919, "FBDuration": 0.5, "trial_count": 45, "ts": "motion", "response": "down", "onset": 311.0670752328436, "quest_estimate": 0.011310658436478688, "FB": 1, "displayFB": true, "punishment_amount": 0, "responseWindow": 1.5, "exp_stage": "adaptive_procedure", "stimResponseInterval": 1, "trial_time": 4.352665185928345}
{"stimulusDuration": 2, "reward_amount": 1, "FBonset": 0.5, "stim": {"ori_start": 30, "motion_direction": "in", "speed_end": 0.08664116000961192, "oriDirection": 1, "oriBase": 30, "motionDirection": "in", "speedDirection": -1, "speedStrength": "easy", "speed_start": 0.1, "oriStrength": "hard", "ori_end": 45}, "ITI": 1.9392322348603472, "rt": 0.29199695587158203, "decision_var": 0.013358839990388088, "FBDuration": 0.5, "trial_count": 46, "ts": "motion", "response": "down", "onset": 317.9929831497319, "quest_estimate": 0.010671616645563181, "FB": 1, "displayFB": true, "punishment_amount": 0, "responseWindow": 1.5, "exp_stage": "adaptive_procedure", "stimResponseInterval": 1, "trial_time": 4.336200952529907}
{"stimulusDuration": 2, "reward_amount": 1, "FBonset": 0.5, "stim": {"ori_start": -60, "motion_direction": "in", "speed_end": 0.112667689031241, "oriDirection": -1, "oriBase": -60, "motionDirection": "in", "speedDirection": 1, "speedStrength": "easy", "speed_start": 0.1, "oriStrength": "hard", "ori_end": -75}, "ITI": 1.4192638972773897, "rt": 0.2903909683227539, "decision_var": 0.012667689031240992, "FBDuration": 0.5, "trial_count": 47, "ts": "motion", "response": "up", "onset": 325.43221538459227, "quest_estimate": 0.010044847120958031, "FB": 1, "displayFB": true, "punishment_amount": 0, "responseWindow": 1.5, "exp_stage": "adaptive_procedure", "stimResponseInterval": 1, "trial_time": 4.325293064117432}
{"stimulusDuration": 2, "reward_amount": 1, "FBonset": 0.5, "stim": {"ori_start": -60, "motion_direction": "in", "speed_end": 0.08867942897625579, "oriDirection": -1, "oriBase": -60, "motionDirection": "in", "speedDirection": -1, "speedStrength": "hard", "speed_start": 0.1, "oriStrength": "hard", "ori_end": -75}, "ITI": 1.3522693866103574, "rt": 0.3005409240722656, "decision_var": 0.011320571023744213, "FBDuration": 0.5, "trial_count": 48, "ts": "motion", "response": "down", "onset": 332.3514792818697, "quest_estimate": 0.008297500487355378, "FB": 1, "displayFB": true, "punishment_amount": 0, "responseWindow": 1.5, "exp_stage": "adaptive_procedure", "stimResponseInterval": 1, "trial_time": 4.347485065460205}
{"stimulusDuration": 2, "reward_amount": 1, "FBonset": 0.5, "stim": {"ori_start": 30, "motion_direction": "in", "speed_end": 0.08977741762870518, "oriDirection": -1, "oriBase": 30, "motionDirection": "in", "speedDirection": -1, "speedStrength": "hard", "speed_start": 0.1, "oriStrength": "hard", "ori_end": 15}, "ITI": 1.5449155533588217, "rt": 0.25942397117614746, "decision_var": 0.010222582371294826, "FBDuration": 0.5, "trial_count": 49, "ts": "motion", "response": "down", "onset": 339.20374866848005, "quest_estimate": 0.007221764122578189, "FB": 1, "displayFB": true, "punishment_amount": 0, "responseWindow": 1.5, "exp_stage": "adaptive_procedure", "stimResponseInterval": 1, "trial_time": 4.301970958709717}
{"stimulusDuration": 2, "reward_amount": 1, "FBonset": 0.5, "stim": {"ori_start": 30, "motion_direction": "in", "speed_end": 0.10913793275353696, "oriDirection": -1, "oriBase": 30, "motionDirection": "in", "speedDirection": 1, "speedStrength": "hard", "speed_start": 0.1, "oriStrength": "hard", "ori_end": 15}, "ITI": 1.8578829065320213, "rt": 0.5528020858764648, "decision_var": 0.009137932753536953, "FBDuration": 0.5, "trial_count": 50, "ts": "motion", "response": "up", "onset": 346.24866422183885, "quest_estimate": 0.006158708294688044, "FB": 1, "displayFB": true, "punishment_amount": 0, "responseWindow": 1.5, "exp_stage": "adaptive_procedure", "stimResponseInterval": 1, "trial_time": 4.59758186340332}
{"stimulusDuration": 2, "reward_amount": 1, "FBonset": 0.5, "stim": {"ori_start": -60, "motion_direction": "out", "speed_end": 0.10806605258827653, "oriDirection": 1, "oriBase": -60, "motionDirection": "out", "speedDirection": 1, "speedStrength": "hard", "speed_start": 0.1, "oriStrength": "hard", "ori_end": -45}, "ITI": 1.7435811670050714, "rt": 0.29745912551879883, "decision_var": 0.008066052588276529, "FBDuration": 0.5, "trial_count": 51, "ts": "motion", "response": "up", "onset": 353.6065471283709, "quest_estimate": 0.005106386498725725, "FB": 1, "displayFB": true, "punishment_amount": 0, "responseWindow": 1.5, "exp_stage": "adaptive_procedure", "stimResponseInterval": 1, "trial_time": 4.3327250480651855}
{"stimulusDuration": 2, "reward_amount": 1, "FBonset": 0.5, "stim": {"ori_start": 30, "motion_direction": "out", "speed_end": 0.11198794718681153, "oriDirection": -1, "oriBase": 30, "motionDirection": "out", "speedDirection": 1, "speedStrength": "easy", "speed_start": 0.1, "oriStrength": "easy", "ori_end": 5}, "ITI": 1.270606664219244, "rt": 0.32575106620788574, "decision_var": 0.011987947186811523, "FBDuration": 0.5, "trial_count": 52, "ts": "motion", "response": "up", "onset": 360.85012829537595, "quest_estimate": 0.009428656371224739, "FB": 1, "displayFB": true, "punishment_amount": 0, "responseWindow": 1.5, "exp_stage": "adaptive_procedure", "stimResponseInterval": 1, "trial_time": 4.36683201789856}
{"stimulusDuration": 2, "reward_amount": 1, "FBonset": 0.5, "stim": {"ori_start": 30, "motion_direction": "in", "speed_end": 0.08868197323298552, "oriDirection": -1, "oriBase": 30, "motionDirection": "in", "speedDirection": -1, "speedStrength": "easy", "speed_start": 0.1, "oriStrength": "hard", "ori_end": 15}, "ITI": 1.8661492143208807, "rt": 0.30289602279663086, "decision_var": 0.011318026767014489, "FBDuration": 0.5, "trial_count": 53, "ts": "motion", "response": "down", "onset": 367.6207349595952, "quest_estimate": 0.00882297576480258, "FB": 1, "displayFB": true, "punishment_amount": 0, "responseWindow": 1.5, "exp_stage": "adaptive_procedure", "stimResponseInterval": 1, "trial_time": 4.352173805236816}
{"stimulusDuration": 2, "reward_amount": 1, "FBonset": 0.5, "stim": {"ori_start": 30, "motion_direction": "in", "speed_end": 0.110657721302687, "oriDirection": 1, "oriBase": 30, "motionDirection": "in", "speedDirection": 1, "speedStrength": "easy", "speed_start": 0.1, "oriStrength": "hard", "ori_end": 45}, "ITI": 1.67732297704731, "rt": 0.2950630187988281, "decision_var": 0.010657721302686995, "FBDuration": 0.5, "trial_count": 54, "ts": "motion", "response": "up", "onset": 374.9868841739161, "quest_estimate": 0.008229214136219937, "FB": 1, "displayFB": true, "punishment_amount": 0, "responseWindow": 1.5, "exp_stage": "adaptive_procedure", "stimResponseInterval": 1, "trial_time": 4.341706991195679}
{"stimulusDuration": 2, "reward_amount": 1, "FBonset": 0.5, "stim": {"ori_start": 30, "motion_direction": "in", "speed_end": 0.11000859843251262, "oriDirection": -1, "oriBase": 30, "motionDirection": "in", "speedDirection": 1, "speedStrength": "easy", "speed_start": 0.1, "oriStrength": "hard", "ori_end": 15}, "ITI": 1.9615951052341845, "rt": 0.29602503776550293, "decision_var": 0.010008598432512616, "FBDuration": 0.5, "trial_count": 55, "ts": "motion", "response": "up", "onset": 382.1642071509634, "quest_estimate": 0.007645770359948442, "FB": 1, "displayFB": true, "punishment_amount": 0, "responseWindow": 1.5, "exp_stage": "adaptive_procedure", "stimResponseInterval": 1, "trial_time": 4.329473972320557}
{"stimulusDuration": 2, "reward_amount": 1, "FBonset": 0.5, "stim": {"ori_start": 30, "motion_direction": "in", "speed_end": 0.10936925618359201, "oriDirection": 1, "oriBase": 30, "motionDirection": "in", "speedDirection": 1, "speedStrength": "easy", "speed_start": 0.1, "oriStrength": "hard", "ori_end": 45}, "ITI": 1.6461620114193767, "rt": 0.2326350212097168, "decision_var": 0.009369256183592009, "FBDuration": 0.5, "trial_count": 56, "ts": "motion", "response": "up", "onset": 389.62580225619763, "quest_estimate": 0.0070725782982283825, "FB": 1, "displayFB": true, "punishment_amount": 0, "responseWindow": 1.5, "exp_stage": "adaptive_procedure", "stimResponseInterval": 1, "trial_time": 4.268764972686768}
{"stimulusDuration": 2, "reward_amount": 1, "FBonset": 0.5, "stim": {"ori_start": -60, "motion_direction": "out", "speed_end": 0.10700500605444717, "oriDirection": 1, "oriBase": -60, "motionDirection": "out", "speedDirection": 1, "speedStrength": "hard", "speed_start": 0.1, "oriStrength": "easy", "ori_end": -35}, "ITI": 1.1959400325768113, "rt": 0.2641899585723877, "decision_var": 0.007005006054447163, "FBDuration": 0.5, "trial_count": 57, "ts": "motion", "response": "up", "onset": 396.771964267617, "quest_estimate": 0.004065993354224959, "FB": 1, "displayFB": true, "punishment_amount": 0, "responseWindow": 1.5, "exp_stage": "adaptive_procedure", "stimResponseInterval": 1, "trial_time": 4.301712989807129}
{"stimulusDuration": 2, "reward_amount": 1, "FBonset": 0.5, "stim": {"ori_start": 30, "motion_direction": "in", "speed_end": 0.10595611756543878, "oriDirection": 1, "oriBase": 30, "motionDirection": "in", "speedDirection": 1, "speedStrength": "hard", "speed_start": 0.1, "oriStrength": "hard", "ori_end": 45}, "ITI": 1.1962722457317294, "rt": 0.2605478763580322, "decision_var": 0.005956117565438776, "FBDuration": 0.5, "trial_count": 58, "ts": "motion", "response": "up", "onset": 403.4679043001938, "quest_estimate": 0.0030371644176383703, "FB": 1, "displayFB": true, "punishment_amount": 0, "responseWindow": 1.5, "exp_stage": "adaptive_procedure", "stimResponseInterval": 1, "trial_time": 4.30101203918457}
{"stimulusDuration": 2, "reward_amount": 1, "FBonset": 0.5, "stim": {"ori_start": -60, "motion_direction": "out", "speed_end": 0.10491890540244511, "oriDirection": -1, "oriBase": -60, "motionDirection": "out", "speedDirection": 1, "speedStrength": "hard", "speed_start": 0.1, "oriStrength": "hard", "ori_end": -75}, "ITI": 1.7122311508927721, "rt": 0.24921584129333496, "decision_var": 0.004918905402445113, "FBDuration": 0.5, "trial_count": 59, "ts": "motion", "response": "up", "onset": 410.16417654592556, "quest_estimate": 0.002019551780740994, "FB": 1, "displayFB": true, "punishment_amount": 0, "responseWindow": 1.5, "exp_stage": "adaptive_procedure", "stimResponseInterval": 1, "trial_time": 4.290608882904053}
{"stimulusDuration": 2, "reward_amount": 1, "FBonset": 0.5, "stim": {"ori_start": -60, "motion_direction": "in", "speed_end": 0.0912606882567022, "oriDirection": 1, "oriBase": -60, "motionDirection": "in", "speedDirection": -1, "speedStrength": "easy", "speed_start": 0.1, "oriStrength": "hard", "ori_end": -45}, "ITI": 1.575846325384064, "rt": 0.2841629981994629, "decision_var": 0.008739311743297812, "FBDuration": 0.5, "trial_count": 60, "ts": "motion", "response": "down", "onset": 417.3764076968183, "quest_estimate": 0.006510961789422884, "FB": 1, "displayFB": true, "punishment_amount": 0, "responseWindow": 1.5, "exp_stage": "adaptive_procedure", "stimResponseInterval": 1, "trial_time": 4.327217102050781}
{"stimulusDuration": 2, "reward_amount": 1, "FBonset": 0.5, "stim": {"ori_start": -60, "motion_direction": "in", "speed_end": 0.10812070898984488, "oriDirection": 1, "oriBase": -60, "motionDirection": "in", "speedDirection": 1, "speedStrength": "easy", "speed_start": 0.1, "oriStrength": "easy", "ori_end": -35}, "ITI": 1.106844147378345, "rt": 0.23177480697631836, "decision_var": 0.008120708989844877, "FBDuration": 0.5, "trial_count": 61, "ts": "motion", "response": "down", "onset": 424.4522540222024, "quest_estimate": 0.009673488182597209, "FB": 0, "displayFB": true, "punishment_amount": 0, "responseWindow": 1.5, "exp_stage": "adaptive_procedure", "stimResponseInterval": 1, "trial_time": 4.281000137329102}
{"stimulusDuration": 2, "reward_amount": 1, "FBonset": 0.5, "stim": {"ori_start": 30, "motion_direction": "out", "speed_end": 0.11160682475630218, "oriDirection": 1, "oriBase": 30, "motionDirection": "out", "speedDirection": 1, "speedStrength": "easy", "speed_start": 0.1, "oriStrength": "hard", "ori_end": 45}, "ITI": 1.1534407036241712, "rt": 0.28342485427856445, "decision_var": 0.011606824756302175, "FBDuration": 0.5, "trial_count": 62, "ts": "motion", "response": "up", "onset": 431.05909816958075, "quest_estimate": 0.009092067519137964, "FB": 1, "displayFB": true, "punishment_amount": 0, "responseWindow": 1.5, "exp_stage": "adaptive_procedure", "stimResponseInterval": 1, "trial_time": 4.323303937911987}
{"stimulusDuration": 2, "reward_amount": 1, "FBonset": 0.5, "stim": {"ori_start": 30, "motion_direction": "out", "speed_end": 0.10389301181090321, "oriDirection": 1, "oriBase": 30, "motionDirection": "out", "speedDirection": 1, "speedStrength": "hard", "speed_start": 0.1, "oriStrength": "easy", "ori_end": 55}, "ITI": 1.6607063576330114, "rt": 0.32192492485046387, "decision_var": 0.0038930118109032005, "FBDuration": 0.5, "trial_count": 63, "ts": "motion", "response": "down", "onset": 437.71253887320495, "quest_estimate": 0.004424877905058654, "FB": 0, "displayFB": true, "punishment_amount": 0, "responseWindow": 1.5, "exp_stage": "adaptive_procedure", "stimResponseInterval": 1, "trial_time": 4.3548619747161865}
{"stimulusDuration": 2, "reward_amount": 1, "FBonset": 0.5, "stim": {"ori_start": -60, "motion_direction": "out", "speed_end": 0.11097684895575237, "oriDirection": 1, "oriBase": -60, "motionDirection": "out", "speedDirection": 1, "speedStrength": "easy", "speed_start": 0.1, "oriStrength": "hard", "ori_end": -45}, "ITI": 1.7886913735712304, "rt": 0.3257710933685303, "decision_var": 0.010976848955752364, "FBDuration": 0.5, "trial_count": 64, "ts": "motion", "response": "up", "onset": 444.87324523083794, "quest_estimate": 0.008520998414871639, "FB": 1, "displayFB": true, "punishment_amount": 0, "responseWindow": 1.5, "exp_stage": "adaptive_procedure", "stimResponseInterval": 1, "trial_time": 4.372159004211426}
{"stimulusDuration": 2, "reward_amount": 1, "FBonset": 0.5, "stim": {"ori_start": -60, "motion_direction": "in", "speed_end": 0.09371278749123682, "oriDirection": 1, "oriBase": -60, "motionDirection": "in", "speedDirection": -1, "speedStrength": "hard", "speed_start": 0.1, "oriStrength": "easy", "ori_end": -35}, "ITI": 1.701797992820472, "rt": 0.2898750305175781, "decision_var": 0.006287212508763178, "FBDuration": 0.5, "trial_count": 65, "ts": "motion", "response": "down", "onset": 452.16193660440916, "quest_estimate": 0.0034245711497600737, "FB": 1, "displayFB": true, "punishment_amount": 0, "responseWindow": 1.5, "exp_stage": "adaptive_procedure", "stimResponseInterval": 1, "trial_time": 4.330729007720947}
{"stimulusDuration": 2, "reward_amount": 1, "FBonset": 0.5, "stim": {"ori_start": -60, "motion_direction": "in", "speed_end": 0.10527882017236295, "oriDirection": -1, "oriBase": -60, "motionDirection": "in", "speedDirection": 1, "speedStrength": "hard", "speed_start": 0.1, "oriStrength": "easy", "ori_end": -85}, "ITI": 1.0421306700385324, "rt": 0.21240711212158203, "decision_var": 0.005278820172362954, "FBDuration": 0.5, "trial_count": 66, "ts": "motion", "response": "up", "onset": 459.3637345972296, "quest_estimate": 0.0024347331294468505, "FB": 1, "displayFB": true, "punishment_amount": 0, "responseWindow": 1.5, "exp_stage": "adaptive_procedure", "stimResponseInterval": 1, "trial_time": 4.253237962722778}
{"stimulusDuration": 2, "reward_amount": 1, "FBonset": 0.5, "stim": {"ori_start": 30, "motion_direction": "out", "speed_end": 0.10428102471315157, "oriDirection": -1, "oriBase": 30, "motionDirection": "out", "speedDirection": 1, "speedStrength": "hard", "speed_start": 0.1, "oriStrength": "easy", "ori_end": 5}, "ITI": 1.9773150212440167, "rt": 0.4940769672393799, "decision_var": 0.004281024713151553, "FBDuration": 0.5, "trial_count": 67, "ts": "motion", "response": "up", "onset": 465.90586526726815, "quest_estimate": 0.0014550592196507228, "FB": 1, "displayFB": true, "punishment_amount": 0, "responseWindow": 1.5, "exp_stage": "adaptive_procedure", "stimResponseInterval": 1, "trial_time": 4.5310938358306885}
{"stimulusDuration": 2, "reward_amount": 1, "FBonset": 0.5, "stim": {"ori_start": 30, "motion_direction": "in", "speed_end": 0.11035662245713086, "oriDirection": -1, "oriBase": 30, "motionDirection": "in", "speedDirection": 1, "speedStrength": "easy", "speed_start": 0.1, "oriStrength": "hard", "ori_end": 15}, "ITI": 1.9754426795509996, "rt": 0.29527783393859863, "decision_var": 0.010356622457130857, "FBDuration": 0.5, "trial_count": 68, "ts": "motion", "response": "up", "onset": 473.38318028851216, "quest_estimate": 0.007958777914533019, "FB": 1, "displayFB": true, "punishment_amount": 0, "responseWindow": 1.5, "exp_stage": "adaptive_procedure", "stimResponseInterval": 1, "trial_time": 4.3319091796875}
{"stimulusDuration": 2, "reward_amount": 1, "FBonset": 0.5, "stim": {"ori_start": 30, "motion_direction": "in", "speed_end": 0.09025575993792807, "oriDirection": -1, "oriBase": 30, "motionDirection": "in", "speedDirection": -1, "speedStrength": "easy", "speed_start": 0.1, "oriStrength": "hard", "ori_end": 15}, "ITI": 1.8550857793568105, "rt": 0.2797281742095947, "decision_var": 0.009744240062071932, "FBDuration": 0.5, "trial_count": 69, "ts": "motion", "response": "up", "onset": 480.8586229680632, "quest_estimate": 0.011139920213282709, "FB": 0, "displayFB": true, "punishment_amount": 0, "responseWindow": 1.5, "exp_stage": "adaptive_procedure", "stimResponseInterval": 1, "trial_time": 4.316394090652466}
{"stimulusDuration": 2, "reward_amount": 1, "FBonset": 0.5, "stim": {"ori_start": -60, "motion_direction": "in", "speed_end": 0.08680531673954203, "oriDirection": 1, "oriBase": -60, "motionDirection": "in", "speedDirection": -1, "speedStrength": "easy", "speed_start": 0.1, "oriStrength": "easy", "ori_end": -35}, "ITI": 1.0590443049341687, "rt": 0.2957119941711426, "decision_var": 0.013194683260457973, "FBDuration": 0.5, "trial_count": 70, "ts": "motion", "response": "down", "onset": 488.21370874741996, "quest_estimate": 0.010564714311768517, "FB": 1, "displayFB": true, "punishment_amount": 0, "responseWindow": 1.5, "exp_stage": "adaptive_procedure", "stimResponseInterval": 1, "trial_time": 4.330365896224976}
{"stimulusDuration": 2, "reward_amount": 1, "FBonset": 0.5, "stim": {"ori_start": 30, "motion_direction": "in", "speed_end": 0.1032935127110052, "oriDirection": 1, "oriBase": 30, "motionDirection": "in", "speedDirection": 1, "speedStrength": "hard", "speed_start": 0.1, "oriStrength": "hard", "ori_end": 45}, "ITI": 1.5054694289301431, "rt": 0.42447996139526367, "decision_var": 0.0032935127110051976, "FBDuration": 0.5, "trial_count": 71, "ts": "motion", "response": "down", "onset": 494.7727530523541, "quest_estimate": 0.003766642183824623, "FB": 0, "displayFB": true, "punishment_amount": 0, "responseWindow": 1.5, "exp_stage": "adaptive_procedure", "stimResponseInterval": 1, "trial_time": 4.461376190185547}
{"stimulusDuration": 2, "reward_amount": 1, "FBonset": 0.5, "stim": {"ori_start": 30, "motion_direction": "in", "speed_end": 0.0944053613906257, "oriDirection": 1, "oriBase": 30, "motionDirection": "in", "speedDirection": -1, "speedStrength": "hard", "speed_start": 0.1, "oriStrength": "hard", "ori_end": 45}, "ITI": 1.5445949355635302, "rt": 0.30234313011169434, "decision_var": 0.0055946386093743, "FBDuration": 0.5, "trial_count": 72, "ts": "motion", "response": "up", "onset": 501.7782224812843, "quest_estimate": 0.0060609879171704545, "FB": 0, "displayFB": true, "punishment_amount": 0, "responseWindow": 1.5, "exp_stage": "adaptive_procedure", "stimResponseInterval": 1, "trial_time": 4.342154026031494}
{"stimulusDuration": 2, "reward_amount": 1, "FBonset": 0.5, "stim": {"ori_start": 30, "motion_direction": "out", "speed_end": 0.10787885102638914, "oriDirection": -1, "oriBase": 30, "motionDirection": "out", "speedDirection": 1, "speedStrength": "hard", "speed_start": 0.1, "oriStrength": "easy", "ori_end": 5}, "ITI": 1.4930900458394767, "rt": 0.2769758701324463, "decision_var": 0.00787885102638914, "FBDuration": 0.5, "trial_count": 73, "ts": "motion", "response": "down", "onset": 508.8228174168478, "quest_estimate": 0.008343407889176313, "FB": 0, "displayFB": true, "punishment_amount": 0, "responseWindow": 1.5, "exp_stage": "adaptive_procedure", "stimResponseInterval": 1, "trial_time": 4.323178052902222}
{"stimulusDuration": 2, "reward_amount": 1, "FBonset": 0.5, "stim": {"ori_start": -60, "motion_direction": "in", "speed_end": 0.11257866388318954, "oriDirection": 1, "oriBase": -60, "motionDirection": "in", "speedDirection": 1, "speedStrength": "easy", "speed_start": 0.1, "oriStrength": "hard", "ori_end": -45}, "ITI": 1.1117234204934254, "rt": 0.287351131439209, "decision_var": 0.01257866388318954, "FBDuration": 0.5, "trial_count": 74, "ts": "motion", "response": "up", "onset": 515.8159074626873, "quest_estimate": 0.009997128972605754, "FB": 1, "displayFB": true, "punishment_amount": 0, "responseWindow": 1.5, "exp_stage": "adaptive_procedure", "stimResponseInterval": 1, "trial_time": 4.327284812927246}
{"stimulusDuration": 2, "reward_amount": 1, "FBonset": 0.5, "stim": {"ori_start": -60, "motion_direction": "in", "speed_end": 0.11015154599116536, "oriDirection": -1, "oriBase": -60, "motionDirection": "in", "speedDirection": 1, "speedStrength": "hard", "speed_start": 0.1, "oriStrength": "hard", "ori_end": -75}, "ITI": 1.567641775121173, "rt": 0.39251112937927246, "decision_var": 0.01015154599116536, "FBDuration": 0.5, "trial_count": 75, "ts": "motion", "response": "up", "onset": 522.4276308831807, "quest_estimate": 0.007393809906646946, "FB": 1, "displayFB": true, "punishment_amount": 0, "responseWindow": 1.5, "exp_stage": "adaptive_procedure", "stimResponseInterval": 1, "trial_time": 4.434686183929443}
{"stimulusDuration": 2, "reward_amount": 1, "FBonset": 0.5, "stim": {"ori_start": 30, "motion_direction": "in", "speed_end": 0.10919432183758347, "oriDirection": -1, "oriBase": 30, "motionDirection": "in", "speedDirection": 1, "speedStrength": "hard", "speed_start": 0.1, "oriStrength": "hard", "ori_end": 15}, "ITI": 1.7431547893386785, "rt": 0.3242228031158447, "decision_var": 0.00919432183758347, "FBDuration": 0.5, "trial_count": 76, "ts": "motion", "response": "down", "onset": 529.4952726583018, "quest_estimate": 0.00963706521992612, "FB": 0, "displayFB": true, "punishment_amount": 0, "responseWindow": 1.5, "exp_stage": "adaptive_procedure", "stimResponseInterval": 1, "trial_time": 4.363878011703491}
{"stimulusDuration": 2, "reward_amount": 1, "FBonset": 0.5, "stim": {"ori_start": -60, "motion_direction": "in", "speed_end": 0.08857166190470575, "oriDirection": 1, "oriBase": -60, "motionDirection": "in", "speedDirection": -1, "speedStrength": "hard", "speed_start": 0.1, "oriStrength": "hard", "ori_end": -45}, "ITI": 1.1080710541037835, "rt": 0.2990539073944092, "decision_var": 0.011428338095294248, "FBDuration": 0.5, "trial_count": 77, "ts": "motion", "response": "down", "onset": 536.7384274476404, "quest_estimate": 0.008702749652753687, "FB": 1, "displayFB": true, "punishment_amount": 0, "responseWindow": 1.5, "exp_stage": "adaptive_procedure", "stimResponseInterval": 1, "trial_time": 4.422027111053467}
{"stimulusDuration": 2, "reward_amount": 1, "FBonset": 0.5, "stim": {"ori_start": -60, "motion_direction": "out", "speed_end": 0.08951350125924393, "oriDirection": 1, "oriBase": -60, "motionDirection": "out", "speedDirection": -1, "speedStrength": "hard", "speed_start": 0.1, "oriStrength": "easy", "ori_end": -35}, "ITI": 1.3479104495189582, "rt": 0.29506897926330566, "decision_var": 0.010486498740756082, "FBDuration": 0.5, "trial_count": 78, "ts": "motion", "response": "down", "onset": 543.3464985017442, "quest_estimate": 0.0077774330297188665, "FB": 1, "displayFB": true, "punishment_amount": 0, "responseWindow": 1.5, "exp_stage": "adaptive_procedure", "stimResponseInterval": 1, "trial_time": 4.345846891403198}
{"stimulusDuration": 2, "reward_amount": 1, "FBonset": 0.5, "stim": {"ori_start": -60, "motion_direction": "in", "speed_end": 0.11196923784486683, "oriDirection": -1, "oriBase": -60, "motionDirection": "in", "speedDirection": 1, "speedStrength": "easy", "speed_start": 0.1, "oriStrength": "easy", "ori_end": -85}, "ITI": 1.7332736253005012, "rt": 0.36918115615844727, "decision_var": 0.011969237844866823, "FBDuration": 0.5, "trial_count": 79, "ts": "motion", "response": "up", "onset": 550.1944089512632, "quest_estimate": 0.009438564419501985, "FB": 1, "displayFB": true, "punishment_amount": 0, "responseWindow": 1.5, "exp_stage": "adaptive_procedure", "stimResponseInterval": 1, "trial_time": 4.404333829879761}
{"stimulusDuration": 2, "reward_amount": 1, "FBonset": 0.5, "stim": {"ori_start": 30, "motion_direction": "out", "speed_end": 0.10955386959805662, "oriDirection": 1, "oriBase": 30, "motionDirection": "out", "speedDirection": 1, "speedStrength": "hard", "speed_start": 0.1, "oriStrength": "hard", "ori_end": 45}, "ITI": 1.4013339055901486, "rt": 0.2785220146179199, "decision_var": 0.009553869598056614, "FBDuration": 0.5, "trial_count": 80, "ts": "motion", "response": "up", "onset": 557.4276825765637, "quest_estimate": 0.006860861952847179, "FB": 1, "displayFB": true, "punishment_amount": 0, "responseWindow": 1.5, "exp_stage": "adaptive_procedure", "stimResponseInterval": 1, "trial_time": 4.325839996337891}
{"stimulusDuration": 2, "reward_amount": 1, "FBonset": 0.5, "stim": {"ori_start": 30, "motion_direction": "out", "speed_end": 0.09136991290738407, "oriDirection": 1, "oriBase": 30, "motionDirection": "out", "speedDirection": -1, "speedStrength": "hard", "speed_start": 0.1, "oriStrength": "hard", "ori_end": 45}, "ITI": 1.4811534801463118, "rt": 0.332611083984375, "decision_var": 0.008630087092615937, "FBDuration": 0.5, "trial_count": 81, "ts": "motion", "response": "up", "onset": 564.3290164821539, "quest_estimate": 0.009025313953982754, "FB": 0, "displayFB": true, "punishment_amount": 0, "responseWindow": 1.5, "exp_stage": "adaptive_procedure", "stimResponseInterval": 1, "trial_time": 4.368755102157593}
{"stimulusDuration": 2, "reward_amount": 1, "FBonset": 0.5, "stim": {"ori_start": 30, "motion_direction": "in", "speed_end": 0.08863188682536463, "oriDirection": -1, "oriBase": 30, "motionDirection": "in", "speedDirection": -1, "speedStrength": "easy", "speed_start": 0.1, "oriStrength": "easy", "ori_end": 5}, "ITI": 1.8190579771559312, "rt": 0.30541300773620605, "decision_var": 0.011368113174635375, "FBDuration": 0.5, "trial_count": 82, "ts": "motion", "response": "down", "onset": 571.3101699623002, "quest_estimate": 0.008887574863165798, "FB": 1, "displayFB": true, "punishment_amount": 0, "responseWindow": 1.5, "exp_stage": "adaptive_procedure", "stimResponseInterval": 1, "trial_time": 4.354619026184082}
{"stimulusDuration": 2, "reward_amount": 1, "FBonset": 0.5, "stim": {"ori_start": -60, "motion_direction": "in", "speed_end": 0.11077351402507919, "oriDirection": -1, "oriBase": -60, "motionDirection": "in", "speedDirection": 1, "speedStrength": "easy", "speed_start": 0.1, "oriStrength": "easy", "ori_end": -85}, "ITI": 1.1514801170824944, "rt": 0.32923102378845215, "decision_var": 0.010773514025079187, "FBDuration": 0.5, "trial_count": 83, "ts": "motion", "response": "down", "onset": 578.6292279394561, "quest_estimate": 0.012015643865799758, "FB": 0, "displayFB": true, "punishment_amount": 0, "responseWindow": 1.5, "exp_stage": "adaptive_procedure", "stimResponseInterval": 1, "trial_time": 4.372650146484375}
{"stimulusDuration": 2, "reward_amount": 1, "FBonset": 0.5, "stim": {"ori_start": 30, "motion_direction": "out", "speed_end": 0.08587507430659569, "oriDirection": -1, "oriBase": 30, "motionDirection": "out", "speedDirection": -1, "speedStrength": "easy", "speed_start": 0.1, "oriStrength": "easy", "ori_end": 5}, "ITI": 1.6299961957977762, "rt": 0.3445448875427246, "decision_var": 0.014124925693404317, "FBDuration": 0.5, "trial_count": 84, "ts": "motion", "response": "down", "onset": 585.2807080565386, "quest_estimate": 0.011454644177137582, "FB": 1, "displayFB": true, "punishment_amount": 0, "responseWindow": 1.5, "exp_stage": "adaptive_procedure", "stimResponseInterval": 1, "trial_time": 4.37882399559021}
{"stimulusDuration": 2, "reward_amount": 1, "FBonset": 0.5, "stim": {"ori_start": 30, "motion_direction": "out", "speed_end": 0.11352912032408052, "oriDirection": 1, "oriBase": 30, "motionDirection": "out", "speedDirection": 1, "speedStrength": "easy", "speed_start": 0.1, "oriStrength": "easy", "ori_end": 55}, "ITI": 1.2677668273651712, "rt": 0.326444149017334, "decision_var": 0.013529120324080518, "FBDuration": 0.5, "trial_count": 85, "ts": "motion", "response": "up", "onset": 592.4107042523364, "quest_estimate": 0.010901515744281609, "FB": 1, "displayFB": true, "punishment_amount": 0, "responseWindow": 1.5, "exp_stage": "adaptive_procedure", "stimResponseInterval": 1, "trial_time": 4.3644139766693115}
{"stimulusDuration": 2, "reward_amount": 1, "FBonset": 0.5, "stim": {"ori_start": 30, "motion_direction": "out", "speed_end": 0.08705957119654996, "oriDirection": 1, "oriBase": 30, "motionDirection": "out", "speedDirection": -1, "speedStrength": "easy", "speed_start": 0.1, "oriStrength": "hard", "ori_end": 45}, "ITI": 1.8531493024897192, "rt": 0.2858719825744629, "decision_var": 0.012940428803450046, "FBDuration": 0.5, "trial_count": 86, "ts": "motion", "response": "up", "onset": 599.1784710797016, "quest_estimate": 0.01406040272347582, "FB": 0, "displayFB": true, "punishment_amount": 0, "responseWindow": 1.5, "exp_stage": "adaptive_procedure", "stimResponseInterval": 1, "trial_time": 4.324668884277344}
{"stimulusDuration": 2, "reward_amount": 1, "FBonset": 0.5, "stim": {"ori_start": 30, "motion_direction": "out", "speed_end": 0.11078572414977136, "oriDirection": -1, "oriBase": 30, "motionDirection": "out", "speedDirection": 1, "speedStrength": "hard", "speed_start": 0.1, "oriStrength": "hard", "ori_end": 15}, "ITI": 1.5713070721791653, "rt": 0.2956559658050537, "decision_var": 0.010785724149771352, "FBDuration": 0.5, "trial_count": 87, "ts": "motion", "response": "down", "onset": 606.5316203821912, "quest_estimate": 0.011173952442919223, "FB": 0, "displayFB": true, "punishment_amount": 0, "responseWindow": 1.5, "exp_stage": "adaptive_procedure", "stimResponseInterval": 1, "trial_time": 4.336136102676392}
{"stimulusDuration": 2, "reward_amount": 1, "FBonset": 0.5, "stim": {"ori_start": -60, "motion_direction": "out", "speed_end": 0.11626584328127301, "oriDirection": -1, "oriBase": -60, "motionDirection": "out", "speedDirection": 1, "speedStrength": "easy", "speed_start": 0.1, "oriStrength": "hard", "ori_end": -75}, "ITI": 1.6371866343633266, "rt": 0.4332101345062256, "decision_var": 0.016265843281273007, "FBDuration": 0.5, "trial_count": 88, "ts": "motion", "response": "up", "onset": 613.6029274543704, "quest_estimate": 0.01350241760188342, "FB": 1, "displayFB": true, "punishment_amount": 0, "responseWindow": 1.5, "exp_stage": "adaptive_procedure", "stimResponseInterval": 1, "trial_time": 4.480896949768066}
{"stimulusDuration": 2, "reward_amount": 1, "FBonset": 0.5, "stim": {"ori_start": 30, "motion_direction": "out", "speed_end": 0.11568047058974042, "oriDirection": -1, "oriBase": 30, "motionDirection": "out", "speedDirection": 1, "speedStrength": "easy", "speed_start": 0.1, "oriStrength": "hard", "ori_end": 15}, "ITI": 1.60316624620732, "rt": 0.29699206352233887, "decision_var": 0.01568047058974041, "FBDuration": 0.5, "trial_count": 89, "ts": "motion", "response": "down", "onset": 620.7401140887337, "quest_estimate": 0.01670259149657294, "FB": 0, "displayFB": true, "punishment_amount": 0, "responseWindow": 1.5, "exp_stage": "adaptive_procedure", "stimResponseInterval": 1, "trial_time": 4.338737964630127}
{"stimulusDuration": 2, "reward_amount": 1, "FBonset": 0.5, "stim": {"ori_start": -60, "motion_direction": "in", "speed_end": 0.11292602903769941, "oriDirection": 1, "oriBase": -60, "motionDirection": "in", "speedDirection": 1, "speedStrength": "hard", "speed_start": 0.1, "oriStrength": "hard", "ori_end": -45}, "ITI": 1.4921151215348187, "rt": 0.32335901260375977, "decision_var": 0.012926029037699408, "FBDuration": 0.5, "trial_count": 90, "ts": "motion", "response": "up", "onset": 627.843280334941, "quest_estimate": 0.010277661326770562, "FB": 1, "displayFB": true, "punishment_amount": 0, "responseWindow": 1.5, "exp_stage": "adaptive_procedure", "stimResponseInterval": 1, "trial_time": 4.358783960342407}
{"stimulusDuration": 2, "reward_amount": 1, "FBonset": 0.5, "stim": {"ori_start": -60, "motion_direction": "in", "speed_end": 0.11202258195180385, "oriDirection": 1, "oriBase": -60, "motionDirection": "in", "speedDirection": 1, "speedStrength": "hard", "speed_start": 0.1, "oriStrength": "easy", "ori_end": -35}, "ITI": 1.0830445815117309, "rt": 0.4890470504760742, "decision_var": 0.012022581951803852, "FBDuration": 0.5, "trial_count": 91, "ts": "motion", "response": "up", "onset": 634.8353954564758, "quest_estimate": 0.009389510422975474, "FB": 1, "displayFB": true, "punishment_amount": 0, "responseWindow": 1.5, "exp_stage": "adaptive_procedure", "stimResponseInterval": 1, "trial_time": 4.53190803527832}
{"stimulusDuration": 2, "reward_amount": 1, "FBonset": 0.5, "stim": {"ori_start": 30, "motion_direction": "in", "speed_end": 0.08101000113659065, "oriDirection": 1, "oriBase": 30, "motionDirection": "in", "speedDirection": -1, "speedStrength": "easy", "speed_start": 0.1, "oriStrength": "hard", "ori_end": 45}, "ITI": 1.584542330970777, "rt": 0.2991650104522705, "decision_var": 0.01898999886340936, "FBDuration": 0.5, "trial_count": 92, "ts": "motion", "response": "down", "onset": 641.4184400379876, "quest_estimate": 0.016144871781978237, "FB": 1, "displayFB": true, "punishment_amount": 0, "responseWindow": 1.5, "exp_stage": "adaptive_procedure", "stimResponseInterval": 1, "trial_time": 4.342536926269531}
{"stimulusDuration": 2, "reward_amount": 1, "FBonset": 0.5, "stim": {"ori_start": -60, "motion_direction": "in", "speed_end": 0.11112748306500002, "oriDirection": 1, "oriBase": -60, "motionDirection": "in", "speedDirection": 1, "speedStrength": "hard", "speed_start": 0.1, "oriStrength": "hard", "ori_end": -45}, "ITI": 1.7194553362569969, "rt": 0.39886903762817383, "decision_var": 0.01112748306500001, "FBDuration": 0.5, "trial_count": 93, "ts": "motion", "response": "up", "onset": 648.5029823689583, "quest_estimate": 0.008510570857821503, "FB": 1, "displayFB": true, "punishment_amount": 0, "responseWindow": 1.5, "exp_stage": "adaptive_procedure", "stimResponseInterval": 1, "trial_time": 4.434170961380005}
{"stimulusDuration": 2, "reward_amount": 1, "FBonset": 0.5, "stim": {"ori_start": 30, "motion_direction": "out", "speed_end": 0.08158822137789606, "oriDirection": 1, "oriBase": 30, "motionDirection": "out", "speedDirection": -1, "speedStrength": "easy", "speed_start": 0.1, "oriStrength": "easy", "ori_end": 55}, "ITI": 1.6021908391495088, "rt": 0.37795305252075195, "decision_var": 0.01841177862210395, "FBDuration": 0.5, "trial_count": 94, "ts": "motion", "response": "down", "onset": 655.7224377052153, "quest_estimate": 0.015593076661076913, "FB": 1, "displayFB": true, "punishment_amount": 0, "responseWindow": 1.5, "exp_stage": "adaptive_procedure", "stimResponseInterval": 1, "trial_time": 4.424925804138184}
{"stimulusDuration": 2, "reward_amount": 1, "FBonset": 0.5, "stim": {"ori_start": 30, "motion_direction": "out", "speed_end": 0.11024157481703296, "oriDirection": 1, "oriBase": 30, "motionDirection": "out", "speedDirection": 1, "speedStrength": "hard", "speed_start": 0.1, "oriStrength": "hard", "ori_end": 45}, "ITI": 1.915872078320872, "rt": 0.5161528587341309, "decision_var": 0.010241574817032955, "FBDuration": 0.5, "trial_count": 95, "ts": "motion", "response": "up", "onset": 662.8246285443648, "quest_estimate": 0.007639315641890028, "FB": 1, "displayFB": true, "punishment_amount": 0, "responseWindow": 1.5, "exp_stage": "adaptive_procedure", "stimResponseInterval": 1, "trial_time": 4.560978174209595}
{"stimulusDuration": 2, "reward_amount": 1, "FBonset": 0.5, "stim": {"ori_start": 30, "motion_direction": "out", "speed_end": 0.1178387929584506, "oriDirection": -1, "oriBase": 30, "motionDirection": "out", "speedDirection": 1, "speedStrength": "easy", "speed_start": 0.1, "oriStrength": "hard", "ori_end": 15}, "ITI": 1.7454599599866087, "rt": 0.3369288444519043, "decision_var": 0.017838792958450596, "FBDuration": 0.5, "trial_count": 96, "ts": "motion", "response": "up", "onset": 670.2405006226857, "quest_estimate": 0.015045776557738491, "FB": 1, "displayFB": true, "punishment_amount": 0, "responseWindow": 1.5, "exp_stage": "adaptive_procedure", "stimResponseInterval": 1, "trial_time": 4.378031969070435}
{"stimulusDuration": 2, "reward_amount": 1, "FBonset": 0.5, "stim": {"ori_start": -60, "motion_direction": "out", "speed_end": 0.08273045253662499, "oriDirection": -1, "oriBase": -60, "motionDirection": "out", "speedDirection": -1, "speedStrength": "easy", "speed_start": 0.1, "oriStrength": "easy", "ori_end": -85}, "ITI": 1.4230213798924924, "rt": 0.3163931369781494, "decision_var": 0.017269547463375015, "FBDuration": 0.5, "trial_count": 97, "ts": "motion", "response": "down", "onset": 677.4859605826723, "quest_estimate": 0.014504360581692702, "FB": 1, "displayFB": true, "punishment_amount": 0, "responseWindow": 1.5, "exp_stage": "adaptive_procedure", "stimResponseInterval": 1, "trial_time": 4.357999801635742}
{"stimulusDuration": 2, "reward_amount": 1, "FBonset": 0.5, "stim": {"ori_start": 30, "motion_direction": "out", "speed_end": 0.0832943823993656, "oriDirection": -1, "oriBase": 30, "motionDirection": "out", "speedDirection": -1, "speedStrength": "easy", "speed_start": 0.1, "oriStrength": "hard", "ori_end": 15}, "ITI": 1.5791894292321138, "rt": 0.36521315574645996, "decision_var": 0.01670561760063441, "FBDuration": 0.5, "trial_count": 98, "ts": "motion", "response": "down", "onset": 684.4089819625648, "quest_estimate": 0.013968799309162061, "FB": 1, "displayFB": true, "punishment_amount": 0, "responseWindow": 1.5, "exp_stage": "adaptive_procedure", "stimResponseInterval": 1, "trial_time": 4.399335861206055}
{"stimulusDuration": 2, "reward_amount": 1, "FBonset": 0.5, "stim": {"ori_start": -60, "motion_direction": "out", "speed_end": 0.11614688015730555, "oriDirection": 1, "oriBase": -60, "motionDirection": "out", "speedDirection": 1, "speedStrength": "easy", "speed_start": 0.1, "oriStrength": "easy", "ori_end": -35}, "ITI": 1.612315542793854, "rt": 0.2733948230743408, "decision_var": 0.016146880157305546, "FBDuration": 0.5, "trial_count": 99, "ts": "motion", "response": "up", "onset": 691.4881713917969, "quest_estimate": 0.013439066852856563, "FB": 1, "displayFB": true, "punishment_amount": 0, "responseWindow": 1.5, "exp_stage": "adaptive_procedure", "stimResponseInterval": 1, "trial_time": 4.308759927749634}
{"stimulusDuration": 2, "reward_amount": 1, "FBonset": 0.5, "stim": {"ori_start": -60, "motion_direction": "in", "speed_end": 0.08440675833680822, "oriDirection": 1, "oriBase": -60, "motionDirection": "in", "speedDirection": -1, "speedStrength": "easy", "speed_start": 0.1, "oriStrength": "easy", "ori_end": -35}, "ITI": 1.496385300164059, "rt": 0.409146785736084, "decision_var": 0.015593241663191787, "FBDuration": 0.5, "trial_count": 100, "ts": "motion", "response": "down", "onset": 698.6004869345908, "quest_estimate": 0.012913807570241326, "FB": 1, "displayFB": true, "punishment_amount": 0, "responseWindow": 1.5, "exp_stage": "adaptive_procedure", "stimResponseInterval": 1, "trial_time": 4.44688606262207}
{"stimulusDuration": 2, "reward_amount": 1, "FBonset": 0.5, "stim": {"ori_start": -60, "motion_direction": "out", "speed_end": 0.10936360484902467, "oriDirection": -1, "oriBase": -60, "motionDirection": "out", "speedDirection": 1, "speedStrength": "hard", "speed_start": 0.1, "oriStrength": "easy", "ori_end": -85}, "ITI": 1.1824281378195323, "rt": 0.49548792839050293, "decision_var": 0.009363604849024668, "FBDuration": 0.5, "trial_count": 101, "ts": "motion", "response": "down", "onset": 705.5968722347549, "quest_estimate": 0.009693769348915547, "FB": 0, "displayFB": true, "punishment_amount": 0, "responseWindow": 1.5, "exp_stage": "adaptive_procedure", "stimResponseInterval": 1, "trial_time": 4.534435033798218}
{"stimulusDuration": 2, "reward_amount": 1, "FBonset": 0.5, "stim": {"ori_start": 30, "motion_direction": "in", "speed_end": 0.11141011405229514, "oriDirection": 1, "oriBase": 30, "motionDirection": "in", "speedDirection": 1, "speedStrength": "hard", "speed_start": 0.1, "oriStrength": "easy", "ori_end": 55}, "ITI": 1.3331723137474802, "rt": 0.6434760093688965, "decision_var": 0.01141011405229514, "FBDuration": 0.5, "trial_count": 102, "ts": "motion", "response": "down", "onset": 712.2793003725744, "quest_estimate": 0.011739671308881646, "FB": 0, "displayFB": true, "punishment_amount": 0, "responseWindow": 1.5, "exp_stage": "adaptive_procedure", "stimResponseInterval": 1, "trial_time": 4.6811909675598145}
{"stimulusDuration": 2, "reward_amount": 1, "FBonset": 0.5, "stim": {"ori_start": -60, "motion_direction": "out", "speed_end": 0.08655159298000373, "oriDirection": -1, "oriBase": -60, "motionDirection": "out", "speedDirection": -1, "speedStrength": "hard", "speed_start": 0.1, "oriStrength": "hard", "ori_end": -75}, "ITI": 1.6476696557039792, "rt": 0.25931501388549805, "decision_var": 0.013448407019996281, "FBDuration": 0.5, "trial_count": 103, "ts": "motion", "response": "down", "onset": 719.1124726863219, "quest_estimate": 0.010886229980699335, "FB": 1, "displayFB": true, "punishment_amount": 0, "responseWindow": 1.5, "exp_stage": "adaptive_procedure", "stimResponseInterval": 1, "trial_time": 4.2949628829956055}
{"stimulusDuration": 2, "reward_amount": 1, "FBonset": 0.5, "stim": {"ori_start": -60, "motion_direction": "out", "speed_end": 0.11504327700444364, "oriDirection": -1, "oriBase": -60, "motionDirection": "out", "speedDirection": 1, "speedStrength": "easy", "speed_start": 0.1, "oriStrength": "easy", "ori_end": -85}, "ITI": 1.1824314116409531, "rt": 0.3717310428619385, "decision_var": 0.015043277004443634, "FBDuration": 0.5, "trial_count": 104, "ts": "motion", "response": "up", "onset": 726.2601423420259, "quest_estimate": 0.012394365326957313, "FB": 1, "displayFB": true, "punishment_amount": 0, "responseWindow": 1.5, "exp_stage": "adaptive_procedure", "stimResponseInterval": 1, "trial_time": 4.407835006713867}
{"stimulusDuration": 2, "reward_amount": 1, "FBonset": 0.5, "stim": {"ori_start": -60, "motion_direction": "out", "speed_end": 0.1144983903088878, "oriDirection": 1, "oriBase": -60, "motionDirection": "out", "speedDirection": 1, "speedStrength": "easy", "speed_start": 0.1, "oriStrength": "hard", "ori_end": -45}, "ITI": 1.6187524958249817, "rt": 0.26565980911254883, "decision_var": 0.01449839030888779, "FBDuration": 0.5, "trial_count": 105, "ts": "motion", "response": "up", "onset": 732.9425737536669, "quest_estimate": 0.011880723530566031, "FB": 1, "displayFB": true, "punishment_amount": 0, "responseWindow": 1.5, "exp_stage": "adaptive_procedure", "stimResponseInterval": 1, "trial_time": 4.316859006881714}
{"stimulusDuration": 2, "reward_amount": 1, "FBonset": 0.5, "stim": {"ori_start": 30, "motion_direction": "in", "speed_end": 0.08741169512367716, "oriDirection": -1, "oriBase": 30, "motionDirection": "in", "speedDirection": -1, "speedStrength": "hard", "speed_start": 0.1, "oriStrength": "easy", "ori_end": 5}, "ITI": 1.6719599559111389, "rt": 0.2745938301086426, "decision_var": 0.012588304876322835, "FBDuration": 0.5, "trial_count": 106, "ts": "motion", "response": "down", "onset": 740.0613262494919, "quest_estimate": 0.010039968998887414, "FB": 1, "displayFB": true, "punishment_amount": 0, "responseWindow": 1.5, "exp_stage": "adaptive_procedure", "stimResponseInterval": 1, "trial_time": 4.320587873458862}
{"stimulusDuration": 2, "reward_amount": 1, "FBonset": 0.5, "stim": {"ori_start": -60, "motion_direction": "out", "speed_end": 0.08826460431631375, "oriDirection": -1, "oriBase": -60, "motionDirection": "out", "speedDirection": -1, "speedStrength": "hard", "speed_start": 0.1, "oriStrength": "easy", "ori_end": -85}, "ITI": 1.896872868434559, "rt": 0.3059267997741699, "decision_var": 0.01173539568368626, "FBDuration": 0.5, "trial_count": 107, "ts": "motion", "response": "down", "onset": 747.233286205403, "quest_estimate": 0.009201932279542017, "FB": 1, "displayFB": true, "punishment_amount": 0, "responseWindow": 1.5, "exp_stage": "adaptive_procedure", "stimResponseInterval": 1, "trial_time": 4.344603061676025}
{"stimulusDuration": 2, "reward_amount": 1, "FBonset": 0.5, "stim": {"ori_start": 30, "motion_direction": "in", "speed_end": 0.08910906090008536, "oriDirection": 1, "oriBase": 30, "motionDirection": "in", "speedDirection": -1, "speedStrength": "hard", "speed_start": 0.1, "oriStrength": "easy", "ori_end": 55}, "ITI": 1.7215826688731881, "rt": 0.29531383514404297, "decision_var": 0.010890939099914648, "FBDuration": 0.5, "trial_count": 108, "ts": "motion", "response": "down", "onset": 754.6301590738376, "quest_estimate": 0.008371909396680463, "FB": 1, "displayFB": true, "punishment_amount": 0, "responseWindow": 1.5, "exp_stage": "adaptive_procedure", "stimResponseInterval": 1, "trial_time": 4.33475399017334}
{"stimulusDuration": 2, "reward_amount": 1, "FBonset": 0.5, "stim": {"ori_start": -60, "motion_direction": "in", "speed_end": 0.08994549858824097, "oriDirection": 1, "oriBase": -60, "motionDirection": "in", "speedDirection": -1, "speedStrength": "hard", "speed_start": 0.1, "oriStrength": "hard", "ori_end": -45}, "ITI": 1.926673297705868, "rt": 0.28443098068237305, "decision_var": 0.010054501411759034, "FBDuration": 0.5, "trial_count": 109, "ts": "motion", "response": "down", "onset": 761.8517417427108, "quest_estimate": 0.007548487224446988, "FB": 1, "displayFB": true, "punishment_amount": 0, "responseWindow": 1.5, "exp_stage": "adaptive_procedure", "stimResponseInterval": 1, "trial_time": 4.332479953765869}
{"stimulusDuration": 2, "reward_amount": 1, "FBonset": 0.5, "stim": {"ori_start": -60, "motion_direction": "in", "speed_end": 0.08604131349990887, "oriDirection": -1, "oriBase": -60, "motionDirection": "in", "speedDirection": -1, "speedStrength": "easy", "speed_start": 0.1, "oriStrength": "hard", "ori_end": -75}, "ITI": 1.2105279916903595, "rt": 0.3031740188598633, "decision_var": 0.013958686500091133, "FBDuration": 0.5, "trial_count": 110, "ts": "motion", "response": "down", "onset": 769.2784150404167, "quest_estimate": 0.011372868165482497, "FB": 1, "displayFB": true, "punishment_amount": 0, "responseWindow": 1.5, "exp_stage": "adaptive_procedure", "stimResponseInterval": 1, "trial_time": 4.339620113372803}
{"stimulusDuration": 2, "reward_amount": 1, "FBonset": 0.5, "stim": {"ori_start": -60, "motion_direction": "out", "speed_end": 0.10922475121160105, "oriDirection": 1, "oriBase": -60, "motionDirection": "out", "speedDirection": 1, "speedStrength": "hard", "speed_start": 0.1, "oriStrength": "hard", "ori_end": -45}, "ITI": 1.8903854742463342, "rt": 0.35546302795410156, "decision_var": 0.009224751211601039, "FBDuration": 0.5, "trial_count": 111, "ts": "motion", "response": "up", "onset": 775.988943032107, "quest_estimate": 0.006732697115673328, "FB": 1, "displayFB": true, "punishment_amount": 0, "responseWindow": 1.5, "exp_stage": "adaptive_procedure", "stimResponseInterval": 1, "trial_time": 4.395657062530518}
{"stimulusDuration": 2, "reward_amount": 1, "FBonset": 0.5, "stim": {"ori_start": -60, "motion_direction": "out", "speed_end": 0.08657598925978227, "oriDirection": 1, "oriBase": -60, "motionDirection": "out", "speedDirection": -1, "speedStrength": "easy", "speed_start": 0.1, "oriStrength": "easy", "ori_end": -35}, "ITI": 1.5527692238289217, "rt": 0.3667011260986328, "decision_var": 0.013424010740217734, "FBDuration": 0.5, "trial_count": 112, "ts": "motion", "response": "down", "onset": 783.3793285063534, "quest_estimate": 0.010870787550153097, "FB": 1, "displayFB": true, "punishment_amount": 0, "responseWindow": 1.5, "exp_stage": "adaptive_procedure", "stimResponseInterval": 1, "trial_time": 4.413579225540161}
{"stimulusDuration": 2, "reward_amount": 1, "FBonset": 0.5, "stim": {"ori_start": -60, "motion_direction": "in", "speed_end": 0.11289435083064851, "oriDirection": 1, "oriBase": -60, "motionDirection": "in", "speedDirection": 1, "speedStrength": "easy", "speed_start": 0.1, "oriStrength": "easy", "ori_end": -35}, "ITI": 1.7844307155954642, "rt": 0.4597349166870117, "decision_var": 0.012894350830648507, "FBDuration": 0.5, "trial_count": 113, "ts": "motion", "response": "up", "onset": 790.4320977301824, "quest_estimate": 0.010374472095542098, "FB": 1, "displayFB": true, "punishment_amount": 0, "responseWindow": 1.5, "exp_stage": "adaptive_procedure", "stimResponseInterval": 1, "trial_time": 4.503267049789429}
{"stimulusDuration": 2, "reward_amount": 1, "FBonset": 0.5, "stim": {"ori_start": -60, "motion_direction": "in", "speed_end": 0.10840280769877644, "oriDirection": -1, "oriBase": -60, "motionDirection": "in", "speedDirection": 1, "speedStrength": "hard", "speed_start": 0.1, "oriStrength": "easy", "ori_end": -85}, "ITI": 1.5849418416962233, "rt": 0.20716190338134766, "decision_var": 0.008402807698776445, "FBDuration": 0.5, "trial_count": 114, "ts": "motion", "response": "up", "onset": 797.7165284457778, "quest_estimate": 0.00592434926528812, "FB": 1, "displayFB": true, "punishment_amount": 0, "responseWindow": 1.5, "exp_stage": "adaptive_procedure", "stimResponseInterval": 1, "trial_time": 4.244891881942749}
{"stimulusDuration": 2, "reward_amount": 1, "FBonset": 0.5, "stim": {"ori_start": 30, "motion_direction": "in", "speed_end": 0.10758834280058908, "oriDirection": -1, "oriBase": 30, "motionDirection": "in", "speedDirection": 1, "speedStrength": "hard", "speed_start": 0.1, "oriStrength": "easy", "ori_end": 5}, "ITI": 1.589382468029498, "rt": 0.35898900032043457, "decision_var": 0.007588342800589079, "FBDuration": 0.5, "trial_count": 115, "ts": "motion", "response": "down", "onset": 804.8014702874741, "quest_estimate": 0.007831976688727565, "FB": 0, "displayFB": true, "punishment_amount": 0, "responseWindow": 1.5, "exp_stage": "adaptive_procedure", "stimResponseInterval": 1, "trial_time": 4.393036842346191}
{"stimulusDuration": 2, "reward_amount": 1, "FBonset": 0.5, "stim": {"ori_start": -60, "motion_direction": "out", "speed_end": 0.0876303018791416, "oriDirection": -1, "oriBase": -60, "motionDirection": "out", "speedDirection": -1, "speedStrength": "easy", "speed_start": 0.1, "oriStrength": "hard", "ori_end": -75}, "ITI": 1.6558908570331838, "rt": 0.3532290458679199, "decision_var": 0.012369698120858405, "FBDuration": 0.5, "trial_count": 116, "ts": "motion", "response": "down", "onset": 811.8908527555036, "quest_estimate": 0.009882671412792504, "FB": 1, "displayFB": true, "punishment_amount": 0, "responseWindow": 1.5, "exp_stage": "adaptive_procedure", "stimResponseInterval": 1, "trial_time": 4.39634108543396}
{"stimulusDuration": 2, "reward_amount": 1, "FBonset": 0.5, "stim": {"ori_start": -60, "motion_direction": "out", "speed_end": 0.11184872714210432, "oriDirection": -1, "oriBase": -60, "motionDirection": "out", "speedDirection": 1, "speedStrength": "easy", "speed_start": 0.1, "oriStrength": "hard", "ori_end": -75}, "ITI": 1.9394509287664947, "rt": 0.24985194206237793, "decision_var": 0.011848727142104318, "FBDuration": 0.5, "trial_count": 117, "ts": "motion", "response": "up", "onset": 819.0467436125368, "quest_estimate": 0.009396652959174356, "FB": 1, "displayFB": true, "punishment_amount": 0, "responseWindow": 1.5, "exp_stage": "adaptive_procedure", "stimResponseInterval": 1, "trial_time": 4.284167051315308}
{"stimulusDuration": 2, "reward_amount": 1, "FBonset": 0.5, "stim": {"ori_start": 30, "motion_direction": "in", "speed_end": 0.11133278143053542, "oriDirection": 1, "oriBase": 30, "motionDirection": "in", "speedDirection": 1, "speedStrength": "easy", "speed_start": 0.1, "oriStrength": "easy", "ori_end": 55}, "ITI": 1.278232631928629, "rt": 0.3949589729309082, "decision_var": 0.011332781430535413, "FBDuration": 0.5, "trial_count": 118, "ts": "motion", "response": "up", "onset": 826.4861945413033, "quest_estimate": 0.008916412146480382, "FB": 1, "displayFB": true, "punishment_amount": 0, "responseWindow": 1.5, "exp_stage": "adaptive_procedure", "stimResponseInterval": 1, "trial_time": 4.439490079879761}
{"stimulusDuration": 2, "reward_amount": 1, "FBonset": 0.5, "stim": {"ori_start": 30, "motion_direction": "out", "speed_end": 0.09051129903983783, "oriDirection": 1, "oriBase": 30, "motionDirection": "out", "speedDirection": -1, "speedStrength": "hard", "speed_start": 0.1, "oriStrength": "easy", "ori_end": 55}, "ITI": 1.3562154702429803, "rt": 0.37019801139831543, "decision_var": 0.009488700960162178, "FBDuration": 0.5, "trial_count": 119, "ts": "motion", "response": "down", "onset": 833.264427173232, "quest_estimate": 0.007034423476487549, "FB": 1, "displayFB": true, "punishment_amount": 0, "responseWindow": 1.5, "exp_stage": "adaptive_procedure", "stimResponseInterval": 1, "trial_time": 4.415719985961914}
{"stimulusDuration": 2, "reward_amount": 1, "FBonset": 0.5, "stim": {"ori_start": 30, "motion_direction": "in", "speed_end": 0.0913148310565806, "oriDirection": 1, "oriBase": 30, "motionDirection": "in", "speedDirection": -1, "speedStrength": "hard", "speed_start": 0.1, "oriStrength": "easy", "ori_end": 55}, "ITI": 1.0497312103938774, "rt": 0.27214813232421875, "decision_var": 0.008685168943419405, "FBDuration": 0.5, "trial_count": 120, "ts": "motion", "response": "down", "onset": 840.120642643475, "quest_estimate": 0.0062439223890736265, "FB": 1, "displayFB": true, "punishment_amount": 0, "responseWindow": 1.5, "exp_stage": "adaptive_procedure", "stimResponseInterval": 1, "trial_time": 4.308884143829346}
{"stimulusDuration": 2, "reward_amount": 1, "FBonset": 0.5, "stim": {"ori_start": 30, "motion_direction": "out", "speed_end": 0.11082186194625264, "oriDirection": 1, "oriBase": 30, "motionDirection": "out", "speedDirection": 1, "speedStrength": "easy", "speed_start": 0.1, "oriStrength": "hard", "ori_end": 45}, "ITI": 1.9097860624234202, "rt": 0.24377012252807617, "decision_var": 0.010821861946252634, "FBDuration": 0.5, "trial_count": 121, "ts": "motion", "response": "up", "onset": 846.6703738538689, "quest_estimate": 0.008441945528774322, "FB": 1, "displayFB": true, "punishment_amount": 0, "responseWindow": 1.5, "exp_stage": "adaptive_procedure", "stimResponseInterval": 1, "trial_time": 4.278580188751221}
{"stimulusDuration": 2, "reward_amount": 1, "FBonset": 0.5, "stim": {"ori_start": 30, "motion_direction": "in", "speed_end": 0.110315972208239, "oriDirection": 1, "oriBase": 30, "motionDirection": "in", "speedDirection": 1, "speedStrength": "easy", "speed_start": 0.1, "oriStrength": "easy", "ori_end": 55}, "ITI": 1.5175911090800431, "rt": 0.24715280532836914, "decision_var": 0.010315972208238988, "FBDuration": 0.5, "trial_count": 122, "ts": "motion", "response": "up", "onset": 854.0801599162924, "quest_estimate": 0.007973250572213361, "FB": 1, "displayFB": true, "punishment_amount": 0, "responseWindow": 1.5, "exp_stage": "adaptive_procedure", "stimResponseInterval": 1, "trial_time": 4.286003828048706}
{"stimulusDuration": 2, "reward_amount": 1, "FBonset": 0.5, "stim": {"ori_start": -60, "motion_direction": "in", "speed_end": 0.10981511803149537, "oriDirection": 1, "oriBase": -60, "motionDirection": "in", "speedDirection": 1, "speedStrength": "easy", "speed_start": 0.1, "oriStrength": "hard", "ori_end": -45}, "ITI": 1.6670710852560706, "rt": 0.41141605377197266, "decision_var": 0.00981511803149536, "FBDuration": 0.5, "trial_count": 123, "ts": "motion", "response": "up", "onset": 861.0977510253724, "quest_estimate": 0.007510325429439954, "FB": 1, "displayFB": true, "punishment_amount": 0, "responseWindow": 1.5, "exp_stage": "adaptive_procedure", "stimResponseInterval": 1, "trial_time": 4.446401119232178}
{"stimulusDuration": 2, "reward_amount": 1, "FBonset": 0.5, "stim": {"ori_start": -60, "motion_direction": "in", "speed_end": 0.10788874302715923, "oriDirection": 1, "oriBase": -60, "motionDirection": "in", "speedDirection": 1, "speedStrength": "hard", "speed_start": 0.1, "oriStrength": "easy", "ori_end": -35}, "ITI": 1.1919322810545223, "rt": 0.26467180252075195, "decision_var": 0.007888743027159223, "FBDuration": 0.5, "trial_count": 124, "ts": "motion", "response": "down", "onset": 868.2648221106285, "quest_estimate": 0.008111865212202675, "FB": 0, "displayFB": true, "punishment_amount": 0, "responseWindow": 1.5, "exp_stage": "adaptive_procedure", "stimResponseInterval": 1, "trial_time": 4.31474494934082}
{"stimulusDuration": 2, "reward_amount": 1, "FBonset": 0.5, "stim": {"ori_start": 30, "motion_direction": "out", "speed_end": 0.0902502913823598, "oriDirection": -1, "oriBase": 30, "motionDirection": "out", "speedDirection": -1, "speedStrength": "hard", "speed_start": 0.1, "oriStrength": "easy", "ori_end": 5}, "ITI": 1.5991643957942774, "rt": 0.25370216369628906, "decision_var": 0.009749708617640199, "FBDuration": 0.5, "trial_count": 125, "ts": "motion", "response": "down", "onset": 874.956754391683, "quest_estimate": 0.007331761509525234, "FB": 1, "displayFB": true, "punishment_amount": 0, "responseWindow": 1.5, "exp_stage": "adaptive_procedure", "stimResponseInterval": 1, "trial_time": 4.292233943939209}
{"stimulusDuration": 2, "reward_amount": 1, "FBonset": 0.5, "stim": {"ori_start": -60, "motion_direction": "out", "speed_end": 0.09103621747166389, "oriDirection": -1, "oriBase": -60, "motionDirection": "out", "speedDirection": -1, "speedStrength": "hard", "speed_start": 0.1, "oriStrength": "easy", "ori_end": -85}, "ITI": 1.7952317769910415, "rt": 0.5822370052337646, "decision_var": 0.008963782528336114, "FBDuration": 0.5, "trial_count": 126, "ts": "motion", "response": "down", "onset": 882.0559187874774, "quest_estimate": 0.0065583456865484085, "FB": 1, "displayFB": true, "punishment_amount": 0, "responseWindow": 1.5, "exp_stage": "adaptive_procedure", "stimResponseInterval": 1, "trial_time": 4.619781970977783}
{"stimulusDuration": 2, "reward_amount": 1, "FBonset": 0.5, "stim": {"ori_start": 30, "motion_direction": "in", "speed_end": 0.09068069273837794, "oriDirection": 1, "oriBase": 30, "motionDirection": "in", "speedDirection": -1, "speedStrength": "easy", "speed_start": 0.1, "oriStrength": "easy", "ori_end": 55}, "ITI": 1.9027744876046653, "rt": 0.2903130054473877, "decision_var": 0.00931930726162207, "FBDuration": 0.5, "trial_count": 127, "ts": "motion", "response": "down", "onset": 889.3511505644684, "quest_estimate": 0.007053168719161743, "FB": 1, "displayFB": true, "punishment_amount": 0, "responseWindow": 1.5, "exp_stage": "adaptive_procedure", "stimResponseInterval": 1, "trial_time": 4.3293609619140625}
{"stimulusDuration": 2, "reward_amount": 1, "FBonset": 0.5, "stim": {"ori_start": -60, "motion_direction": "out", "speed_end": 0.10818460810394866, "oriDirection": 1, "oriBase": -60, "motionDirection": "out", "speedDirection": 1, "speedStrength": "hard", "speed_start": 0.1, "oriStrength": "easy", "ori_end": -35}, "ITI": 1.0510642301095872, "rt": 0.42941999435424805, "decision_var": 0.008184608103948651, "FBDuration": 0.5, "trial_count": 128, "ts": "motion", "response": "up", "onset": 896.7539250520731, "quest_estimate": 0.005791459170807631, "FB": 1, "displayFB": true, "punishment_amount": 0, "responseWindow": 1.5, "exp_stage": "adaptive_procedure", "stimResponseInterval": 1, "trial_time": 4.47898006439209}
