{"FBDuration": 0.5, "FBonset": 0, "ITI": 0.6432447679374547, "displayFB": true, "onset": 2, "punishment_amount": 0, "responseWindow": 1.5, "reward_amount": 1, "stim": {"motionDirection": "in", "oriBase": 30, "oriDirection": 1, "oriStrength": "medium", "speedDirection": 1, "speedStrength": "medium", "speed_start": 0.12, "speed_end": 0.1249163644884424, "ori_start": 30, "ori_end": 34.33119161711209, "motion_direction": "in"}, "stimResponseInterval": 0.18345406588118807, "stimulusDuration": 1.5, "trial_count": 1, "ts": "motion", "exp_stage": "adaptive_procedure", "decision_var": 0.004916364488442397, "response": "up", "rt": 0.29843966200132854, "FB": 1, "quest_estimate": 0.00030622693092981906, "trial_time": 2.5238650440005586}
{"FBDuration": 0.5, "FBonset": 0, "ITI": 0.23506459614892616, "displayFB": true, "onset": 6.326698833818643, "punishment_amount": 0, "responseWindow": 1.5, "reward_amount": 1, "stim": {"motionDirection": "out", "oriBase": 30, "oriDirection": 1, "oriStrength": "medium", "speedDirection": -1, "speedStrength": "medium", "speed_start": 0.12, "speed_end": 0.11693121768930428, "ori_start": 30, "ori_end": 34.33119161711209, "motion_direction": "out"}, "stimResponseInterval": 0.6629678779109591, "stimulusDuration": 1.5, "trial_count": 2, "ts": "motion", "exp_stage": "adaptive_procedure", "decision_var": 0.0030687823106957043, "response": "down", "rt": 0.31579847999091726, "FB": 1, "quest_estimate": -0.0013204773817348386, "trial_time": 3.0127643710002303}
{"FBDuration": 0.5, "FBonset": 0, "ITI": 0.36905690910891775, "displayFB": true, "onset": 10.724731307878528, "punishment_amount": 0, "responseWindow": 1.5, "reward_amount": 1, "stim": {"motionDirection": "out", "oriBase": 30, "oriDirection": 1, "oriStrength": "medium", "speedDirection": 1, "speedStrength": "medium", "speed_start": 0.12, "speed_end": 0.1212927290522948, "ori_start": 30, "ori_end": 34.33119161711209, "motion_direction": "out"}, "stimResponseInterval": 0.6676336906513352, "stimulusDuration": 1.5, "trial_count": 3, "ts": "motion", "exp_stage": "adaptive_procedure", "decision_var": 0.001292729052294793, "response": "down", "rt": 0.2769718030031072, "FB": 0, "quest_estimate": 0.0042060449685813045, "trial_time": 2.982803494989639}
{"FBDuration": 0.5, "FBonset": 0, "ITI": 0.5336562911672114, "displayFB": true, "onset": 15.26142190763878, "punishment_amount": 0, "responseWindow": 1.5, "reward_amount": 1, "stim": {"motionDirection": "in", "oriBase": -60, "oriDirection": 1, "oriStrength": "medium", "speedDirection": 1, "speedStrength": "medium", "speed_start": 0.12, "speed_end": 0.12741455346974773, "ori_start": -60, "ori_end": -55.66880838288791, "motion_direction": "in"}, "stimResponseInterval": 0.15171751339884754, "stimulusDuration": 1.5, "trial_count": 4, "ts": "motion", "exp_stage": "adaptive_procedure", "decision_var": 0.007414553469747745, "response": "up", "rt": 0.34613366599660367, "FB": 1, "quest_estimate": 0.002484120219949343, "trial_time": 2.5340828810003586}
{"FBDuration": 0.5, "FBonset": 0, "ITI": 0.5967494397783497, "displayFB": true, "onset": 19.44679571220484, "punishment_amount": 0, "responseWindow": 1.5, "reward_amount": 1, "stim": {"motionDirection": "in", "oriBase": -60, "oriDirection": 1, "oriStrength": "medium", "speedDirection": 1, "speedStrength": "medium", "speed_start": 0.12, "speed_end": 0.125552789560315, "ori_start": -60, "ori_end": -55.66880838288791, "motion_direction": "in"}, "stimResponseInterval": 0.5589598298441687, "stimulusDuration": 1.5, "trial_count": 5, "ts": "motion", "exp_stage": "adaptive_procedure", "decision_var": 0.005552789560314998, "response": "up", "rt": 0.2812408590107225, "FB": 1, "quest_estimate": 0.0008300347865537253, "trial_time": 2.8770627650083043}
{"FBDuration": 0.5, "FBonset": 0, "ITI": 0.8861180832330366, "displayFB": true, "onset": 24.10250498182736, "punishment_amount": 0, "responseWindow": 1.5, "reward_amount": 1, "stim": {"motionDirection": "in", "oriBase": 30, "oriDirection": -1, "oriStrength": "medium", "speedDirection": -1, "speedStrength": "medium", "speed_start": 0.12, "speed_end": 0.1162412583317431, "ori_start": 30, "ori_end": 25.66880838288791, "motion_direction": "in"}, "stimResponseInterval": 0.8891930182556704, "stimulusDuration": 1.5, "trial_count": 6, "ts": "motion", "exp_stage": "adaptive_procedure", "decision_var": 0.0037587416682568903, "response": "up", "rt": 0.33847894800419454, "FB": 0, "quest_estimate": 0.006475138484922906, "trial_time": 3.261215003003599}
{"FBDuration": 0.5, "FBonset": 0, "ITI": 0.8521112021346644, "displayFB": true, "onset": 29.377816083316066, "punishment_amount": 0, "responseWindow": 1.5, "reward_amount": 1, "stim": {"motionDirection": "out", "oriBase": -60, "oriDirection": -1, "oriStrength": "medium", "speedDirection": 1, "speedStrength": "medium", "speed_start": 0.12, "speed_end": 0.12994680546434706, "ori_start": -60, "ori_end": -64.3311916171121, "motion_direction": "out"}, "stimResponseInterval": 0.33298078313860635, "stimulusDuration": 1.5, "trial_count": 7, "ts": "motion", "exp_stage": "adaptive_procedure", "decision_var": 0.009946805464347064, "response": "up", "rt": 0.5375731959939003, "FB": 1, "quest_estimate": 0.004733520862784911, "trial_time": 2.9139505379862385}
{"FBDuration": 0.5, "FBonset": 0, "ITI": 0.5582980579536212, "displayFB": true, "onset": 34.06290806858934, "punishment_amount": 0, "responseWindow": 1.5, "reward_amount": 1, "stim": {"motionDirection": "in", "oriBase": 30, "oriDirection": 1, "oriStrength": "medium", "speedDirection": -1, "speedStrength": "medium", "speed_start": 0.12, "speed_end": 0.11192245317254661, "ori_start": 30, "ori_end": 34.33119161711209, "motion_direction": "in"}, "stimResponseInterval": 0.731574904908471, "stimulusDuration": 1.5, "trial_count": 8, "ts": "motion", "exp_stage": "adaptive_procedure", "decision_var": 0.008077546827453388, "response": "down", "rt": 0.28537243700702675, "FB": 1, "quest_estimate": 0.0030568986458350267, "trial_time": 3.0612244380026823}
{"FBDuration": 0.5, "FBonset": 0, "ITI": 0.06328567517295736, "displayFB": true, "onset": 38.85278103145143, "punishment_amount": 0, "responseWindow": 1.5, "reward_amount": 1, "stim": {"motionDirection": "in", "oriBase": -60, "oriDirection": 1, "oriStrength": "medium", "speedDirection": -1, "speedStrength": "medium", "speed_start": 0.12, "speed_end": 0.11372773101354083, "ori_start": -60, "ori_end": -55.66880838288791, "motion_direction": "in"}, "stimResponseInterval": 0.5034625334582952, "stimulusDuration": 1.5, "trial_count": 9, "ts": "motion", "exp_stage": "adaptive_procedure", "decision_var": 0.006272268986459162, "response": "down", "rt": 0.224106819005101, "FB": 1, "quest_estimate": 0.0014428540717744479, "trial_time": 2.768403728987323}
{"FBDuration": 0.5, "FBonset": 0, "ITI": 0.0027543089114238084, "displayFB": true, "onset": 42.91952924008268, "punishment_amount": 0, "responseWindow": 1.5, "reward_amount": 1, "stim": {"motionDirection": "in", "oriBase": -60, "oriDirection": 1, "oriStrength": "medium", "speedDirection": -1, "speedStrength": "medium", "speed_start": 0.12, "speed_end": 0.11547107247898482, "ori_start": -60, "ori_end": -55.66880838288791, "motion_direction": "in"}, "stimResponseInterval": 0.3797434443429214, "stimulusDuration": 1.5, "trial_count": 10, "ts": "motion", "exp_stage": "adaptive_procedure", "decision_var": 0.0045289275210151775, "response": "up", "rt": 0.27934915499645285, "FB": 0, "quest_estimate": 0.006971076203841617, "trial_time": 2.703010972996708}
{"FBDuration": 0.5, "FBonset": 0, "ITI": 0.02847213980364216, "displayFB": true, "onset": 46.80202699333703, "punishment_amount": 0, "responseWindow": 1.5, "reward_amount": 1, "stim": {"motionDirection": "in", "oriBase": 30, "oriDirection": 1, "oriStrength": "medium", "speedDirection": 1, "speedStrength": "medium", "speed_start": 0.12, "speed_end": 0.13054947408508813, "ori_start": 30, "ori_end": 34.33119161711209, "motion_direction": "in"}, "stimResponseInterval": 0.9205854853695716, "stimulusDuration": 1.5, "trial_count": 11, "ts": "motion", "exp_stage": "adaptive_procedure", "decision_var": 0.010549474085088141, "response": "down", "rt": 0.23739293801190797, "FB": 0, "quest_estimate": 0.013018231991651127, "trial_time": 3.185615100999712}
{"FBDuration": 0.5, "FBonset": 0, "ITI": 0.11496023358309793, "displayFB": true, "onset": 51.25108461851024, "punishment_amount": 0, "responseWindow": 1.5, "reward_amount": 1, "stim": {"motionDirection": "in", "oriBase": 30, "oriDirection": 1, "oriStrength": "medium", "speedDirection": 1, "speedStrength": "medium", "speed_start": 0.12, "speed_end": 0.1370125016086283, "ori_start": 30, "ori_end": 34.33119161711209, "motion_direction": "in"}, "stimResponseInterval": 0.688338625861654, "stimulusDuration": 1.5, "trial_count": 12, "ts": "motion", "exp_stage": "adaptive_procedure", "decision_var": 0.017012501608628307, "response": "up", "rt": 0.2738878179952735, "FB": 1, "quest_estimate": 0.011191516480323196, "trial_time": 2.992025478000869}
{"FBDuration": 0.5, "FBonset": 0, "ITI": 0.7607986592053844, "displayFB": true, "onset": 55.55438347795499, "punishment_amount": 0, "responseWindow": 1.5, "reward_amount": 1, "stim": {"motionDirection": "in", "oriBase": -60, "oriDirection": -1, "oriStrength": "medium", "speedDirection": -1, "speedStrength": "medium", "speed_start": 0.12, "speed_end": 0.10491395032595688, "ori_start": -60, "ori_end": -64.3311916171121, "motion_direction": "in"}, "stimResponseInterval": 0.07833474604967972, "stimulusDuration": 1.5, "trial_count": 13, "ts": "motion", "exp_stage": "adaptive_procedure", "decision_var": 0.015086049674043124, "response": "down", "rt": 0.4224537150003016, "FB": 1, "quest_estimate": 0.009425865972433972, "trial_time": 2.5293288409884553}
{"FBDuration": 0.5, "FBonset": 0, "ITI": 0.1884305216243467, "displayFB": true, "onset": 59.893516883210054, "punishment_amount": 0, "responseWindow": 1.5, "reward_amount": 1, "stim": {"motionDirection": "out", "oriBase": -60, "oriDirection": -1, "oriStrength": "medium", "speedDirection": 1, "speedStrength": "medium", "speed_start": 0.12, "speed_end": 0.13321907954930037, "ori_start": -60, "ori_end": -64.3311916171121, "motion_direction": "out"}, "stimResponseInterval": 0.25071596821547626, "stimulusDuration": 1.5, "trial_count": 14, "ts": "motion", "exp_stage": "adaptive_procedure", "decision_var": 0.013219079549300385, "response": "up", "rt": 0.34595545299816877, "FB": 1, "quest_estimate": 0.007719189435448741, "trial_time": 2.637970291005331}
{"FBDuration": 0.5, "FBonset": 0, "ITI": 0.2513588756062505, "displayFB": true, "onset": 63.832663373049876, "punishment_amount": 0, "responseWindow": 1.5, "reward_amount": 1, "stim": {"motionDirection": "out", "oriBase": -60, "oriDirection": 1, "oriStrength": "medium", "speedDirection": -1, "speedStrength": "medium", "speed_start": 0.12, "speed_end": 0.10859070997315279, "ori_start": -60, "ori_end": -55.66880838288791, "motion_direction": "out"}, "stimResponseInterval": 0.4653977852760708, "stimulusDuration": 1.5, "trial_count": 15, "ts": "motion", "exp_stage": "adaptive_procedure", "decision_var": 0.0114092900268472, "response": "down", "rt": 0.2197264849964995, "FB": 1, "quest_estimate": 0.0060694666952993345, "trial_time": 2.7229740059992764}
{"FBDuration": 0.5, "FBonset": 0, "ITI": 0.009000319844037707, "displayFB": true, "onset": 68.0494200339322, "punishment_amount": 0, "responseWindow": 1.5, "reward_amount": 1, "stim": {"motionDirection": "in", "oriBase": 30, "oriDirection": 1, "oriStrength": "medium", "speedDirection": -1, "speedStrength": "medium", "speed_start": 0.12, "speed_end": 0.11034521522289796, "ori_start": 30, "ori_end": 34.33119161711209, "motion_direction": "in"}, "stimResponseInterval": 0.9498197393967196, "stimulusDuration": 1.5, "trial_count": 16, "ts": "motion", "exp_stage": "adaptive_procedure", "decision_var": 0.009654784777102035, "response": "down", "rt": 0.2922159089939669, "FB": 1, "quest_estimate": 0.0044748566664527464, "trial_time": 3.2823747910006205}
{"FBDuration": 0.5, "FBonset": 0, "ITI": 0.9447948053316764, "displayFB": true, "onset": 72.50824009317296, "punishment_amount": 0, "responseWindow": 1.5, "reward_amount": 1, "stim": {"motionDirection": "out", "oriBase": 30, "oriDirection": 1, "oriStrength": "medium", "speedDirection": -1, "speedStrength": "medium", "speed_start": 0.12, "speed_end": 0.11204652905244256, "ori_start": 30, "ori_end": 34.33119161711209, "motion_direction": "out"}, "stimResponseInterval": 0.2035734080268531, "stimulusDuration": 1.5, "trial_count": 17, "ts": "motion", "exp_stage": "adaptive_procedure", "decision_var": 0.00795347094755744, "response": "down", "rt": 0.35515550899435766, "FB": 1, "quest_estimate": 0.0029334030555381724, "trial_time": 2.5911897940095514}
{"FBDuration": 0.5, "FBonset": 0, "ITI": 0.2195821829520873, "displayFB": true, "onset": 77.15660830653148, "punishment_amount": 0, "responseWindow": 1.5, "reward_amount": 1, "stim": {"motionDirection": "in", "oriBase": 30, "oriDirection": -1, "oriStrength": "medium", "speedDirection": -1, "speedStrength": "medium", "speed_start": 0.12, "speed_end": 0.11369649369716131, "ori_start": 30, "ori_end": 25.66880838288791, "motion_direction": "in"}, "stimResponseInterval": 0.32075874700820495, "stimulusDuration": 1.5, "trial_count": 18, "ts": "motion", "exp_stage": "adaptive_procedure", "decision_var": 0.006303506302838678, "response": "down", "rt": 0.2659928030043375, "FB": 1, "quest_estimate": 0.0014433955401306833, "trial_time": 2.622985734997201}
{"FBDuration": 0.5, "FBonset": 0, "ITI": 0.6848799362001297, "displayFB": true, "onset": 81.19694923649178, "punishment_amount": 0, "responseWindow": 1.5, "reward_amount": 1, "stim": {"motionDirection": "out", "oriBase": 30, "oriDirection": -1, "oriStrength": "medium", "speedDirection": 1, "speedStrength": "medium", "speed_start": 0.12, "speed_end": 0.12470339912635417, "ori_start": 30, "ori_end": 25.66880838288791, "motion_direction": "out"}, "stimResponseInterval": 0.7888078231179125, "stimulusDuration": 1.5, "trial_count": 19, "ts": "motion", "exp_stage": "adaptive_procedure", "decision_var": 0.004703399126354174, "response": "up", "rt": 0.29077148099895567, "FB": 1, "quest_estimate": 3.1179706860562373e-06, "trial_time": 3.1110068740090355}
{"FBDuration": 0.5, "FBonset": 0, "ITI": 0.6947123626855793, "displayFB": true, "onset": 86.17063699580982, "punishment_amount": 0, "responseWindow": 1.5, "reward_amount": 1, "stim": {"motionDirection": "in", "oriBase": -60, "oriDirection": -1, "oriStrength": "medium", "speedDirection": 1, "speedStrength": "medium", "speed_start": 0.12, "speed_end": 0.12315154398880324, "ori_start": -60, "ori_end": -64.3311916171121, "motion_direction": "in"}, "stimResponseInterval": 0.56427563512801, "stimulusDuration": 1.5, "trial_count": 20, "ts": "motion", "exp_stage": "adaptive_procedure", "decision_var": 0.0031515439888032404, "response": "down", "rt": 0.32935546700900886, "FB": 0, "quest_estimate": 0.004945769988574038, "trial_time": 2.937203679000959}
{"FBDuration": 0.5, "FBonset": 0, "ITI": 0.15094066178759946, "displayFB": true, "onset": 90.9296249936234, "punishment_amount": 0, "responseWindow": 1.5, "reward_amount": 1, "stim": {"motionDirection": "in", "oriBase": 30, "oriDirection": 1, "oriStrength": "medium", "speedDirection": -1, "speedStrength": "medium", "speed_start": 0.12, "speed_end": 0.11149343782111962, "ori_start": 30, "ori_end": 34.33119161711209, "motion_direction": "in"}, "stimResponseInterval": 0.8397059460890208, "stimulusDuration": 1.5, "trial_count": 21, "ts": "motion", "exp_stage": "adaptive_procedure", "decision_var": 0.008506562178880371, "response": "down", "rt": 0.29374621699389536, "FB": 1, "quest_estimate": 0.0034425798649156125, "trial_time": 3.1701876040024217}
{"FBDuration": 0.5, "FBonset": 0, "ITI": 0.3363004304240834, "displayFB": true, "onset": 95.42027160150002, "punishment_amount": 0, "responseWindow": 1.5, "reward_amount": 1, "stim": {"motionDirection": "out", "oriBase": -60, "oriDirection": 1, "oriStrength": "medium", "speedDirection": 1, "speedStrength": "medium", "speed_start": 0.12, "speed_end": 0.12690382873949305, "ori_start": -60, "ori_end": -55.66880838288791, "motion_direction": "out"}, "stimResponseInterval": 0.8475151426295744, "stimulusDuration": 1.5, "trial_count": 22, "ts": "motion", "exp_stage": "adaptive_procedure", "decision_var": 0.006903828739493044, "response": "down", "rt": 0.26432709500659257, "FB": 0, "quest_estimate": 0.008625462660916038, "trial_time": 3.1434687959990697}
{"FBDuration": 0.5, "FBonset": 0, "ITI": 0.8907341411395693, "displayFB": true, "onset": 100.10408717455368, "punishment_amount": 0, "responseWindow": 1.5, "reward_amount": 1, "stim": {"motionDirection": "out", "oriBase": -60, "oriDirection": 1, "oriStrength": "medium", "speedDirection": -1, "speedStrength": "medium", "speed_start": 0.12, "speed_end": 0.10755865268834394, "ori_start": -60, "ori_end": -55.66880838288791, "motion_direction": "out"}, "stimResponseInterval": 0.5451774847062989, "stimulusDuration": 1.5, "trial_count": 23, "ts": "motion", "exp_stage": "adaptive_procedure", "decision_var": 0.012441347311656047, "response": "down", "rt": 0.2971724719973281, "FB": 1, "quest_estimate": 0.00706517105911364, "trial_time": 2.8756081359897507}
{"FBDuration": 0.5, "FBonset": 0, "ITI": 0.25312612450440364, "displayFB": true, "onset": 105.03999880039956, "punishment_amount": 0, "responseWindow": 1.5, "reward_amount": 1, "stim": {"motionDirection": "out", "oriBase": 30, "oriDirection": -1, "oriStrength": "medium", "speedDirection": 1, "speedStrength": "medium", "speed_start": 0.12, "speed_end": 0.13079462193282768, "ori_start": 30, "ori_end": 25.66880838288791, "motion_direction": "out"}, "stimResponseInterval": 0.27670721678734467, "stimulusDuration": 1.5, "trial_count": 24, "ts": "motion", "exp_stage": "adaptive_procedure", "decision_var": 0.010794621932827674, "response": "up", "rt": 0.3263924539933214, "FB": 1, "quest_estimate": 0.005551898641325388, "trial_time": 2.6351415050012292}
{"FBDuration": 0.5, "FBonset": 0, "ITI": 0.17613476856131938, "displayFB": true, "onset": 109.06983214169131, "punishment_amount": 0, "responseWindow": 1.5, "reward_amount": 1, "stim": {"motionDirection": "out", "oriBase": -60, "oriDirection": -1, "oriStrength": "medium", "speedDirection": -1, "speedStrength": "medium", "speed_start": 0.12, "speed_end": 0.11080723568201291, "ori_start": -60, "ori_end": -64.3311916171121, "motion_direction": "out"}, "stimResponseInterval": 0.9021621215287228, "stimulusDuration": 1.5, "trial_count": 25, "ts": "motion", "exp_stage": "adaptive_procedure", "decision_var": 0.009192764317987087, "response": "down", "rt": 0.30514169500384014, "FB": 1, "quest_estimate": 0.004084166079893363, "trial_time": 3.246022548992187}
{"FBDuration": 0.5, "FBonset": 0, "ITI": 0.16709129849141546, "displayFB": true, "onset": 113.64812903178135, "punishment_amount": 0, "responseWindow": 1.5, "reward_amount": 1, "stim": {"motionDirection": "in", "oriBase": 30, "oriDirection": -1, "oriStrength": "medium", "speedDirection": -1, "speedStrength": "medium", "speed_start": 0.12, "speed_end": 0.1123656732737785, "ori_start": 30, "ori_end": 25.66880838288791, "motion_direction": "in"}, "stimResponseInterval": 0.5475984146875927, "stimulusDuration": 1.5, "trial_count": 26, "ts": "motion", "exp_stage": "adaptive_procedure", "decision_var": 0.0076343267262214964, "response": "down", "rt": 0.33875453600194305, "FB": 1, "quest_estimate": 0.0026605622814687077, "trial_time": 2.931152067001676}
{"FBDuration": 0.5, "FBonset": 0, "ITI": 0.4869272151462406, "displayFB": true, "onset": 117.86281874496036, "punishment_amount": 0, "responseWindow": 1.5, "reward_amount": 1, "stim": {"motionDirection": "out", "oriBase": -60, "oriDirection": -1, "oriStrength": "medium", "speedDirection": -1, "speedStrength": "medium", "speed_start": 0.12, "speed_end": 0.11388188972502347, "ori_start": -60, "ori_end": -64.3311916171121, "motion_direction": "out"}, "stimResponseInterval": 0.45882237587770924, "stimulusDuration": 1.5, "trial_count": 27, "ts": "motion", "exp_stage": "adaptive_procedure", "decision_var": 0.006118110274976517, "response": "up", "rt": 0.2977852649928536, "FB": 0, "quest_estimate": 0.007574806078194461, "trial_time": 2.7928943290025927}
{"FBDuration": 0.5, "FBonset": 0, "ITI": 0.07996311693502745, "displayFB": true, "onset": 122.30856833598432, "punishment_amount": 0, "responseWindow": 1.5, "reward_amount": 1, "stim": {"motionDirection": "out", "oriBase": 30, "oriDirection": -1, "oriStrength": "medium", "speedDirection": -1, "speedStrength": "medium", "speed_start": 0.12, "speed_end": 0.10864159672126142, "ori_start": 30, "ori_end": 25.66880838288791, "motion_direction": "out"}, "stimResponseInterval": 0.2367664740494364, "stimulusDuration": 1.5, "trial_count": 28, "ts": "motion", "exp_stage": "adaptive_procedure", "decision_var": 0.011358403278738577, "response": "up", "rt": 0.35594336000212934, "FB": 0, "quest_estimate": 0.012846247128230577, "trial_time": 2.630820838006912}
{"FBDuration": 0.5, "FBonset": 0, "ITI": 0.6388805030223554, "displayFB": true, "onset": 126.12529792696878, "punishment_amount": 0, "responseWindow": 1.5, "reward_amount": 1, "stim": {"motionDirection": "out", "oriBase": 30, "oriDirection": 1, "oriStrength": "medium", "speedDirection": 1, "speedStrength": "medium", "speed_start": 0.12, "speed_end": 0.1368899162244712, "ori_start": 30, "ori_end": 34.33119161711209, "motion_direction": "out"}, "stimResponseInterval": 0.03901042665193721, "stimulusDuration": 1.5, "trial_count": 29, "ts": "motion", "exp_stage": "adaptive_procedure", "decision_var": 0.016889916224471203, "response": "up", "rt": 0.39088054999592714, "FB": 1, "quest_estimate": 0.011282269234690764, "trial_time": 2.4711735750024673}
{"FBDuration": 0.5, "FBonset": 0, "ITI": 0.14466379357183468, "displayFB": true, "onset": 130.3031888566431, "punishment_amount": 0, "responseWindow": 1.5, "reward_amount": 1, "stim": {"motionDirection": "out", "oriBase": 30, "oriDirection": -1, "oriStrength": "medium", "speedDirection": -1, "speedStrength": "medium", "speed_start": 0.12, "speed_end": 0.10474039613622046, "ori_start": 30, "ori_end": 25.66880838288791, "motion_direction": "out"}, "stimResponseInterval": 0.2910134678774987, "stimulusDuration": 1.5, "trial_count": 30, "ts": "motion", "exp_stage": "adaptive_procedure", "decision_var": 0.015259603863779524, "response": "down", "rt": 0.33061117099714465, "FB": 1, "quest_estimate": 0.009761043464274727, "trial_time": 2.6521503379917704}
{"FBDuration": 0.5, "FBonset": 0, "ITI": 0.9791631925434385, "displayFB": true, "onset": 134.23886611809243, "punishment_amount": 0, "responseWindow": 1.5, "reward_amount": 1, "stim": {"motionDirection": "out", "oriBase": 30, "oriDirection": -1, "oriStrength": "medium", "speedDirection": 1, "speedStrength": "medium", "speed_start": 0.12, "speed_end": 0.13367013463069646, "ori_start": 30, "ori_end": 25.66880838288791, "motion_direction": "out"}, "stimResponseInterval": 0.20194174183014013, "stimulusDuration": 1.5, "trial_count": 31, "ts": "motion", "exp_stage": "adaptive_procedure", "decision_var": 0.013670134630696468, "response": "up", "rt": 0.30067202700593043, "FB": 1, "quest_estimate": 0.008281238223604902, "trial_time": 2.5322184630058473}
{"FBDuration": 0.5, "FBonset": 0, "ITI": 0.2235347546141505, "displayFB": true, "onset": 138.919971052466, "punishment_amount": 0, "responseWindow": 1.5, "reward_amount": 1, "stim": {"motionDirection": "in", "oriBase": -60, "oriDirection": -1, "oriStrength": "medium", "speedDirection": -1, "speedStrength": "medium", "speed_start": 0.12, "speed_end": 0.10787996214059517, "ori_start": -60, "ori_end": -64.3311916171121, "motion_direction": "in"}, "stimResponseInterval": 0.6658090699152801, "stimulusDuration": 1.5, "trial_count": 32, "ts": "motion", "exp_stage": "adaptive_procedure", "decision_var": 0.012120037859404832, "response": "down", "rt": 0.255061238000053, "FB": 1, "quest_estimate": 0.0068417186587883955, "trial_time": 2.955814390006708}
{"FBDuration": 0.5, "FBonset": 0, "ITI": 0.2888494828864674, "displayFB": true, "onset": 143.30931487699542, "punishment_amount": 0, "responseWindow": 1.5, "reward_amount": 1, "stim": {"motionDirection": "out", "oriBase": 30, "oriDirection": -1, "oriStrength": "medium", "speedDirection": 1, "speedStrength": "medium", "speed_start": 0.12, "speed_end": 0.13060811504889694, "ori_start": 30, "ori_end": 25.66880838288791, "motion_direction": "out"}, "stimResponseInterval": 0.13971055352030648, "stimulusDuration": 1.5, "trial_count": 33, "ts": "motion", "exp_stage": "adaptive_procedure", "decision_var": 0.01060811504889695, "response": "up", "rt": 0.32417646200337913, "FB": 1, "quest_estimate": 0.005441181292764989, "trial_time": 2.4940812150016427}
{"FBDuration": 0.5, "FBonset": 0, "ITI": 0.376506465951587, "displayFB": true, "onset": 147.23787491340218, "punishment_amount": 0, "responseWindow": 1.5, "reward_amount": 1, "stim": {"motionDirection": "out", "oriBase": 30, "oriDirection": 1, "oriStrength": "medium", "speedDirection": 1, "speedStrength": "medium", "speed_start": 0.12, "speed_end": 0.1291332235908515, "ori_start": 30, "ori_end": 34.33119161711209, "motion_direction": "out"}, "stimResponseInterval": 0.06170769645233232, "stimulusDuration": 1.5, "trial_count": 34, "ts": "motion", "exp_stage": "adaptive_procedure", "decision_var": 0.00913322359085151, "response": "up", "rt": 0.3228417820064351, "FB": 1, "quest_estimate": 0.004078609008672421, "trial_time": 2.4233670179964975}
{"FBDuration": 0.5, "FBonset": 0, "ITI": 0.35498955354049433, "displayFB": true, "onset": 151.1760890758061, "punishment_amount": 0, "responseWindow": 1.5, "reward_amount": 1, "stim": {"motionDirection": "out", "oriBase": -60, "oriDirection": -1, "oriStrength": "medium", "speedDirection": -1, "speedStrength": "medium", "speed_start": 0.12, "speed_end": 0.11230586813875672, "ori_start": -60, "ori_end": -64.3311916171121, "motion_direction": "out"}, "stimResponseInterval": 0.4598223581392249, "stimulusDuration": 1.5, "trial_count": 35, "ts": "motion", "exp_stage": "adaptive_procedure", "decision_var": 0.007694131861243278, "response": "up", "rt": 0.08557028899667785, "FB": 0, "quest_estimate": 0.008803553624483283, "trial_time": 2.5794907579984283}
{"FBDuration": 0.5, "FBonset": 0, "ITI": 0.5746397830954315, "displayFB": true, "onset": 155.49090098748582, "punishment_amount": 0, "responseWindow": 1.5, "reward_amount": 1, "stim": {"motionDirection": "out", "oriBase": -60, "oriDirection": -1, "oriStrength": "medium", "speedDirection": 1, "speedStrength": "medium", "speed_start": 0.12, "speed_end": 0.13267536578114897, "ori_start": -60, "ori_end": -64.3311916171121, "motion_direction": "out"}, "stimResponseInterval": 0.11448913863746668, "stimulusDuration": 1.5, "trial_count": 36, "ts": "motion", "exp_stage": "adaptive_procedure", "decision_var": 0.012675365781148987, "response": "up", "rt": 0.3765513370017288, "FB": 1, "quest_estimate": 0.007399953000708448, "trial_time": 2.5286167449958157}
{"FBDuration": 0.5, "FBonset": 0, "ITI": 0.11078003667729897, "displayFB": true, "onset": 159.68002990921872, "punishment_amount": 0, "responseWindow": 1.5, "reward_amount": 1, "stim": {"motionDirection": "in", "oriBase": -60, "oriDirection": 1, "oriStrength": "medium", "speedDirection": 1, "speedStrength": "medium", "speed_start": 0.12, "speed_end": 0.13120626553834386, "ori_start": -60, "ori_end": -55.66880838288791, "motion_direction": "in"}, "stimResponseInterval": 0.7069690451713821, "stimulusDuration": 1.5, "trial_count": 37, "ts": "motion", "exp_stage": "adaptive_procedure", "decision_var": 0.011206265538343849, "response": "down", "rt": 0.326366555003915, "FB": 0, "quest_estimate": 0.012281472243572941, "trial_time": 3.067739417005214}
{"FBDuration": 0.5, "FBonset": 0, "ITI": 0.8711542148021922, "displayFB": true, "onset": 163.9977789910674, "punishment_amount": 0, "responseWindow": 1.5, "reward_amount": 1, "stim": {"motionDirection": "out", "oriBase": -60, "oriDirection": -1, "oriStrength": "medium", "speedDirection": -1, "speedStrength": "medium", "speed_start": 0.12, "speed_end": 0.10370462035511879, "ori_start": -60, "ori_end": -64.3311916171121, "motion_direction": "out"}, "stimResponseInterval": 0.3807840569424277, "stimulusDuration": 1.5, "trial_count": 38, "ts": "motion", "exp_stage": "adaptive_procedure", "decision_var": 0.016295379644881196, "response": "down", "rt": 0.34992785699432716, "FB": 1, "quest_estimate": 0.010841583985012226, "trial_time": 2.766021906005335}
{"FBDuration": 0.5, "FBonset": 0, "ITI": 0.9285314755751977, "displayFB": true, "onset": 168.74971726281203, "punishment_amount": 0, "responseWindow": 1.5, "reward_amount": 1, "stim": {"motionDirection": "in", "oriBase": -60, "oriDirection": -1, "oriStrength": "medium", "speedDirection": 1, "speedStrength": "medium", "speed_start": 0.12, "speed_end": 0.13480021599892394, "ori_start": -60, "ori_end": -64.3311916171121, "motion_direction": "in"}, "stimResponseInterval": 0.01751700535153966, "stimulusDuration": 1.5, "trial_count": 39, "ts": "motion", "exp_stage": "adaptive_procedure", "decision_var": 0.014800215998923963, "response": "down", "rt": 0.4571812500071246, "FB": 0, "quest_estimate": 0.015868845614689542, "trial_time": 2.5100558870035456}
{"FBDuration": 0.5, "FBonset": 0, "ITI": 0.40669400743505835, "displayFB": true, "onset": 173.19576574373878, "punishment_amount": 0, "responseWindow": 1.5, "reward_amount": 1, "stim": {"motionDirection": "out", "oriBase": -60, "oriDirection": 1, "oriStrength": "medium", "speedDirection": 1, "speedStrength": "medium", "speed_start": 0.12, "speed_end": 0.13999086080088696, "ori_start": -60, "ori_end": -55.66880838288791, "motion_direction": "out"}, "stimResponseInterval": 0.19732920649817753, "stimulusDuration": 1.5, "trial_count": 40, "ts": "motion", "exp_stage": "adaptive_procedure", "decision_var": 0.01999086080088698, "response": "up", "rt": 0.40171458599797916, "FB": 1, "quest_estimate": 0.014397201656691304, "trial_time": 2.6399399030051427}
{"FBDuration": 0.5, "FBonset": 0, "ITI": 0.29931475625929294, "displayFB": true, "onset": 177.299788957672, "punishment_amount": 0, "responseWindow": 1.5, "reward_amount": 1, "stim": {"motionDirection": "in", "oriBase": 30, "oriDirection": -1, "oriStrength": "medium", "speedDirection": -1, "speedStrength": "medium", "speed_start": 0.12, "speed_end": 0.1015272640883382, "ori_start": 30, "ori_end": 25.66880838288791, "motion_direction": "in"}, "stimResponseInterval": 0.09530941589532338, "stimulusDuration": 1.5, "trial_count": 41, "ts": "motion", "exp_stage": "adaptive_procedure", "decision_var": 0.018472735911661792, "response": "down", "rt": 0.34538394000264816, "FB": 1, "quest_estimate": 0.012960600833883867, "trial_time": 2.4795336200040765}
{"FBDuration": 0.5, "FBonset": 0, "ITI": 0.35119437154688404, "displayFB": true, "onset": 181.19441312982661, "punishment_amount": 0, "responseWindow": 1.5, "reward_amount": 1, "stim": {"motionDirection": "out", "oriBase": 30, "oriDirection": 1, "oriStrength": "medium", "speedDirection": -1, "speedStrength": "medium", "speed_start": 0.12, "speed_end": 0.10301174163438094, "ori_start": 30, "ori_end": 34.33119161711209, "motion_direction": "out"}, "stimResponseInterval": 0.3855743570736162, "stimulusDuration": 1.5, "trial_count": 42, "ts": "motion", "exp_stage": "adaptive_procedure", "decision_var": 0.016988258365619055, "response": "down", "rt": 0.31054997199680656, "FB": 1, "quest_estimate": 0.011558091775525886, "trial_time": 2.728940261004027}
{"FBDuration": 0.5, "FBonset": 0, "ITI": 0.7988262534883344, "displayFB": true, "onset": 185.4311818584471, "punishment_amount": 0, "responseWindow": 1.5, "reward_amount": 1, "stim": {"motionDirection": "in", "oriBase": 30, "oriDirection": -1, "oriStrength": "medium", "speedDirection": 1, "speedStrength": "medium", "speed_start": 0.12, "speed_end": 0.1355363409633493, "ori_start": 30, "ori_end": 25.66880838288791, "motion_direction": "in"}, "stimResponseInterval": 0.012044123118137628, "stimulusDuration": 1.5, "trial_count": 43, "ts": "motion", "exp_stage": "adaptive_procedure", "decision_var": 0.015536340963349306, "response": "up", "rt": 0.5871976619964698, "FB": 1, "quest_estimate": 0.010188517067943804, "trial_time": 2.628477935999399}
{"FBDuration": 0.5, "FBonset": 0, "ITI": 0.6540563247889097, "displayFB": true, "onset": 189.74205223505356, "punishment_amount": 0, "responseWindow": 1.5, "reward_amount": 1, "stim": {"motionDirection": "in", "oriBase": 30, "oriDirection": -1, "oriStrength": "medium", "speedDirection": 1, "speedStrength": "medium", "speed_start": 0.12, "speed_end": 0.134115658516548, "ori_start": 30, "ori_end": 25.66880838288791, "motion_direction": "in"}, "stimResponseInterval": 0.07079230024999061, "stimulusDuration": 1.5, "trial_count": 44, "ts": "motion", "exp_stage": "adaptive_procedure", "decision_var": 0.014115658516548016, "response": "down", "rt": 0.6111139860004187, "FB": 0, "quest_estimate": 0.014969424769638529, "trial_time": 2.7170092489977833}
{"FBDuration": 0.5, "FBonset": 0, "ITI": 0.45632915230606974, "displayFB": true, "onset": 193.96690086009247, "punishment_amount": 0, "responseWindow": 1.5, "reward_amount": 1, "stim": {"motionDirection": "out", "oriBase": 30, "oriDirection": 1, "oriStrength": "medium", "speedDirection": 1, "speedStrength": "medium", "speed_start": 0.12, "speed_end": 0.13904385439724576, "ori_start": 30, "ori_end": 34.33119161711209, "motion_direction": "out"}, "stimResponseInterval": 0.5193285904985765, "stimulusDuration": 1.5, "trial_count": 45, "ts": "motion", "exp_stage": "adaptive_procedure", "decision_var": 0.01904385439724575, "response": "up", "rt": 0.279865324991988, "FB": 1, "quest_estimate": 0.013571630976025692, "trial_time": 2.828807390993461}
{"FBDuration": 0.5, "FBonset": 0, "ITI": 0.21466538592831896, "displayFB": true, "onset": 198.44255860289712, "punishment_amount": 0, "responseWindow": 1.5, "reward_amount": 1, "stim": {"motionDirection": "out", "oriBase": -60, "oriDirection": 1, "oriStrength": "medium", "speedDirection": 1, "speedStrength": "medium", "speed_start": 0.12, "speed_end": 0.13760297180822598, "ori_start": -60, "ori_end": -55.66880838288791, "motion_direction": "out"}, "stimResponseInterval": 0.6257386685164024, "stimulusDuration": 1.5, "trial_count": 46, "ts": "motion", "exp_stage": "adaptive_procedure", "decision_var": 0.01760297180822598, "response": "up", "rt": 0.3189112429972738, "FB": 1, "quest_estimate": 0.01220550079315054, "trial_time": 2.9845415630115895}
{"FBDuration": 0.5, "FBonset": 0, "ITI": 0.8278429261998146, "displayFB": true, "onset": 202.78296265734184, "punishment_amount": 0, "responseWindow": 1.5, "reward_amount": 1, "stim": {"motionDirection": "in", "oriBase": -60, "oriDirection": 1, "oriStrength": "medium", "speedDirection": -1, "speedStrength": "medium", "speed_start": 0.12, "speed_end": 0.10380743402235167, "ori_start": -60, "ori_end": -55.66880838288791, "motion_direction": "in"}, "stimResponseInterval": 0.049668323215779075, "stimulusDuration": 1.5, "trial_count": 47, "ts": "motion", "exp_stage": "adaptive_procedure", "decision_var": 0.01619256597764833, "response": "down", "rt": 0.46524042000237387, "FB": 1, "quest_estimate": 0.010870092882831715, "trial_time": 2.5525661569990916}
{"FBDuration": 0.5, "FBonset": 0, "ITI": 0.12648657809969566, "displayFB": true, "onset": 207.16047390675743, "punishment_amount": 0, "responseWindow": 1.5, "reward_amount": 1, "stim": {"motionDirection": "in", "oriBase": 30, "oriDirection": 1, "oriStrength": "medium", "speedDirection": 1, "speedStrength": "medium", "speed_start": 0.12, "speed_end": 0.13481139529570038, "ori_start": 30, "ori_end": 34.33119161711209, "motion_direction": "in"}, "stimResponseInterval": 0.16976921152086355, "stimulusDuration": 1.5, "trial_count": 48, "ts": "motion", "exp_stage": "adaptive_procedure", "decision_var": 0.014811395295700393, "response": "up", "rt": 0.36769250700308476, "FB": 1, "quest_estimate": 0.009564523999326592, "trial_time": 2.5792653129901737}
{"FBDuration": 0.5, "FBonset": 0, "ITI": 0.39157625739406887, "displayFB": true, "onset": 210.95672969637798, "punishment_amount": 0, "responseWindow": 1.5, "reward_amount": 1, "stim": {"motionDirection": "out", "oriBase": 30, "oriDirection": -1, "oriStrength": "medium", "speedDirection": -1, "speedStrength": "medium", "speed_start": 0.12, "speed_end": 0.10654146334936827, "ori_start": 30, "ori_end": 25.66880838288791, "motion_direction": "out"}, "stimResponseInterval": 0.949608665347514, "stimulusDuration": 1.5, "trial_count": 49, "ts": "motion", "exp_stage": "adaptive_procedure", "decision_var": 0.013458536650631722, "response": "down", "rt": 0.3777421859995229, "FB": 1, "quest_estimate": 0.008287966192647392, "trial_time": 3.3595417390024522}
{"FBDuration": 0.5, "FBonset": 0, "ITI": 0.8139107693798788, "displayFB": true, "onset": 215.79791461911955, "punishment_amount": 0, "responseWindow": 1.5, "reward_amount": 1, "stim": {"motionDirection": "in", "oriBase": 30, "oriDirection": -1, "oriStrength": "medium", "speedDirection": 1, "speedStrength": "medium", "speed_start": 0.12, "speed_end": 0.13213310487110352, "ori_start": 30, "ori_end": 25.66880838288791, "motion_direction": "in"}, "stimResponseInterval": 0.5960681602726834, "stimulusDuration": 1.5, "trial_count": 50, "ts": "motion", "exp_stage": "adaptive_procedure", "decision_var": 0.012133104871103514, "response": "up", "rt": 0.28747758199460804, "FB": 1, "quest_estimate": 0.007039643748127135, "trial_time": 2.9255975550040603}
{"FBDuration": 0.5, "FBonset": 0, "ITI": 0.7481165237328067, "displayFB": true, "onset": 220.70789354877212, "punishment_amount": 0, "responseWindow": 1.5, "reward_amount": 1, "stim": {"motionDirection": "in", "oriBase": 30, "oriDirection": 1, "oriStrength": "medium", "speedDirection": -1, "speedStrength": "medium", "speed_start": 0.12, "speed_end": 0.10916574956581915, "ori_start": 30, "ori_end": 34.33119161711209, "motion_direction": "in"}, "stimResponseInterval": 0.00962277662606259, "stimulusDuration": 1.5, "trial_count": 51, "ts": "motion", "exp_stage": "adaptive_procedure", "decision_var": 0.010834250434180848, "response": "down", "rt": 0.44069056599983014, "FB": 1, "quest_estimate": 0.0058188299607782185, "trial_time": 2.4886659780022455}
{"FBDuration": 0.5, "FBonset": 0, "ITI": 0.5032822553095948, "displayFB": true, "onset": 224.965632849131, "punishment_amount": 0, "responseWindow": 1.5, "reward_amount": 1, "stim": {"motionDirection": "in", "oriBase": 30, "oriDirection": -1, "oriStrength": "medium", "speedDirection": 1, "speedStrength": "medium", "speed_start": 0.12, "speed_end": 0.12956133769405073, "ori_start": 30, "ori_end": 25.66880838288791, "motion_direction": "in"}, "stimResponseInterval": 0.2856014058009658, "stimulusDuration": 1.5, "trial_count": 52, "ts": "motion", "exp_stage": "adaptive_procedure", "decision_var": 0.009561337694050744, "response": "down", "rt": 0.323844165992341, "FB": 0, "quest_estimate": 0.010076934950101674, "trial_time": 2.6376971550052986}
{"FBDuration": 0.5, "FBonset": 0, "ITI": 0.5907784039773034, "displayFB": true, "onset": 229.25451651024156, "punishment_amount": 0, "responseWindow": 1.5, "reward_amount": 1, "stim": {"motionDirection": "out", "oriBase": -60, "oriDirection": 1, "oriStrength": "medium", "speedDirection": 1, "speedStrength": "medium", "speed_start": 0.12, "speed_end": 0.13397573043612415, "ori_start": -60, "ori_end": -55.66880838288791, "motion_direction": "out"}, "stimResponseInterval": 0.026038863816608804, "stimulusDuration": 1.5, "trial_count": 53, "ts": "motion", "exp_stage": "adaptive_procedure", "decision_var": 0.013975730436124163, "response": "up", "rt": 0.3859482030093204, "FB": 1, "quest_estimate": 0.008830336353348824, "trial_time": 2.4535838159936247}
{"FBDuration": 0.5, "FBonset": 0, "ITI": 0.893286647992277, "displayFB": true, "onset": 233.37133377803548, "punishment_amount": 0, "responseWindow": 1.5, "reward_amount": 1, "stim": {"motionDirection": "in", "oriBase": -60, "oriDirection": -1, "oriStrength": "medium", "speedDirection": -1, "speedStrength": "medium", "speed_start": 0.12, "speed_end": 0.1073152531879616, "ori_start": -60, "ori_end": -64.3311916171121, "motion_direction": "in"}, "stimResponseInterval": 0.7792008973938205, "stimulusDuration": 1.5, "trial_count": 54, "ts": "motion", "exp_stage": "adaptive_procedure", "decision_var": 0.012684746812038392, "response": "down", "rt": 0.3133393730095122, "FB": 1, "quest_estimate": 0.00761009955422471, "trial_time": 3.1362763280048966}
{"FBDuration": 0.5, "FBonset": 0, "ITI": 0.7313575858800259, "displayFB": true, "onset": 238.54382132342158, "punishment_amount": 0, "responseWindow": 1.5, "reward_amount": 1, "stim": {"motionDirection": "in", "oriBase": -60, "oriDirection": -1, "oriStrength": "medium", "speedDirection": 1, "speedStrength": "medium", "speed_start": 0.12, "speed_end": 0.13141863180643992, "ori_start": -60, "ori_end": -64.3311916171121, "motion_direction": "in"}, "stimResponseInterval": 0.510359937470565, "stimulusDuration": 1.5, "trial_count": 55, "ts": "motion", "exp_stage": "adaptive_procedure", "decision_var": 0.011418631806439941, "response": "up", "rt": 0.27769676099705976, "FB": 1, "quest_estimate": 0.006415552467852886, "trial_time": 2.827611173997866}
{"FBDuration": 0.5, "FBonset": 0, "ITI": 0.45043184027193783, "displayFB": true, "onset": 243.28553884677217, "punishment_amount": 0, "responseWindow": 1.5, "reward_amount": 1, "stim": {"motionDirection": "in", "oriBase": -60, "oriDirection": 1, "oriStrength": "medium", "speedDirection": -1, "speedStrength": "medium", "speed_start": 0.12, "speed_end": 0.10982316163870198, "ori_start": -60, "ori_end": -55.66880838288791, "motion_direction": "in"}, "stimResponseInterval": 0.35664198963588956, "stimulusDuration": 1.5, "trial_count": 56, "ts": "motion", "exp_stage": "adaptive_procedure", "decision_var": 0.01017683836129802, "response": "down", "rt": 0.3361672000028193, "FB": 1, "quest_estimate": 0.00524606674686872, "trial_time": 2.725962914992124}
{"FBDuration": 0.5, "FBonset": 0, "ITI": 0.6378191713116168, "displayFB": true, "onset": 247.59261267668, "punishment_amount": 0, "responseWindow": 1.5, "reward_amount": 1, "stim": {"motionDirection": "out", "oriBase": -60, "oriDirection": -1, "oriStrength": "medium", "speedDirection": 1, "speedStrength": "medium", "speed_start": 0.12, "speed_end": 0.12895837041330277, "ori_start": -60, "ori_end": -64.3311916171121, "motion_direction": "out"}, "stimResponseInterval": 0.77748119377486, "stimulusDuration": 1.5, "trial_count": 57, "ts": "motion", "exp_stage": "adaptive_procedure", "decision_var": 0.00895837041330276, "response": "down", "rt": 0.28496992599684745, "FB": 0, "quest_estimate": 0.00932948140207901, "trial_time": 3.0908367129886756}
{"FBDuration": 0.5, "FBonset": 0, "ITI": 0.27071885903765625, "displayFB": true, "onset": 252.50791304176647, "punishment_amount": 0, "responseWindow": 1.5, "reward_amount": 1, "stim": {"motionDirection": "out", "oriBase": 30, "oriDirection": 1, "oriStrength": "medium", "speedDirection": -1, "speedStrength": "medium", "speed_start": 0.12, "speed_end": 0.1068137320595757, "ori_start": 30, "ori_end": 34.33119161711209, "motion_direction": "out"}, "stimResponseInterval": 0.3870707419146654, "stimulusDuration": 1.5, "trial_count": 58, "ts": "motion", "exp_stage": "adaptive_procedure", "decision_var": 0.013186267940424296, "response": "down", "rt": 0.3647674280073261, "FB": 1, "quest_estimate": 0.008136697772166052, "trial_time": 2.7834135869925376}
{"FBDuration": 0.5, "FBonset": 0, "ITI": 0.7318493669397876, "displayFB": true, "onset": 256.66570264271877, "punishment_amount": 0, "responseWindow": 1.5, "reward_amount": 1, "stim": {"motionDirection": "out", "oriBase": -60, "oriDirection": 1, "oriStrength": "medium", "speedDirection": -1, "speedStrength": "medium", "speed_start": 0.12, "speed_end": 0.10804833581778775, "ori_start": -60, "ori_end": -55.66880838288791, "motion_direction": "out"}, "stimResponseInterval": 0.6507998009825924, "stimulusDuration": 1.5, "trial_count": 59, "ts": "motion", "exp_stage": "adaptive_procedure", "decision_var": 0.011951664182212239, "response": "down", "rt": 0.2844307270133868, "FB": 1, "quest_estimate": 0.00696795565493305, "trial_time": 2.980568412996945}
{"FBDuration": 0.5, "FBonset": 0, "ITI": 0.6157674791444463, "displayFB": true, "onset": 261.5483518106411, "punishment_amount": 0, "responseWindow": 1.5, "reward_amount": 1, "stim": {"motionDirection": "in", "oriBase": -60, "oriDirection": -1, "oriStrength": "medium", "speedDirection": -1, "speedStrength": "medium", "speed_start": 0.12, "speed_end": 0.10926007514344929, "ori_start": -60, "ori_end": -64.3311916171121, "motion_direction": "in"}, "stimResponseInterval": 0.8188103978755088, "stimulusDuration": 1.5, "trial_count": 60, "ts": "motion", "exp_stage": "adaptive_procedure", "decision_var": 0.010739924856550696, "response": "down", "rt": 0.31109830099740066, "FB": 1, "quest_estimate": 0.005822791003570624, "trial_time": 3.1590800609992584}
{"FBDuration": 0.5, "FBonset": 0, "ITI": 0.24001893140090869, "displayFB": true, "onset": 266.48292968766106, "punishment_amount": 0, "responseWindow": 1.5, "reward_amount": 1, "stim": {"motionDirection": "in", "oriBase": -60, "oriDirection": 1, "oriStrength": "medium", "speedDirection": 1, "speedStrength": "medium", "speed_start": 0.12, "speed_end": 0.1295502098124352, "ori_start": -60, "ori_end": -55.66880838288791, "motion_direction": "in"}, "stimResponseInterval": 0.2414647598206081, "stimulusDuration": 1.5, "trial_count": 61, "ts": "motion", "exp_stage": "adaptive_procedure", "decision_var": 0.009550209812435213, "response": "up", "rt": 0.4257862579979701, "FB": 1, "quest_estimate": 0.004700547840685729, "trial_time": 2.696613186999457}
{"FBDuration": 0.5, "FBonset": 0, "ITI": 0.41854470774714847, "displayFB": true, "onset": 270.46441337888257, "punishment_amount": 0, "responseWindow": 1.5, "reward_amount": 1, "stim": {"motionDirection": "in", "oriBase": -60, "oriDirection": -1, "oriStrength": "medium", "speedDirection": 1, "speedStrength": "medium", "speed_start": 0.12, "speed_end": 0.12838204003289655, "ori_start": -60, "ori_end": -64.3311916171121, "motion_direction": "in"}, "stimResponseInterval": 0.07788020319134725, "stimulusDuration": 1.5, "trial_count": 62, "ts": "motion", "exp_stage": "adaptive_procedure", "decision_var": 0.00838204003289656, "response": "up", "rt": 0.38787396099360194, "FB": 1, "quest_estimate": 0.0036008264158798597, "trial_time": 2.499008187005529}
{"FBDuration": 0.5, "FBonset": 0, "ITI": 0.788468361676034, "displayFB": true, "onset": 274.4608382898211, "punishment_amount": 0, "responseWindow": 1.5, "reward_amount": 1, "stim": {"motionDirection": "out", "oriBase": -60, "oriDirection": 1, "oriStrength": "medium", "speedDirection": -1, "speedStrength": "medium", "speed_start": 0.12, "speed_end": 0.11276502598913753, "ori_start": -60, "ori_end": -55.66880838288791, "motion_direction": "out"}, "stimResponseInterval": 0.6067689727255403, "stimulusDuration": 1.5, "trial_count": 63, "ts": "motion", "exp_stage": "adaptive_procedure", "decision_var": 0.007234974010862469, "response": "down", "rt": 0.2802912430051947, "FB": 1, "quest_estimate": 0.00252315327447155, "trial_time": 2.926590887000202}
{"FBDuration": 0.5, "FBonset": 0, "ITI": 0.3664292766775068, "displayFB": true, "onset": 279.3560756242227, "punishment_amount": 0, "responseWindow": 1.5, "reward_amount": 1, "stim": {"motionDirection": "out", "oriBase": 30, "oriDirection": -1, "oriStrength": "medium", "speedDirection": -1, "speedStrength": "medium", "speed_start": 0.12, "speed_end": 0.11389157164402333, "ori_start": 30, "ori_end": 25.66880838288791, "motion_direction": "out"}, "stimResponseInterval": 0.95752525600169, "stimulusDuration": 1.5, "trial_count": 64, "ts": "motion", "exp_stage": "adaptive_procedure", "decision_var": 0.006108428355976671, "response": "down", "rt": 0.31762438800069503, "FB": 1, "quest_estimate": 0.0014669783660467353, "trial_time": 3.3119298289966537}
