{"FBDuration": 0.5, "FBonset": 0, "ITI": 0.3277879174897167, "displayFB": true, "onset": 2, "punishment_amount": 0, "responseWindow": 1.5, "reward_amount": 1, "stim": {"motionDirection": "out", "oriBase": 30, "oriDirection": -1, "oriStrength": "medium", "speedDirection": -1, "speedStrength": "medium", "speed_start": 0.12, "speed_end": 0.12456516608546228, "ori_start": 30, "ori_end": 15.284759675216637, "motion_direction": "out"}, "stimResponseInterval": 0.09289959700074124, "stimulusDuration": 1.5, "trial_count": 1, "ts": "orientation", "exp_stage": "adaptive_procedure", "decision_var": 14.715240324783363, "response": "left", "rt": 0.3878895629895851, "FB": 1, "quest_estimate": 10.158652686471193, "trial_time": 2.509470782999415}
{"FBDuration": 0.5, "FBonset": 0, "ITI": 0.6866757164976072, "displayFB": true, "onset": 5.920687514490458, "punishment_amount": 0, "responseWindow": 1.5, "reward_amount": 1, "stim": {"motionDirection": "out", "oriBase": 30, "oriDirection": 1, "oriStrength": "medium", "speedDirection": -1, "speedStrength": "medium", "speed_start": 0.12, "speed_end": 0.12456516608546228, "ori_start": 30, "ori_end": 44.66257621560755, "motion_direction": "out"}, "stimResponseInterval": 0.5738317954446033, "stimulusDuration": 1.5, "trial_count": 2, "ts": "orientation", "exp_stage": "adaptive_procedure", "decision_var": 14.662576215607553, "response": "right", "rt": 0.273109909001505, "FB": 1, "quest_estimate": 9.187393447539648, "trial_time": 2.8708256969985086}
{"FBDuration": 0.5, "FBonset": 0, "ITI": 0.9346020313777599, "displayFB": true, "onset": 10.681195026432668, "punishment_amount": 0, "responseWindow": 1.5, "reward_amount": 1, "stim": {"motionDirection": "in", "oriBase": 30, "oriDirection": 1, "oriStrength": "medium", "speedDirection": 1, "speedStrength": "medium", "speed_start": 0.12, "speed_end": 0.11543483391453771, "ori_start": 30, "ori_end": 44.59020912381634, "motion_direction": "in"}, "stimResponseInterval": 0.4481155261707074, "stimulusDuration": 1.5, "trial_count": 3, "ts": "orientation", "exp_stage": "adaptive_procedure", "decision_var": 14.590209123816335, "response": "right", "rt": 0.5216509390011197, "FB": 1, "quest_estimate": 7.917500392934045, "trial_time": 2.997588606987847}
{"FBDuration": 0.5, "FBonset": 0, "ITI": 0.13139327634352704, "displayFB": true, "onset": 15.563912583981136, "punishment_amount": 0, "responseWindow": 1.5, "reward_amount": 1, "stim": {"motionDirection": "out", "oriBase": 30, "oriDirection": 1, "oriStrength": "medium", "speedDirection": 1, "speedStrength": "medium", "speed_start": 0.12, "speed_end": 0.11543483391453771, "ori_start": 30, "ori_end": 44.4034877738242, "motion_direction": "out"}, "stimResponseInterval": 0.4212778119933651, "stimulusDuration": 1.5, "trial_count": 4, "ts": "orientation", "exp_stage": "adaptive_procedure", "decision_var": 14.403487773824203, "response": "right", "rt": 0.2595972299895948, "FB": 1, "quest_estimate": 6.332726417264546, "trial_time": 2.7073882400000002}
{"FBDuration": 0.5, "FBonset": 0, "ITI": 0.6640262560459598, "displayFB": true, "onset": 19.61658367231803, "punishment_amount": 0, "responseWindow": 1.5, "reward_amount": 1, "stim": {"motionDirection": "in", "oriBase": -60, "oriDirection": 1, "oriStrength": "medium", "speedDirection": -1, "speedStrength": "medium", "speed_start": 0.12, "speed_end": 0.12456516608546228, "ori_start": -60, "ori_end": -49.36811514286339, "motion_direction": "in"}, "stimResponseInterval": 0.20667942099132197, "stimulusDuration": 1.5, "trial_count": 5, "ts": "orientation", "exp_stage": "adaptive_procedure", "decision_var": 10.631884857136612, "response": "right", "rt": 0.3180987239902606, "FB": 1, "quest_estimate": 4.352076908526424, "trial_time": 2.5692521250020945}
{"FBDuration": 0.5, "FBonset": 0, "ITI": 0.4469055892838777, "displayFB": true, "onset": 23.98728934935531, "punishment_amount": 0, "responseWindow": 1.5, "reward_amount": 1, "stim": {"motionDirection": "out", "oriBase": 30, "oriDirection": 1, "oriStrength": "medium", "speedDirection": -1, "speedStrength": "medium", "speed_start": 0.12, "speed_end": 0.12456516608546228, "ori_start": 30, "ori_end": 36.94297834618196, "motion_direction": "out"}, "stimResponseInterval": 0.17680265349489432, "stimulusDuration": 1.5, "trial_count": 6, "ts": "orientation", "exp_stage": "adaptive_procedure", "decision_var": 6.942978346181956, "response": "left", "rt": 0.43594365200260654, "FB": 0, "quest_estimate": 11.91536331380006, "trial_time": 2.6461405139998533}
{"FBDuration": 0.5, "FBonset": 0, "ITI": 0.5370542505833251, "displayFB": true, "onset": 28.110997592134083, "punishment_amount": 0, "responseWindow": 1.5, "reward_amount": 1, "stim": {"motionDirection": "in", "oriBase": -60, "oriDirection": 1, "oriStrength": "medium", "speedDirection": 1, "speedStrength": "medium", "speed_start": 0.12, "speed_end": 0.11543483391453771, "ori_start": -60, "ori_end": -45.58321743655636, "motion_direction": "in"}, "stimResponseInterval": 0.749040513876118, "stimulusDuration": 1.5, "trial_count": 7, "ts": "orientation", "exp_stage": "adaptive_procedure", "decision_var": 14.41678256344364, "response": "right", "rt": 0.33951197600981686, "FB": 1, "quest_estimate": 11.250190030793334, "trial_time": 3.1140311130002374}
{"FBDuration": 0.5, "FBonset": 0, "ITI": 0.06249876855334202, "displayFB": true, "onset": 32.897092356593525, "punishment_amount": 0, "responseWindow": 1.5, "reward_amount": 1, "stim": {"motionDirection": "in", "oriBase": 30, "oriDirection": 1, "oriStrength": "medium", "speedDirection": -1, "speedStrength": "medium", "speed_start": 0.12, "speed_end": 0.12456516608546228, "ori_start": 30, "ori_end": 42.519872381290995, "motion_direction": "in"}, "stimResponseInterval": 0.17682020400425236, "stimulusDuration": 1.5, "trial_count": 8, "ts": "orientation", "exp_stage": "adaptive_procedure", "decision_var": 12.519872381290991, "response": "right", "rt": 0.3337605669948971, "FB": 1, "quest_estimate": 10.454142475061197, "trial_time": 2.547978692993638}
{"FBDuration": 0.5, "FBonset": 0, "ITI": 0.39363431380684255, "displayFB": true, "onset": 36.636411329151116, "punishment_amount": 0, "responseWindow": 1.5, "reward_amount": 1, "stim": {"motionDirection": "out", "oriBase": 30, "oriDirection": 1, "oriStrength": "medium", "speedDirection": 1, "speedStrength": "medium", "speed_start": 0.12, "speed_end": 0.11543483391453771, "ori_start": 30, "ori_end": 40.653148411278465, "motion_direction": "out"}, "stimResponseInterval": 0.9070173896160099, "stimulusDuration": 1.5, "trial_count": 9, "ts": "orientation", "exp_stage": "adaptive_procedure", "decision_var": 10.653148411278465, "response": "right", "rt": 0.26540899999963585, "FB": 1, "quest_estimate": 9.71568134592123, "trial_time": 3.203116762000718}
{"FBDuration": 0.5, "FBonset": 0, "ITI": 0.8680865234772157, "displayFB": true, "onset": 41.43706303257397, "punishment_amount": 0, "responseWindow": 1.5, "reward_amount": 1, "stim": {"motionDirection": "in", "oriBase": -60, "oriDirection": -1, "oriStrength": "medium", "speedDirection": -1, "speedStrength": "medium", "speed_start": 0.12, "speed_end": 0.12456516608546228, "ori_start": -60, "ori_end": -69.83701079799859, "motion_direction": "in"}, "stimResponseInterval": 0.013867532441284691, "stimulusDuration": 1.5, "trial_count": 10, "ts": "orientation", "exp_stage": "adaptive_procedure", "decision_var": 9.837010797998587, "response": "left", "rt": 0.4546124240005156, "FB": 1, "quest_estimate": 9.07270144347708, "trial_time": 2.49747387500247}
{"FBDuration": 0.5, "FBonset": 0, "ITI": 0.17307082805489193, "displayFB": true, "onset": 45.819017088492465, "punishment_amount": 0, "responseWindow": 1.5, "reward_amount": 1, "stim": {"motionDirection": "out", "oriBase": -60, "oriDirection": 1, "oriStrength": "medium", "speedDirection": 1, "speedStrength": "medium", "speed_start": 0.12, "speed_end": 0.11543483391453771, "ori_start": -60, "ori_end": -50.79619369398333, "motion_direction": "out"}, "stimResponseInterval": 0.3219616524771174, "stimulusDuration": 1.5, "trial_count": 11, "ts": "orientation", "exp_stage": "adaptive_procedure", "decision_var": 9.203806306016673, "response": "right", "rt": 0.270650411999668, "FB": 1, "quest_estimate": 8.51570690338335, "trial_time": 2.6198184410022805}
{"FBDuration": 0.5, "FBonset": 0, "ITI": 0.8322775815125323, "displayFB": true, "onset": 49.814049569024476, "punishment_amount": 0, "responseWindow": 1.5, "reward_amount": 1, "stim": {"motionDirection": "out", "oriBase": -60, "oriDirection": 1, "oriStrength": "medium", "speedDirection": 1, "speedStrength": "medium", "speed_start": 0.12, "speed_end": 0.11543483391453771, "ori_start": -60, "ori_end": -51.29411851665729, "motion_direction": "out"}, "stimResponseInterval": 0.1687601766942417, "stimulusDuration": 1.5, "trial_count": 12, "ts": "orientation", "exp_stage": "adaptive_procedure", "decision_var": 8.705881483342708, "response": "right", "rt": 0.3189013600058388, "FB": 1, "quest_estimate": 8.026127935185151, "trial_time": 2.518723961999058}
{"FBDuration": 0.5, "FBonset": 0, "ITI": 0.8171225481009496, "displayFB": true, "onset": 54.315087327231254, "punishment_amount": 0, "responseWindow": 1.5, "reward_amount": 1, "stim": {"motionDirection": "in", "oriBase": 30, "oriDirection": -1, "oriStrength": "medium", "speedDirection": -1, "speedStrength": "medium", "speed_start": 0.12, "speed_end": 0.12456516608546228, "ori_start": 30, "ori_end": 21.693562117161722, "motion_direction": "in"}, "stimResponseInterval": 0.7228441304303406, "stimulusDuration": 1.5, "trial_count": 13, "ts": "orientation", "exp_stage": "adaptive_procedure", "decision_var": 8.306437882838278, "response": "left", "rt": 0.31367149399011396, "FB": 1, "quest_estimate": 7.585461156333388, "trial_time": 3.0653510069969343}
{"FBDuration": 0.5, "FBonset": 0, "ITI": 0.5385723686339055, "displayFB": true, "onset": 59.35505400576255, "punishment_amount": 0, "responseWindow": 1.5, "reward_amount": 1, "stim": {"motionDirection": "out", "oriBase": -60, "oriDirection": -1, "oriStrength": "medium", "speedDirection": 1, "speedStrength": "medium", "speed_start": 0.12, "speed_end": 0.11543483391453771, "ori_start": -60, "ori_end": -67.98641594932853, "motion_direction": "out"}, "stimResponseInterval": 0.725861222749554, "stimulusDuration": 1.5, "trial_count": 14, "ts": "orientation", "exp_stage": "adaptive_procedure", "decision_var": 7.986415949328531, "response": "left", "rt": 0.2694730270013679, "FB": 1, "quest_estimate": 7.179584541888264, "trial_time": 3.032610960013699}
{"FBDuration": 0.5, "FBonset": 0, "ITI": 0.892815775959134, "displayFB": true, "onset": 64.119487597146, "punishment_amount": 0, "responseWindow": 1.5, "reward_amount": 1, "stim": {"motionDirection": "out", "oriBase": -60, "oriDirection": 1, "oriStrength": "medium", "speedDirection": -1, "speedStrength": "medium", "speed_start": 0.12, "speed_end": 0.12456516608546228, "ori_start": -60, "ori_end": -52.26400158159475, "motion_direction": "out"}, "stimResponseInterval": 0.29692417149993244, "stimulusDuration": 1.5, "trial_count": 15, "ts": "orientation", "exp_stage": "adaptive_procedure", "decision_var": 7.735998418405252, "response": "right", "rt": 0.3028631339984713, "FB": 1, "quest_estimate": 6.770537891113936, "trial_time": 2.6371738250018097}
{"FBDuration": 0.5, "FBonset": 0, "ITI": 0.18210840928699557, "displayFB": true, "onset": 68.80922754460506, "punishment_amount": 0, "responseWindow": 1.5, "reward_amount": 1, "stim": {"motionDirection": "in", "oriBase": -60, "oriDirection": -1, "oriStrength": "medium", "speedDirection": 1, "speedStrength": "medium", "speed_start": 0.12, "speed_end": 0.11543483391453771, "ori_start": -60, "ori_end": -67.52353786548073, "motion_direction": "in"}, "stimResponseInterval": 0.026094118753693163, "stimulusDuration": 1.5, "trial_count": 16, "ts": "orientation", "exp_stage": "adaptive_procedure", "decision_var": 7.523537865480726, "response": "left", "rt": 0.3359455909958342, "FB": 1, "quest_estimate": 6.346728668843927, "trial_time": 2.390750401013065}
{"FBDuration": 0.5, "FBonset": 0, "ITI": 0.19720770781122554, "displayFB": true, "onset": 72.51743007264575, "punishment_amount": 0, "responseWindow": 1.5, "reward_amount": 1, "stim": {"motionDirection": "in", "oriBase": 30, "oriDirection": -1, "oriStrength": "medium", "speedDirection": 1, "speedStrength": "medium", "speed_start": 0.12, "speed_end": 0.11543483391453771, "ori_start": 30, "ori_end": 22.643694320022686, "motion_direction": "in"}, "stimResponseInterval": 0.002665796810888965, "stimulusDuration": 1.5, "trial_count": 17, "ts": "orientation", "exp_stage": "adaptive_procedure", "decision_var": 7.356305679977314, "response": "left", "rt": 0.35828684900479857, "FB": 1, "quest_estimate": 5.929867096101823, "trial_time": 2.4092964330047835}
{"FBDuration": 0.5, "FBonset": 0, "ITI": 0.996703737029125, "displayFB": true, "onset": 76.21730357726787, "punishment_amount": 0, "responseWindow": 1.5, "reward_amount": 1, "stim": {"motionDirection": "in", "oriBase": 30, "oriDirection": -1, "oriStrength": "medium", "speedDirection": 1, "speedStrength": "medium", "speed_start": 0.12, "speed_end": 0.11543483391453771, "ori_start": 30, "ori_end": 22.766250786505346, "motion_direction": "in"}, "stimResponseInterval": 0.7239748199104028, "stimulusDuration": 1.5, "trial_count": 18, "ts": "orientation", "exp_stage": "adaptive_procedure", "decision_var": 7.233749213494654, "response": "left", "rt": 0.25001049299316946, "FB": 1, "quest_estimate": 5.392731753944741, "trial_time": 3.009397290996276}
{"FBDuration": 0.5, "FBonset": 0, "ITI": 0.501455818783759, "displayFB": true, "onset": 81.4379821342074, "punishment_amount": 0, "responseWindow": 1.5, "reward_amount": 1, "stim": {"motionDirection": "in", "oriBase": 30, "oriDirection": 1, "oriStrength": "medium", "speedDirection": -1, "speedStrength": "medium", "speed_start": 0.12, "speed_end": 0.12456516608546228, "ori_start": 30, "ori_end": 37.12417637733856, "motion_direction": "in"}, "stimResponseInterval": 0.4810453341449017, "stimulusDuration": 1.5, "trial_count": 19, "ts": "orientation", "exp_stage": "adaptive_procedure", "decision_var": 7.124176377338561, "response": "right", "rt": 0.45854971699009184, "FB": 1, "quest_estimate": 4.7570943603887486, "trial_time": 2.968503101001261}
{"FBDuration": 0.5, "FBonset": 0, "ITI": 0.25926253301774216, "displayFB": true, "onset": 85.92048328713607, "punishment_amount": 0, "responseWindow": 1.5, "reward_amount": 1, "stim": {"motionDirection": "out", "oriBase": 30, "oriDirection": -1, "oriStrength": "medium", "speedDirection": 1, "speedStrength": "medium", "speed_start": 0.12, "speed_end": 0.11543483391453771, "ori_start": 30, "ori_end": 22.97316116935946, "motion_direction": "out"}, "stimResponseInterval": 0.9890653223712329, "stimulusDuration": 1.5, "trial_count": 20, "ts": "orientation", "exp_stage": "adaptive_procedure", "decision_var": 7.026838830640539, "response": "left", "rt": 0.22916786999849137, "FB": 1, "quest_estimate": 3.9762266664194, "trial_time": 3.247920043999329}
{"FBDuration": 0.5, "FBonset": 0, "ITI": 0.08099461177389278, "displayFB": true, "onset": 90.66881114252504, "punishment_amount": 0, "responseWindow": 1.5, "reward_amount": 1, "stim": {"motionDirection": "in", "oriBase": -60, "oriDirection": 1, "oriStrength": "medium", "speedDirection": -1, "speedStrength": "medium", "speed_start": 0.12, "speed_end": 0.12456516608546228, "ori_start": -60, "ori_end": -53.06395532089704, "motion_direction": "in"}, "stimResponseInterval": 0.5129094012718647, "stimulusDuration": 1.5, "trial_count": 21, "ts": "orientation", "exp_stage": "adaptive_procedure", "decision_var": 6.936044679102963, "response": "right", "rt": 0.25630841599195264, "FB": 1, "quest_estimate": 3.020609820121571, "trial_time": 2.7977663499914343}
{"FBDuration": 0.5, "FBonset": 0, "ITI": 0.1479199675914773, "displayFB": true, "onset": 94.7627151555708, "punishment_amount": 0, "responseWindow": 1.5, "reward_amount": 1, "stim": {"motionDirection": "in", "oriBase": -60, "oriDirection": 1, "oriStrength": "medium", "speedDirection": 1, "speedStrength": "medium", "speed_start": 0.12, "speed_end": 0.11543483391453771, "ori_start": -60, "ori_end": -53.167436106043056, "motion_direction": "in"}, "stimResponseInterval": 0.18821805891722154, "stimulusDuration": 1.5, "trial_count": 22, "ts": "orientation", "exp_stage": "adaptive_procedure", "decision_var": 6.832563893956948, "response": "right", "rt": 0.27346204899367876, "FB": 1, "quest_estimate": 1.9389934129896993, "trial_time": 2.4944876660010777}
{"FBDuration": 0.5, "FBonset": 0, "ITI": 0.433529052732584, "displayFB": true, "onset": 98.5988531820795, "punishment_amount": 0, "responseWindow": 1.5, "reward_amount": 1, "stim": {"motionDirection": "in", "oriBase": -60, "oriDirection": -1, "oriStrength": "medium", "speedDirection": -1, "speedStrength": "medium", "speed_start": 0.12, "speed_end": 0.12456516608546228, "ori_start": -60, "ori_end": -65.9427545267907, "motion_direction": "in"}, "stimResponseInterval": 0.3216613418740393, "stimulusDuration": 1.5, "trial_count": 23, "ts": "orientation", "exp_stage": "adaptive_procedure", "decision_var": 5.942754526790697, "response": "left", "rt": 0.2831233069882728, "FB": 1, "quest_estimate": 0.6271739442438822, "trial_time": 2.6335062150028534}
{"FBDuration": 0.5, "FBonset": 0, "ITI": 0.7911626549448698, "displayFB": true, "onset": 102.85404357668612, "punishment_amount": 0, "responseWindow": 1.5, "reward_amount": 1, "stim": {"motionDirection": "out", "oriBase": -60, "oriDirection": -1, "oriStrength": "medium", "speedDirection": -1, "speedStrength": "medium", "speed_start": 0.12, "speed_end": 0.12456516608546228, "ori_start": -60, "ori_end": -63.02538996543471, "motion_direction": "out"}, "stimResponseInterval": 0.9619904500726537, "stimulusDuration": 1.5, "trial_count": 24, "ts": "orientation", "exp_stage": "adaptive_procedure", "decision_var": 3.025389965434716, "response": "left", "rt": 0.23099361000640783, "FB": 1, "quest_estimate": -0.7828404067053292, "trial_time": 3.2326325939939125}
{"FBDuration": 0.5, "FBonset": 0, "ITI": 0.4256463349994657, "displayFB": true, "onset": 108.10719668170364, "punishment_amount": 0, "responseWindow": 1.5, "reward_amount": 1, "stim": {"motionDirection": "out", "oriBase": -60, "oriDirection": 1, "oriStrength": "medium", "speedDirection": -1, "speedStrength": "medium", "speed_start": 0.12, "speed_end": 0.12456516608546228, "ori_start": -60, "ori_end": -59.39729079308405, "motion_direction": "out"}, "stimResponseInterval": 0.40229027513490623, "stimulusDuration": 1.5, "trial_count": 25, "ts": "orientation", "exp_stage": "adaptive_procedure", "decision_var": 0.602709206915943, "response": "right", "rt": 0.270958672001143, "FB": 1, "quest_estimate": -2.1507879473207083, "trial_time": 2.707852270003059}
{"FBDuration": 0.5, "FBonset": 0, "ITI": 0.058369403918913654, "displayFB": true, "onset": 112.43513329183801, "punishment_amount": 0, "responseWindow": 1.5, "reward_amount": 1, "stim": {"motionDirection": "out", "oriBase": -60, "oriDirection": -1, "oriStrength": "medium", "speedDirection": -1, "speedStrength": "medium", "speed_start": 0.12, "speed_end": 0.12456516608546228, "ori_start": -60, "ori_end": -60.0001, "motion_direction": "out"}, "stimResponseInterval": 0.11826542488517566, "stimulusDuration": 1.5, "trial_count": 26, "ts": "orientation", "exp_stage": "adaptive_procedure", "decision_var": 0.0001, "response": "right", "rt": 0.35622911699465476, "FB": 0, "quest_estimate": 3.716324984672376, "trial_time": 2.511827534995973}
{"FBDuration": 0.5, "FBonset": 0, "ITI": 0.07670531915490697, "displayFB": true, "onset": 116.1117681206421, "punishment_amount": 0, "responseWindow": 1.5, "reward_amount": 1, "stim": {"motionDirection": "out", "oriBase": -60, "oriDirection": -1, "oriStrength": "medium", "speedDirection": 1, "speedStrength": "medium", "speed_start": 0.12, "speed_end": 0.11543483391453771, "ori_start": -60, "ori_end": -64.75047302874162, "motion_direction": "out"}, "stimResponseInterval": 0.34464325490229886, "stimulusDuration": 1.5, "trial_count": 27, "ts": "orientation", "exp_stage": "adaptive_procedure", "decision_var": 4.750473028741627, "response": "left", "rt": 0.31248792199767195, "FB": 1, "quest_estimate": 2.951248184165266, "trial_time": 2.683719426000607}
{"FBDuration": 0.5, "FBonset": 0, "ITI": 0.7741518681798141, "displayFB": true, "onset": 120.0331166946993, "punishment_amount": 0, "responseWindow": 1.5, "reward_amount": 1, "stim": {"motionDirection": "in", "oriBase": 30, "oriDirection": -1, "oriStrength": "medium", "speedDirection": -1, "speedStrength": "medium", "speed_start": 0.12, "speed_end": 0.12456516608546228, "ori_start": 30, "ori_end": 27.003137523598557, "motion_direction": "in"}, "stimResponseInterval": 0.04678406586962791, "stimulusDuration": 1.5, "trial_count": 28, "ts": "orientation", "exp_stage": "adaptive_procedure", "decision_var": 2.996862476401443, "response": "left", "rt": 0.3734847970044939, "FB": 1, "quest_estimate": 2.250946557960958, "trial_time": 2.457226009995793}
{"FBDuration": 0.5, "FBonset": 0, "ITI": 0.505964302270153, "displayFB": true, "onset": 124.35405262874875, "punishment_amount": 0, "responseWindow": 1.5, "reward_amount": 1, "stim": {"motionDirection": "in", "oriBase": -60, "oriDirection": -1, "oriStrength": "medium", "speedDirection": 1, "speedStrength": "medium", "speed_start": 0.12, "speed_end": 0.11543483391453771, "ori_start": -60, "ori_end": -62.21475859334295, "motion_direction": "in"}, "stimResponseInterval": 0.7834746741738303, "stimulusDuration": 1.5, "trial_count": 29, "ts": "orientation", "exp_stage": "adaptive_procedure", "decision_var": 2.214758593342953, "response": "left", "rt": 0.2971818060032092, "FB": 1, "quest_estimate": 1.6576110388453316, "trial_time": 3.1124221139907604}
{"FBDuration": 0.5, "FBonset": 0, "ITI": 0.5511195731017655, "displayFB": true, "onset": 129.14349160519274, "punishment_amount": 0, "responseWindow": 1.5, "reward_amount": 1, "stim": {"motionDirection": "in", "oriBase": 30, "oriDirection": 1, "oriStrength": "medium", "speedDirection": 1, "speedStrength": "medium", "speed_start": 0.12, "speed_end": 0.11543483391453771, "ori_start": 30, "ori_end": 31.608097672685947, "motion_direction": "in"}, "stimResponseInterval": 0.4506193306349593, "stimulusDuration": 1.5, "trial_count": 30, "ts": "orientation", "exp_stage": "adaptive_procedure", "decision_var": 1.6080976726859468, "response": "right", "rt": 0.40958366500854027, "FB": 1, "quest_estimate": 1.1573596782308755, "trial_time": 2.8841583210014505}
{"FBDuration": 0.5, "FBonset": 0, "ITI": 0.7345795961493542, "displayFB": true, "onset": 133.64523050892947, "punishment_amount": 0, "responseWindow": 1.5, "reward_amount": 1, "stim": {"motionDirection": "out", "oriBase": 30, "oriDirection": -1, "oriStrength": "medium", "speedDirection": 1, "speedStrength": "medium", "speed_start": 0.12, "speed_end": 0.11543483391453771, "ori_start": 30, "ori_end": 28.87658571428383, "motion_direction": "out"}, "stimResponseInterval": 0.06570934995421451, "stimulusDuration": 1.5, "trial_count": 31, "ts": "orientation", "exp_stage": "adaptive_procedure", "decision_var": 1.1234142857161693, "response": "left", "rt": 0.3271431750035845, "FB": 1, "quest_estimate": 0.7336512291378376, "trial_time": 2.42924604700238}
{"FBDuration": 0.5, "FBonset": 0, "ITI": 0.8404780239456495, "displayFB": true, "onset": 137.94551945503304, "punishment_amount": 0, "responseWindow": 1.5, "reward_amount": 1, "stim": {"motionDirection": "out", "oriBase": 30, "oriDirection": -1, "oriStrength": "medium", "speedDirection": -1, "speedStrength": "medium", "speed_start": 0.12, "speed_end": 0.12456516608546228, "ori_start": 30, "ori_end": 29.252281858206356, "motion_direction": "out"}, "stimResponseInterval": 0.12935017861307818, "stimulusDuration": 1.5, "trial_count": 32, "ts": "orientation", "exp_stage": "adaptive_procedure", "decision_var": 0.7477181417936443, "response": "left", "rt": 0.3372887820005417, "FB": 1, "quest_estimate": 0.36714757489572136, "trial_time": 2.5011720659967978}
