{"stimulusDuration": 2, "reward_amount": 1, "FBonset": 0.5, "stim": {"ori_start": 30, "motion_direction": "out", "speed_end": 0.020000000000000004, "oriDirection": -1, "oriBase": 30, "motionDirection": "out", "speedDirection": -1, "speedStrength": "easy", "speed_start": 0.1, "oriStrength": "easy", "ori_end": 5}, "ITI": 1.5390503027586626, "rt": 14.214812994003296, "FBDuration": 0.5, "trial_count": 1, "ts": "motion", "response": "down", "onset": 2, "quest_estimate": 0.07513955595040522, "FB": 1, "displayFB": true, "actualOnsetTime": 2.000838041305542, "punishment_amount": 0, "responseWindow": 1.5, "decision_var": 0.08, "stimResponseInterval": 1}
{"stimulusDuration": 2, "reward_amount": 1, "FBonset": 0.5, "stim": {"ori_start": -60, "motion_direction": "out", "speed_end": 0.1826304674049395, "oriDirection": -1, "oriBase": -60, "motionDirection": "out", "speedDirection": 1, "speedStrength": "easy", "speed_start": 0.1, "oriStrength": "easy", "ori_end": -85}, "ITI": 1.8059688487732997, "rt": 21.144381999969482, "FBDuration": 0.5, "trial_count": 2, "ts": "motion", "response": "up", "onset": 9.039050302758662, "quest_estimate": 0.07074226661709054, "FB": 1, "displayFB": true, "actualOnsetTime": 9.039873123168945, "punishment_amount": 0, "responseWindow": 1.5, "decision_var": 0.0826304674049395, "stimResponseInterval": 1}
{"stimulusDuration": 2, "reward_amount": 1, "FBonset": 0.5, "stim": {"ori_start": -60, "motion_direction": "out", "speed_end": 0.060000000000000005, "oriDirection": -1, "oriBase": -60, "motionDirection": "out", "speedDirection": -1, "speedStrength": "hard", "speed_start": 0.1, "oriStrength": "easy", "ori_end": -85}, "ITI": 1.4826726634151983, "rt": NaN, "FBDuration": 0.5, "trial_count": 3, "ts": "motion", "response": NaN, "onset": 16.34501915153196, "FB": NaN, "displayFB": true, "actualOnsetTime": 16.345882177352905, "punishment_amount": 0, "responseWindow": 1.5, "decision_var": 0.04, "stimResponseInterval": 1}
{"stimulusDuration": 2, "reward_amount": 1, "FBonset": 0.5, "stim": {"ori_start": -60, "motion_direction": "out", "speed_end": 0.16445142521657316, "oriDirection": 1, "oriBase": -60, "motionDirection": "out", "speedDirection": 1, "speedStrength": "hard", "speed_start": 0.1, "oriStrength": "hard", "ori_end": -45}, "ITI": 1.9417798661904278, "rt": 35.29144310951233, "FBDuration": 0.5, "trial_count": 4, "ts": "motion", "response": "up", "onset": 23.32769181494716, "quest_estimate": 0.050877682941602526, "FB": 1, "displayFB": true, "actualOnsetTime": 23.328665018081665, "punishment_amount": 0, "responseWindow": 1.5, "decision_var": 0.06445142521657315, "stimResponseInterval": 1}
{"stimulusDuration": 2, "reward_amount": 1, "FBonset": 0.5, "stim": {"ori_start": -60, "motion_direction": "out", "speed_end": 0.022340721883174874, "oriDirection": 1, "oriBase": -60, "motionDirection": "out", "speedDirection": -1, "speedStrength": "easy", "speed_start": 0.1, "oriStrength": "easy", "ori_end": -35}, "ITI": 1.4593107741225757, "rt": 42.7624671459198, "FBDuration": 0.5, "trial_count": 5, "ts": "motion", "response": "down", "onset": 30.76947168113759, "quest_estimate": 0.06646543233005886, "FB": 1, "displayFB": true, "actualOnsetTime": 30.770254135131836, "punishment_amount": 0, "responseWindow": 1.5, "decision_var": 0.07765927811682513, "stimResponseInterval": 1}
{"stimulusDuration": 2, "reward_amount": 1, "FBonset": 0.5, "stim": {"ori_start": 30, "motion_direction": "in", "speed_end": 0.04253135281561177, "oriDirection": -1, "oriBase": 30, "motionDirection": "in", "speedDirection": -1, "speedStrength": "hard", "speed_start": 0.1, "oriStrength": "easy", "ori_end": 5}, "ITI": 1.2797838515496691, "rt": 49.70098805427551, "FBDuration": 0.5, "trial_count": 6, "ts": "motion", "response": "down", "onset": 37.728782455260166, "quest_estimate": 0.04463469749505482, "FB": 1, "displayFB": true, "actualOnsetTime": 37.729480028152466, "punishment_amount": 0, "responseWindow": 1.5, "decision_var": 0.05746864718438824, "stimResponseInterval": 1}
{"stimulusDuration": 2, "reward_amount": 1, "FBonset": 0.5, "stim": {"ori_start": 30, "motion_direction": "in", "speed_end": 0.17287961575522343, "oriDirection": -1, "oriBase": 30, "motionDirection": "in", "speedDirection": 1, "speedStrength": "easy", "speed_start": 0.1, "oriStrength": "hard", "ori_end": 15}, "ITI": 1.710449453911417, "rt": 56.607882022857666, "FBDuration": 0.5, "trial_count": 7, "ts": "motion", "response": "up", "onset": 44.50856630680983, "quest_estimate": 0.0623361352527113, "FB": 1, "displayFB": true, "actualOnsetTime": 44.50943207740784, "punishment_amount": 0, "responseWindow": 1.5, "decision_var": 0.0728796157552234, "stimResponseInterval": 1}
{"stimulusDuration": 2, "reward_amount": 1, "FBonset": 0.5, "stim": {"ori_start": 30, "motion_direction": "out", "speed_end": 0.16830570767244865, "oriDirection": -1, "oriBase": 30, "motionDirection": "out", "speedDirection": 1, "speedStrength": "easy", "speed_start": 0.1, "oriStrength": "easy", "ori_end": 5}, "ITI": 1.496929396113924, "rt": 63.69721603393555, "FBDuration": 0.5, "trial_count": 8, "ts": "motion", "response": "up", "onset": 51.71901576072125, "quest_estimate": 0.058363581894369874, "FB": 1, "displayFB": true, "actualOnsetTime": 51.7197151184082, "punishment_amount": 0, "responseWindow": 1.5, "decision_var": 0.06830570767244865, "stimResponseInterval": 1}
{"stimulusDuration": 2, "reward_amount": 1, "FBonset": 0.5, "stim": {"ori_start": 30, "motion_direction": "in", "speed_end": 0.150552184272828, "oriDirection": -1, "oriBase": 30, "motionDirection": "in", "speedDirection": 1, "speedStrength": "hard", "speed_start": 0.1, "oriStrength": "hard", "ori_end": 15}, "ITI": 1.838823482275551, "rt": 70.72382807731628, "FBDuration": 0.5, "trial_count": 9, "ts": "motion", "response": "up", "onset": 58.715945156835176, "quest_estimate": 0.03844669150605147, "FB": 1, "displayFB": true, "actualOnsetTime": 58.71672010421753, "punishment_amount": 0, "responseWindow": 1.5, "decision_var": 0.05055218427282798, "stimResponseInterval": 1}
{"stimulusDuration": 2, "reward_amount": 1, "FBonset": 0.5, "stim": {"ori_start": -60, "motion_direction": "in", "speed_end": 0.03606712484861413, "oriDirection": -1, "oriBase": -60, "motionDirection": "in", "speedDirection": -1, "speedStrength": "easy", "speed_start": 0.1, "oriStrength": "hard", "ori_end": -75}, "ITI": 1.1217953436752715, "rt": 78.0743761062622, "FBDuration": 0.5, "trial_count": 10, "ts": "motion", "response": "down", "onset": 66.05476863911073, "quest_estimate": 0.05456963119234223, "FB": 1, "displayFB": true, "actualOnsetTime": 66.05532598495483, "punishment_amount": 0, "responseWindow": 1.5, "decision_var": 0.06393287515138588, "stimResponseInterval": 1}
{"stimulusDuration": 2, "reward_amount": 1, "FBonset": 0.5, "stim": {"ori_start": 30, "motion_direction": "out", "speed_end": 0.05621311691344318, "oriDirection": -1, "oriBase": 30, "motionDirection": "out", "speedDirection": -1, "speedStrength": "hard", "speed_start": 0.1, "oriStrength": "easy", "ori_end": 5}, "ITI": 1.6614895762082709, "rt": 84.61590909957886, "FBDuration": 0.5, "trial_count": 11, "ts": "motion", "response": "down", "onset": 72.676563982786, "quest_estimate": 0.03239368949660199, "FB": 1, "displayFB": true, "actualOnsetTime": 72.67734098434448, "punishment_amount": 0, "responseWindow": 1.5, "decision_var": 0.04378688308655682, "stimResponseInterval": 1}
{"stimulusDuration": 2, "reward_amount": 1, "FBonset": 0.5, "stim": {"ori_start": -60, "motion_direction": "in", "speed_end": 0.040227124970548464, "oriDirection": 1, "oriBase": -60, "motionDirection": "in", "speedDirection": -1, "speedStrength": "easy", "speed_start": 0.1, "oriStrength": "hard", "ori_end": -45}, "ITI": 1.6199048761913624, "rt": 91.79273700714111, "FBDuration": 0.5, "trial_count": 12, "ts": "motion", "response": "down", "onset": 79.83805355899428, "quest_estimate": 0.05095104747371412, "FB": 1, "displayFB": true, "actualOnsetTime": 79.83862709999084, "punishment_amount": 0, "responseWindow": 1.5, "decision_var": 0.05977287502945154, "stimResponseInterval": 1}
{"stimulusDuration": 2, "reward_amount": 1, "FBonset": 0.5, "stim": {"ori_start": 30, "motion_direction": "in", "speed_end": 0.15581237911859444, "oriDirection": -1, "oriBase": 30, "motionDirection": "in", "speedDirection": 1, "speedStrength": "easy", "speed_start": 0.1, "oriStrength": "easy", "ori_end": 5}, "ITI": 1.5137021658910184, "rt": 98.93888902664185, "FBDuration": 0.5, "trial_count": 13, "ts": "motion", "response": "up", "onset": 86.95795843518563, "quest_estimate": 0.047509989674427475, "FB": 1, "displayFB": true, "actualOnsetTime": 86.95863914489746, "punishment_amount": 0, "responseWindow": 1.5, "decision_var": 0.055812379118594435, "stimResponseInterval": 1}
{"stimulusDuration": 2, "reward_amount": 1, "FBonset": 0.5, "stim": {"ori_start": 30, "motion_direction": "in", "speed_end": 0.04795318876079166, "oriDirection": 1, "oriBase": 30, "motionDirection": "in", "speedDirection": -1, "speedStrength": "easy", "speed_start": 0.1, "oriStrength": "hard", "ori_end": 45}, "ITI": 1.2200629948343158, "rt": 106.297767162323, "FBDuration": 0.5, "trial_count": 14, "ts": "motion", "response": "down", "onset": 93.97166060107665, "quest_estimate": 0.04424526508070423, "FB": 1, "displayFB": true, "actualOnsetTime": 93.9724349975586, "punishment_amount": 0, "responseWindow": 1.5, "decision_var": 0.052046811239208346, "stimResponseInterval": 1}
{"stimulusDuration": 2, "reward_amount": 1, "FBonset": 0.5, "stim": {"ori_start": 30, "motion_direction": "out", "speed_end": 0.13723980363797358, "oriDirection": -1, "oriBase": 30, "motionDirection": "out", "speedDirection": 1, "speedStrength": "hard", "speed_start": 0.1, "oriStrength": "easy", "ori_end": 5}, "ITI": 1.985498833632957, "rt": 112.67202305793762, "FBDuration": 0.5, "trial_count": 15, "ts": "motion", "response": "up", "onset": 100.69172359591097, "quest_estimate": 0.026538076548682565, "FB": 1, "displayFB": true, "actualOnsetTime": 100.69259405136108, "punishment_amount": 0, "responseWindow": 1.5, "decision_var": 0.03723980363797357, "stimResponseInterval": 1}
{"stimulusDuration": 2, "reward_amount": 1, "FBonset": 0.5, "stim": {"ori_start": -60, "motion_direction": "out", "speed_end": 0.05152957510650514, "oriDirection": 1, "oriBase": -60, "motionDirection": "out", "speedDirection": -1, "speedStrength": "easy", "speed_start": 0.1, "oriStrength": "easy", "ori_end": -35}, "ITI": 1.0678167144978161, "rt": 120.14301419258118, "FBDuration": 0.5, "trial_count": 16, "ts": "motion", "response": "down", "onset": 108.17722242954393, "quest_estimate": 0.0411534151341734, "FB": 1, "displayFB": true, "actualOnsetTime": 108.17792510986328, "punishment_amount": 0, "responseWindow": 1.5, "decision_var": 0.048470424893494866, "stimResponseInterval": 1}
{"stimulusDuration": 2, "reward_amount": 1, "FBonset": 0.5, "stim": {"ori_start": 30, "motion_direction": "in", "speed_end": 0.13095293185139376, "oriDirection": -1, "oriBase": 30, "motionDirection": "in", "speedDirection": 1, "speedStrength": "hard", "speed_start": 0.1, "oriStrength": "easy", "ori_end": 5}, "ITI": 1.4747950338874252, "rt": 126.67731213569641, "FBDuration": 0.5, "trial_count": 17, "ts": "motion", "response": "up", "onset": 114.74503914404175, "quest_estimate": 0.020924076492130014, "FB": 1, "displayFB": true, "actualOnsetTime": 114.74575304985046, "punishment_amount": 0, "responseWindow": 1.5, "decision_var": 0.030952931851393743, "stimResponseInterval": 1}
{"stimulusDuration": 2, "reward_amount": 1, "FBonset": 0.5, "stim": {"ori_start": 30, "motion_direction": "out", "speed_end": 0.14507696659619918, "oriDirection": 1, "oriBase": 30, "motionDirection": "out", "speedDirection": 1, "speedStrength": "easy", "speed_start": 0.1, "oriStrength": "hard", "ori_end": 45}, "ITI": 1.2911926455104203, "rt": 133.60767197608948, "FBDuration": 0.5, "trial_count": 18, "ts": "motion", "response": "up", "onset": 121.71983417792919, "quest_estimate": 0.03822273732581393, "FB": 1, "displayFB": true, "actualOnsetTime": 121.72073197364807, "punishment_amount": 0, "responseWindow": 1.5, "decision_var": 0.04507696659619916, "stimResponseInterval": 1}
{"stimulusDuration": 2, "reward_amount": 1, "FBonset": 0.5, "stim": {"ori_start": -60, "motion_direction": "in", "speed_end": 0.0750510175658233, "oriDirection": -1, "oriBase": -60, "motionDirection": "in", "speedDirection": -1, "speedStrength": "hard", "speed_start": 0.1, "oriStrength": "easy", "ori_end": -85}, "ITI": 1.124988268629094, "rt": 140.40951204299927, "FBDuration": 0.5, "trial_count": 19, "ts": "motion", "response": "down", "onset": 128.5110268234396, "quest_estimate": 0.015579737556746881, "FB": 1, "displayFB": true, "actualOnsetTime": 128.5117449760437, "punishment_amount": 0, "responseWindow": 1.5, "decision_var": 0.02494898243417671, "stimResponseInterval": 1}
{"stimulusDuration": 2, "reward_amount": 1, "FBonset": 0.5, "stim": {"ori_start": -60, "motion_direction": "out", "speed_end": 0.05814773007920284, "oriDirection": 1, "oriBase": -60, "motionDirection": "out", "speedDirection": -1, "speedStrength": "easy", "speed_start": 0.1, "oriStrength": "hard", "ori_end": -45}, "ITI": 1.2572253164319525, "rt": 147.01447319984436, "FBDuration": 0.5, "trial_count": 20, "ts": "motion", "response": "down", "onset": 135.1360150920687, "quest_estimate": 0.03544868261526506, "FB": 1, "displayFB": true, "actualOnsetTime": 135.1367950439453, "punishment_amount": 0, "responseWindow": 1.5, "decision_var": 0.041852269920797165, "stimResponseInterval": 1}
{"stimulusDuration": 2, "reward_amount": 1, "FBonset": 0.5, "stim": {"ori_start": -60, "motion_direction": "in", "speed_end": 0.13879130936025036, "oriDirection": -1, "oriBase": -60, "motionDirection": "in", "speedDirection": 1, "speedStrength": "easy", "speed_start": 0.1, "oriStrength": "hard", "ori_end": -75}, "ITI": 1.9009707925406847, "rt": 153.88274502754211, "FBDuration": 0.5, "trial_count": 21, "ts": "motion", "response": "up", "onset": 141.89324040850065, "quest_estimate": 0.03282614457761588, "FB": 1, "displayFB": true, "actualOnsetTime": 141.89395403862, "punishment_amount": 0, "responseWindow": 1.5, "decision_var": 0.03879130936025037, "stimResponseInterval": 1}
{"stimulusDuration": 2, "reward_amount": 1, "FBonset": 0.5, "stim": {"ori_start": -60, "motion_direction": "in", "speed_end": 0.11923762603293973, "oriDirection": 1, "oriBase": -60, "motionDirection": "in", "speedDirection": 1, "speedStrength": "hard", "speed_start": 0.1, "oriStrength": "easy", "ori_end": -35}, "ITI": 1.3261929745460748, "rt": 161.20317816734314, "FBDuration": 0.5, "trial_count": 22, "ts": "motion", "response": "up", "onset": 149.29421120104132, "quest_estimate": 0.010520216176836416, "FB": 1, "displayFB": true, "actualOnsetTime": 149.2950279712677, "punishment_amount": 0, "responseWindow": 1.5, "decision_var": 0.019237626032939725, "stimResponseInterval": 1}
{"stimulusDuration": 2, "reward_amount": 1, "FBonset": 0.5, "stim": {"ori_start": 30, "motion_direction": "out", "speed_end": 0.08617934209045316, "oriDirection": 1, "oriBase": 30, "motionDirection": "out", "speedDirection": -1, "speedStrength": "hard", "speed_start": 0.1, "oriStrength": "hard", "ori_end": 45}, "ITI": 1.9954254876370074, "rt": 168.061537027359, "FBDuration": 0.5, "trial_count": 23, "ts": "motion", "response": "down", "onset": 156.1204041755874, "quest_estimate": 0.005751271556522983, "FB": 1, "displayFB": true, "actualOnsetTime": 156.12111711502075, "punishment_amount": 0, "responseWindow": 1.5, "decision_var": 0.013820657909546848, "stimResponseInterval": 1}
{"stimulusDuration": 2, "reward_amount": 1, "FBonset": 0.5, "stim": {"ori_start": -60, "motion_direction": "out", "speed_end": 0.09130449204275135, "oriDirection": 1, "oriBase": -60, "motionDirection": "out", "speedDirection": -1, "speedStrength": "hard", "speed_start": 0.1, "oriStrength": "easy", "ori_end": -35}, "ITI": 1.7680261683242602, "rt": 175.53435516357422, "FBDuration": 0.5, "trial_count": 24, "ts": "motion", "response": "down", "onset": 163.61582966322442, "quest_estimate": 0.0012784875561165782, "FB": 1, "displayFB": true, "actualOnsetTime": 163.61668014526367, "punishment_amount": 0, "responseWindow": 1.5, "decision_var": 0.008695507957248667, "stimResponseInterval": 1}
{"stimulusDuration": 2, "reward_amount": 1, "FBonset": 0.5, "stim": {"ori_start": 30, "motion_direction": "in", "speed_end": 0.064110755916513, "oriDirection": -1, "oriBase": 30, "motionDirection": "in", "speedDirection": -1, "speedStrength": "easy", "speed_start": 0.1, "oriStrength": "hard", "ori_end": 15}, "ITI": 1.88032265032653, "rt": 182.81602716445923, "FBDuration": 0.5, "trial_count": 25, "ts": "motion", "response": "down", "onset": 170.8838558315487, "quest_estimate": 0.030349715796913555, "FB": 1, "displayFB": true, "actualOnsetTime": 170.8845009803772, "punishment_amount": 0, "responseWindow": 1.5, "decision_var": 0.03588924408348701, "stimResponseInterval": 1}
{"stimulusDuration": 2, "reward_amount": 1, "FBonset": 0.5, "stim": {"ori_start": -60, "motion_direction": "in", "speed_end": 0.09613530464523642, "oriDirection": 1, "oriBase": -60, "motionDirection": "in", "speedDirection": -1, "speedStrength": "hard", "speed_start": 0.1, "oriStrength": "easy", "ori_end": -35}, "ITI": 1.2168605055131367, "rt": 190.1942160129547, "FBDuration": 0.5, "trial_count": 26, "ts": "motion", "response": "up", "onset": 178.2641784818752, "quest_estimate": 0.01126286585948558, "FB": 0, "displayFB": true, "actualOnsetTime": 178.26498103141785, "punishment_amount": 0, "responseWindow": 1.5, "decision_var": 0.003864695354763588, "stimResponseInterval": 1}
{"stimulusDuration": 2, "reward_amount": 1, "FBonset": 0.5, "stim": {"ori_start": -60, "motion_direction": "out", "speed_end": 0.11462900119934977, "oriDirection": 1, "oriBase": -60, "motionDirection": "out", "speedDirection": 1, "speedStrength": "hard", "speed_start": 0.1, "oriStrength": "hard", "ori_end": -45}, "ITI": 1.1026662505555298, "rt": 196.95935201644897, "FBDuration": 0.5, "trial_count": 27, "ts": "motion", "response": "up", "onset": 184.98103898738833, "quest_estimate": 0.0069627943574599935, "FB": 1, "displayFB": true, "actualOnsetTime": 184.98166608810425, "punishment_amount": 0, "responseWindow": 1.5, "decision_var": 0.014629001199349762, "stimResponseInterval": 1}
{"stimulusDuration": 2, "reward_amount": 1, "FBonset": 0.5, "stim": {"ori_start": 30, "motion_direction": "out", "speed_end": 0.06685881581269557, "oriDirection": 1, "oriBase": 30, "motionDirection": "out", "speedDirection": -1, "speedStrength": "easy", "speed_start": 0.1, "oriStrength": "hard", "ori_end": 45}, "ITI": 1.8910491087657866, "rt": 203.56317520141602, "FBDuration": 0.5, "trial_count": 28, "ts": "motion", "response": "down", "onset": 191.58370523794386, "quest_estimate": 0.02800844639828782, "FB": 1, "displayFB": true, "actualOnsetTime": 191.58438205718994, "punishment_amount": 0, "responseWindow": 1.5, "decision_var": 0.03314118418730444, "stimResponseInterval": 1}
{"stimulusDuration": 2, "reward_amount": 1, "FBonset": 0.5, "stim": {"ori_start": 30, "motion_direction": "in", "speed_end": 0.1100762905249466, "oriDirection": -1, "oriBase": 30, "motionDirection": "in", "speedDirection": 1, "speedStrength": "hard", "speed_start": 0.1, "oriStrength": "hard", "ori_end": 15}, "ITI": 1.3111558903015177, "rt": 210.86075901985168, "FBDuration": 0.5, "trial_count": 29, "ts": "motion", "response": "up", "onset": 198.97475434670966, "quest_estimate": 0.002885338748005971, "FB": 1, "displayFB": true, "actualOnsetTime": 198.97541213035583, "punishment_amount": 0, "responseWindow": 1.5, "decision_var": 0.010076290524946584, "stimResponseInterval": 1}
{"stimulusDuration": 2, "reward_amount": 1, "FBonset": 0.5, "stim": {"ori_start": 30, "motion_direction": "out", "speed_end": 0.13053614849399184, "oriDirection": 1, "oriBase": 30, "motionDirection": "out", "speedDirection": 1, "speedStrength": "easy", "speed_start": 0.1, "oriStrength": "hard", "ori_end": 45}, "ITI": 1.3816645183460654, "rt": 217.7204132080078, "FBDuration": 0.5, "trial_count": 30, "ts": "motion", "response": "up", "onset": 205.78591023701117, "quest_estimate": 0.025792568704277076, "FB": 1, "displayFB": true, "actualOnsetTime": 205.786700963974, "punishment_amount": 0, "responseWindow": 1.5, "decision_var": 0.03053614849399184, "stimResponseInterval": 1}
{"stimulusDuration": 2, "reward_amount": 1, "FBonset": 0.5, "stim": {"ori_start": 30, "motion_direction": "out", "speed_end": 0.09426247372903221, "oriDirection": -1, "oriBase": 30, "motionDirection": "out", "speedDirection": -1, "speedStrength": "hard", "speed_start": 0.1, "oriStrength": "hard", "ori_end": 15}, "ITI": 1.848059956734763, "rt": 224.59441709518433, "FBDuration": 0.5, "trial_count": 31, "ts": "motion", "response": "down", "onset": 212.66757475535724, "quest_estimate": -0.0009666657553205893, "FB": 1, "displayFB": true, "actualOnsetTime": 212.66873002052307, "punishment_amount": 0, "responseWindow": 1.5, "decision_var": 0.00573752627096779, "stimResponseInterval": 1}
{"stimulusDuration": 2, "reward_amount": 1, "FBonset": 0.5, "stim": {"ori_start": 30, "motion_direction": "out", "speed_end": 0.09838468537385088, "oriDirection": 1, "oriBase": 30, "motionDirection": "out", "speedDirection": -1, "speedStrength": "hard", "speed_start": 0.1, "oriStrength": "hard", "ori_end": 45}, "ITI": 1.965847718992273, "rt": 231.962571144104, "FBDuration": 0.5, "trial_count": 32, "ts": "motion", "response": "down", "onset": 220.015634712092, "quest_estimate": -0.004602902849985373, "FB": 1, "displayFB": true, "actualOnsetTime": 220.01643896102905, "punishment_amount": 0, "responseWindow": 1.5, "decision_var": 0.0016153146261491252, "stimResponseInterval": 1}
{"stimulusDuration": 2, "reward_amount": 1, "FBonset": 0.5, "stim": {"ori_start": 30, "motion_direction": "in", "speed_end": 0.0999, "oriDirection": -1, "oriBase": 30, "motionDirection": "in", "speedDirection": -1, "speedStrength": "hard", "speed_start": 0.1, "oriStrength": "hard", "ori_end": 15}, "ITI": 1.1609949721226536, "rt": 239.3540551662445, "FBDuration": 0.5, "trial_count": 33, "ts": "motion", "response": "down", "onset": 227.4814824310843, "quest_estimate": -0.007980401136298262, "FB": 1, "displayFB": true, "actualOnsetTime": 227.48228001594543, "punishment_amount": 0, "responseWindow": 1.5, "decision_var": 0.0001, "stimResponseInterval": 1}
{"stimulusDuration": 2, "reward_amount": 1, "FBonset": 0.5, "stim": {"ori_start": 30, "motion_direction": "out", "speed_end": 0.0999, "oriDirection": 1, "oriBase": 30, "motionDirection": "out", "speedDirection": -1, "speedStrength": "hard", "speed_start": 0.1, "oriStrength": "easy", "ori_end": 55}, "ITI": 1.5522279236141494, "rt": 246.10136699676514, "FBDuration": 0.5, "trial_count": 34, "ts": "motion", "response": "down", "onset": 234.14247740320695, "quest_estimate": -0.01109038271046453, "FB": 1, "displayFB": true, "actualOnsetTime": 234.1433460712433, "punishment_amount": 0, "responseWindow": 1.5, "decision_var": 0.0001, "stimResponseInterval": 1}
{"stimulusDuration": 2, "reward_amount": 1, "FBonset": 0.5, "stim": {"ori_start": 30, "motion_direction": "in", "speed_end": 0.07193537154357953, "oriDirection": 1, "oriBase": 30, "motionDirection": "in", "speedDirection": -1, "speedStrength": "easy", "speed_start": 0.1, "oriStrength": "easy", "ori_end": 55}, "ITI": 1.1676564108504515, "rt": 253.14296412467957, "FBDuration": 0.5, "trial_count": 35, "ts": "motion", "response": "down", "onset": 241.1947053268211, "quest_estimate": 0.02369816868173214, "FB": 1, "displayFB": true, "actualOnsetTime": 241.19541311264038, "punishment_amount": 0, "responseWindow": 1.5, "decision_var": 0.02806462845642048, "stimResponseInterval": 1}
{"stimulusDuration": 2, "reward_amount": 1, "FBonset": 0.5, "stim": {"ori_start": 30, "motion_direction": "in", "speed_end": 0.07427633140295298, "oriDirection": -1, "oriBase": 30, "motionDirection": "in", "speedDirection": -1, "speedStrength": "easy", "speed_start": 0.1, "oriStrength": "easy", "ori_end": 5}, "ITI": 1.5489710114450999, "rt": 259.7635521888733, "FBDuration": 0.5, "trial_count": 36, "ts": "motion", "response": "down", "onset": 247.86236173767153, "quest_estimate": 0.021721154028277213, "FB": 1, "displayFB": true, "actualOnsetTime": 247.86327505111694, "punishment_amount": 0, "responseWindow": 1.5, "decision_var": 0.02572366859704702, "stimResponseInterval": 1}
{"stimulusDuration": 2, "reward_amount": 1, "FBonset": 0.5, "stim": {"ori_start": -60, "motion_direction": "in", "speed_end": 0.10010000000000001, "oriDirection": -1, "oriBase": -60, "motionDirection": "in", "speedDirection": 1, "speedStrength": "hard", "speed_start": 0.1, "oriStrength": "hard", "ori_end": -75}, "ITI": 1.7003272687448285, "rt": 266.8144841194153, "FBDuration": 0.5, "trial_count": 37, "ts": "motion", "response": "down", "onset": 254.91133274911664, "quest_estimate": -0.0033958522407633585, "FB": 0, "displayFB": true, "actualOnsetTime": 254.91215109825134, "punishment_amount": 0, "responseWindow": 1.5, "decision_var": 0.0001, "stimResponseInterval": 1}
{"stimulusDuration": 2, "reward_amount": 1, "FBonset": 0.5, "stim": {"ori_start": -60, "motion_direction": "out", "speed_end": 0.12351022695695811, "oriDirection": -1, "oriBase": -60, "motionDirection": "out", "speedDirection": 1, "speedStrength": "easy", "speed_start": 0.1, "oriStrength": "easy", "ori_end": -85}, "ITI": 1.8513507240642544, "rt": 274.07353806495667, "FBDuration": 0.5, "trial_count": 38, "ts": "motion", "response": "up", "onset": 262.1116600178615, "quest_estimate": 0.01985302612540288, "FB": 1, "displayFB": true, "actualOnsetTime": 262.1125099658966, "punishment_amount": 0, "responseWindow": 1.5, "decision_var": 0.023510226956958105, "stimResponseInterval": 1}
{"stimulusDuration": 2, "reward_amount": 1, "FBonset": 0.5, "stim": {"ori_start": -60, "motion_direction": "out", "speed_end": 0.121416038472748, "oriDirection": 1, "oriBase": -60, "motionDirection": "out", "speedDirection": 1, "speedStrength": "easy", "speed_start": 0.1, "oriStrength": "easy", "ori_end": -35}, "ITI": 1.7208470601458403, "rt": 281.37057399749756, "FBDuration": 0.5, "trial_count": 39, "ts": "motion", "response": "up", "onset": 269.46301074192576, "quest_estimate": 0.018090171872039734, "FB": 1, "displayFB": true, "actualOnsetTime": 269.46383905410767, "punishment_amount": 0, "responseWindow": 1.5, "decision_var": 0.021416038472747992, "stimResponseInterval": 1}
{"stimulusDuration": 2, "reward_amount": 1, "FBonset": 0.5, "stim": {"ori_start": -60, "motion_direction": "out", "speed_end": 0.10010000000000001, "oriDirection": -1, "oriBase": -60, "motionDirection": "out", "speedDirection": 1, "speedStrength": "hard", "speed_start": 0.1, "oriStrength": "easy", "ori_end": -85}, "ITI": 1.898937820470928, "rt": 288.65955901145935, "FBDuration": 0.5, "trial_count": 40, "ts": "motion", "response": "up", "onset": 276.6838578020716, "quest_estimate": -0.006574241879798819, "FB": 1, "displayFB": true, "actualOnsetTime": 276.68468403816223, "punishment_amount": 0, "responseWindow": 1.5, "decision_var": 0.0001, "stimResponseInterval": 1}
{"stimulusDuration": 2, "reward_amount": 1, "FBonset": 0.5, "stim": {"ori_start": -60, "motion_direction": "out", "speed_end": 0.08056185623030065, "oriDirection": -1, "oriBase": -60, "motionDirection": "out", "speedDirection": -1, "speedStrength": "easy", "speed_start": 0.1, "oriStrength": "hard", "ori_end": -75}, "ITI": 1.028991425985661, "rt": 295.99508714675903, "FBDuration": 0.5, "trial_count": 41, "ts": "motion", "response": "down", "onset": 284.0827956225425, "quest_estimate": 0.01642502085084735, "FB": 1, "displayFB": true, "actualOnsetTime": 284.08350706100464, "punishment_amount": 0, "responseWindow": 1.5, "decision_var": 0.019438143769699358, "stimResponseInterval": 1}
{"stimulusDuration": 2, "reward_amount": 1, "FBonset": 0.5, "stim": {"ori_start": 30, "motion_direction": "in", "speed_end": 0.10010000000000001, "oriDirection": 1, "oriBase": 30, "motionDirection": "in", "speedDirection": 1, "speedStrength": "hard", "speed_start": 0.1, "oriStrength": "hard", "ori_end": 45}, "ITI": 1.034916691894796, "rt": 302.8942770957947, "FBDuration": 0.5, "trial_count": 42, "ts": "motion", "response": "up", "onset": 290.6117870485282, "quest_estimate": -0.009529501750604748, "FB": 1, "displayFB": true, "actualOnsetTime": 290.6126160621643, "punishment_amount": 0, "responseWindow": 1.5, "decision_var": 0.0001, "stimResponseInterval": 1}
{"stimulusDuration": 2, "reward_amount": 1, "FBonset": 0.5, "stim": {"ori_start": -60, "motion_direction": "in", "speed_end": 0.0999, "oriDirection": -1, "oriBase": -60, "motionDirection": "in", "speedDirection": -1, "speedStrength": "hard", "speed_start": 0.1, "oriStrength": "easy", "ori_end": -85}, "ITI": 1.552028936222991, "rt": 309.10188817977905, "FBDuration": 0.5, "trial_count": 43, "ts": "motion", "response": "up", "onset": 297.146703740423, "quest_estimate": -0.0023008162111193553, "FB": 0, "displayFB": true, "actualOnsetTime": 297.14763712882996, "punishment_amount": 0, "responseWindow": 1.5, "decision_var": 0.0001, "stimResponseInterval": 1}
{"stimulusDuration": 2, "reward_amount": 1, "FBonset": 0.5, "stim": {"ori_start": 30, "motion_direction": "out", "speed_end": 0.08243092699685846, "oriDirection": -1, "oriBase": 30, "motionDirection": "out", "speedDirection": -1, "speedStrength": "easy", "speed_start": 0.1, "oriStrength": "hard", "ori_end": 15}, "ITI": 1.0803160471172673, "rt": 316.1275839805603, "FBDuration": 0.5, "trial_count": 44, "ts": "motion", "response": "down", "onset": 304.198732676646, "quest_estimate": 0.014850738420383341, "FB": 1, "displayFB": true, "actualOnsetTime": 304.1994650363922, "punishment_amount": 0, "responseWindow": 1.5, "decision_var": 0.017569073003141547, "stimResponseInterval": 1}
{"stimulusDuration": 2, "reward_amount": 1, "FBonset": 0.5, "stim": {"ori_start": 30, "motion_direction": "in", "speed_end": 0.11580191195945352, "oriDirection": 1, "oriBase": 30, "motionDirection": "in", "speedDirection": 1, "speedStrength": "easy", "speed_start": 0.1, "oriStrength": "easy", "ori_end": 55}, "ITI": 1.0866688664803115, "rt": 322.70119309425354, "FBDuration": 0.5, "trial_count": 45, "ts": "motion", "response": "up", "onset": 310.77904872376325, "quest_estimate": 0.013364499879196884, "FB": 1, "displayFB": true, "actualOnsetTime": 310.77984714508057, "punishment_amount": 0, "responseWindow": 1.5, "decision_var": 0.01580191195945352, "stimResponseInterval": 1}
{"stimulusDuration": 2, "reward_amount": 1, "FBonset": 0.5, "stim": {"ori_start": 30, "motion_direction": "out", "speed_end": 0.0858656032170919, "oriDirection": 1, "oriBase": 30, "motionDirection": "out", "speedDirection": -1, "speedStrength": "easy", "speed_start": 0.1, "oriStrength": "easy", "ori_end": 55}, "ITI": 1.4526511009595882, "rt": 329.2966661453247, "FBDuration": 0.5, "trial_count": 46, "ts": "motion", "response": "down", "onset": 317.36571759024355, "quest_estimate": 0.01196327560621975, "FB": 1, "displayFB": true, "actualOnsetTime": 317.3665909767151, "punishment_amount": 0, "responseWindow": 1.5, "decision_var": 0.014134396782908107, "stimResponseInterval": 1}
{"stimulusDuration": 2, "reward_amount": 1, "FBonset": 0.5, "stim": {"ori_start": 30, "motion_direction": "out", "speed_end": 0.09965874500605035, "oriDirection": -1, "oriBase": 30, "motionDirection": "out", "speedDirection": -1, "speedStrength": "hard", "speed_start": 0.1, "oriStrength": "hard", "ori_end": 15}, "ITI": 1.369543738810707, "rt": 336.2595419883728, "FBDuration": 0.5, "trial_count": 47, "ts": "motion", "response": "down", "onset": 324.31836869120315, "quest_estimate": -0.005288871669664984, "FB": 1, "displayFB": true, "actualOnsetTime": 324.3192000389099, "punishment_amount": 0, "responseWindow": 1.5, "decision_var": 0.00034125499394965786, "stimResponseInterval": 1}
{"stimulusDuration": 2, "reward_amount": 1, "FBonset": 0.5, "stim": {"ori_start": 30, "motion_direction": "out", "speed_end": 0.11256367408847079, "oriDirection": -1, "oriBase": 30, "motionDirection": "out", "speedDirection": 1, "speedStrength": "easy", "speed_start": 0.1, "oriStrength": "hard", "ori_end": 15}, "ITI": 1.5666229184406086, "rt": 343.1416311264038, "FBDuration": 0.5, "trial_count": 48, "ts": "motion", "response": "down", "onset": 331.18791243001385, "quest_estimate": 0.019320154650948267, "FB": 0, "displayFB": true, "actualOnsetTime": 331.18867015838623, "punishment_amount": 0, "responseWindow": 1.5, "decision_var": 0.012563674088470783, "stimResponseInterval": 1}
{"stimulusDuration": 2, "reward_amount": 1, "FBonset": 0.5, "stim": {"ori_start": 30, "motion_direction": "in", "speed_end": 0.07875712768417431, "oriDirection": -1, "oriBase": 30, "motionDirection": "in", "speedDirection": -1, "speedStrength": "easy", "speed_start": 0.1, "oriStrength": "hard", "ori_end": 15}, "ITI": 1.2623350265678166, "rt": 350.8495910167694, "FBDuration": 0.5, "trial_count": 49, "ts": "motion", "response": "down", "onset": 338.25453534845445, "quest_estimate": 0.017782841163082395, "FB": 1, "displayFB": true, "actualOnsetTime": 338.2553219795227, "punishment_amount": 0, "responseWindow": 1.5, "decision_var": 0.021242872315825695, "stimResponseInterval": 1}
{"stimulusDuration": 2, "reward_amount": 1, "FBonset": 0.5, "stim": {"ori_start": 30, "motion_direction": "out", "speed_end": 0.11952296515029787, "oriDirection": -1, "oriBase": 30, "motionDirection": "out", "speedDirection": 1, "speedStrength": "easy", "speed_start": 0.1, "oriStrength": "easy", "ori_end": 5}, "ITI": 1.1938058203392106, "rt": 356.9776589870453, "FBDuration": 0.5, "trial_count": 50, "ts": "motion", "response": "up", "onset": 345.0168703750223, "quest_estimate": 0.016316113552659536, "FB": 1, "displayFB": true, "actualOnsetTime": 345.0175461769104, "punishment_amount": 0, "responseWindow": 1.5, "decision_var": 0.01952296515029786, "stimResponseInterval": 1}
{"stimulusDuration": 2, "reward_amount": 1, "FBonset": 0.5, "stim": {"ori_start": -60, "motion_direction": "in", "speed_end": 0.11787910852090737, "oriDirection": 1, "oriBase": -60, "motionDirection": "in", "speedDirection": 1, "speedStrength": "easy", "speed_start": 0.1, "oriStrength": "hard", "ori_end": -45}, "ITI": 1.8327192294447097, "rt": 363.6609091758728, "FBDuration": 0.5, "trial_count": 51, "ts": "motion", "response": "up", "onset": 351.7106761953615, "quest_estimate": 0.014919351680833859, "FB": 1, "displayFB": true, "actualOnsetTime": 351.7114751338959, "punishment_amount": 0, "responseWindow": 1.5, "decision_var": 0.017879108520907364, "stimResponseInterval": 1}
{"stimulusDuration": 2, "reward_amount": 1, "FBonset": 0.5, "stim": {"ori_start": -60, "motion_direction": "in", "speed_end": 0.11631137264821456, "oriDirection": 1, "oriBase": -60, "motionDirection": "in", "speedDirection": 1, "speedStrength": "easy", "speed_start": 0.1, "oriStrength": "easy", "ori_end": -35}, "ITI": 1.7420980855280246, "rt": 371.03557300567627, "FBDuration": 0.5, "trial_count": 52, "ts": "motion", "response": "up", "onset": 359.0433954248062, "quest_estimate": 0.013585421768950973, "FB": 1, "displayFB": true, "actualOnsetTime": 359.04411005973816, "punishment_amount": 0, "responseWindow": 1.5, "decision_var": 0.016311372648214556, "stimResponseInterval": 1}
{"stimulusDuration": 2, "reward_amount": 1, "FBonset": 0.5, "stim": {"ori_start": -60, "motion_direction": "out", "speed_end": 0.08518755311067744, "oriDirection": -1, "oriBase": -60, "motionDirection": "out", "speedDirection": -1, "speedStrength": "easy", "speed_start": 0.1, "oriStrength": "hard", "ori_end": -75}, "ITI": 1.8100449449140694, "rt": 378.19531512260437, "FBDuration": 0.5, "trial_count": 53, "ts": "motion", "response": "down", "onset": 366.2854935103342, "quest_estimate": 0.012313980596171642, "FB": 1, "displayFB": true, "actualOnsetTime": 366.28623509407043, "punishment_amount": 0, "responseWindow": 1.5, "decision_var": 0.014812446889322567, "stimResponseInterval": 1}
{"stimulusDuration": 2, "reward_amount": 1, "FBonset": 0.5, "stim": {"ori_start": -60, "motion_direction": "out", "speed_end": 0.11338270409839148, "oriDirection": 1, "oriBase": -60, "motionDirection": "out", "speedDirection": 1, "speedStrength": "easy", "speed_start": 0.1, "oriStrength": "hard", "ori_end": -45}, "ITI": 1.8362040463503804, "rt": 385.51594400405884, "FBDuration": 0.5, "trial_count": 54, "ts": "motion", "response": "up", "onset": 373.5955384552483, "quest_estimate": 0.011104346350575944, "FB": 1, "displayFB": true, "actualOnsetTime": 373.5963730812073, "punishment_amount": 0, "responseWindow": 1.5, "decision_var": 0.01338270409839147, "stimResponseInterval": 1}
{"stimulusDuration": 2, "reward_amount": 1, "FBonset": 0.5, "stim": {"ori_start": -60, "motion_direction": "in", "speed_end": 0.0999, "oriDirection": -1, "oriBase": -60, "motionDirection": "in", "speedDirection": -1, "speedStrength": "hard", "speed_start": 0.1, "oriStrength": "hard", "ori_end": -75}, "ITI": 1.533530720284519, "rt": 392.8031840324402, "FBDuration": 0.5, "trial_count": 55, "ts": "motion", "response": "down", "onset": 380.93174250159865, "quest_estimate": -0.008094163294094528, "FB": 1, "displayFB": true, "actualOnsetTime": 380.93252515792847, "punishment_amount": 0, "responseWindow": 1.5, "decision_var": 0.0001, "stimResponseInterval": 1}
{"stimulusDuration": 2, "reward_amount": 1, "FBonset": 0.5, "stim": {"ori_start": -60, "motion_direction": "in", "speed_end": 0.11202191691067077, "oriDirection": -1, "oriBase": -60, "motionDirection": "in", "speedDirection": 1, "speedStrength": "easy", "speed_start": 0.1, "oriStrength": "easy", "ori_end": -85}, "ITI": 1.4692982080682098, "rt": 399.8534460067749, "FBDuration": 0.5, "trial_count": 56, "ts": "motion", "response": "up", "onset": 387.9652732218832, "quest_estimate": 0.009950216685813335, "FB": 1, "displayFB": true, "actualOnsetTime": 387.96599197387695, "punishment_amount": 0, "responseWindow": 1.5, "decision_var": 0.012021916910670769, "stimResponseInterval": 1}
{"stimulusDuration": 2, "reward_amount": 1, "FBonset": 0.5, "stim": {"ori_start": 30, "motion_direction": "in", "speed_end": 0.11072356735502963, "oriDirection": -1, "oriBase": 30, "motionDirection": "in", "speedDirection": 1, "speedStrength": "easy", "speed_start": 0.1, "oriStrength": "hard", "ori_end": 15}, "ITI": 1.9566338918922042, "rt": 406.85439705848694, "FBDuration": 0.5, "trial_count": 57, "ts": "motion", "response": "down", "onset": 394.9345714299514, "quest_estimate": 0.01610602551373448, "FB": 0, "displayFB": true, "actualOnsetTime": 394.9352481365204, "punishment_amount": 0, "responseWindow": 1.5, "decision_var": 0.01072356735502962, "stimResponseInterval": 1}
{"stimulusDuration": 2, "reward_amount": 1, "FBonset": 0.5, "stim": {"ori_start": -60, "motion_direction": "in", "speed_end": 0.10010000000000001, "oriDirection": 1, "oriBase": -60, "motionDirection": "in", "speedDirection": 1, "speedStrength": "hard", "speed_start": 0.1, "oriStrength": "hard", "ori_end": -45}, "ITI": 1.6715747599642699, "rt": 414.34930300712585, "FBDuration": 0.5, "trial_count": 58, "ts": "motion", "response": "down", "onset": 402.3912053218436, "quest_estimate": -0.0013074713109181846, "FB": 0, "displayFB": true, "actualOnsetTime": 402.3919460773468, "punishment_amount": 0, "responseWindow": 1.5, "decision_var": 0.0001, "stimResponseInterval": 1}
{"stimulusDuration": 2, "reward_amount": 1, "FBonset": 0.5, "stim": {"ori_start": -60, "motion_direction": "in", "speed_end": 0.11793882320887553, "oriDirection": -1, "oriBase": -60, "motionDirection": "in", "speedDirection": 1, "speedStrength": "easy", "speed_start": 0.1, "oriStrength": "easy", "ori_end": -85}, "ITI": 1.8010401582447215, "rt": 421.5423171520233, "FBDuration": 0.5, "trial_count": 59, "ts": "motion", "response": "up", "onset": 409.56278008180783, "quest_estimate": 0.014850150376404761, "FB": 1, "displayFB": true, "actualOnsetTime": 409.5655071735382, "punishment_amount": 0, "responseWindow": 1.5, "decision_var": 0.017938823208875514, "stimResponseInterval": 1}
{"stimulusDuration": 2, "reward_amount": 1, "FBonset": 0.5, "stim": {"ori_start": -60, "motion_direction": "in", "speed_end": 0.09859945426256579, "oriDirection": 1, "oriBase": -60, "motionDirection": "in", "speedDirection": -1, "speedStrength": "hard", "speed_start": 0.1, "oriStrength": "hard", "ori_end": -45}, "ITI": 1.878233833133967, "rt": 428.88464617729187, "FBDuration": 0.5, "trial_count": 60, "ts": "motion", "response": "up", "onset": 416.8638202400526, "quest_estimate": 0.005409171885277689, "FB": 0, "displayFB": true, "actualOnsetTime": 416.86454606056213, "punishment_amount": 0, "responseWindow": 1.5, "decision_var": 0.001400545737434214, "stimResponseInterval": 1}
{"stimulusDuration": 2, "reward_amount": 1, "FBonset": 0.5, "stim": {"ori_start": -60, "motion_direction": "out", "speed_end": 0.11653435255517235, "oriDirection": -1, "oriBase": -60, "motionDirection": "out", "speedDirection": 1, "speedStrength": "easy", "speed_start": 0.1, "oriStrength": "hard", "ori_end": -75}, "ITI": 1.6620137812621758, "rt": 436.2754440307617, "FBDuration": 0.5, "trial_count": 61, "ts": "motion", "response": "up", "onset": 424.2420540731865, "quest_estimate": 0.013643182658251388, "FB": 1, "displayFB": true, "actualOnsetTime": 424.24280309677124, "punishment_amount": 0, "responseWindow": 1.5, "decision_var": 0.01653435255517234, "stimResponseInterval": 1}
{"stimulusDuration": 2, "reward_amount": 1, "FBonset": 0.5, "stim": {"ori_start": -60, "motion_direction": "out", "speed_end": 0.09165607548764859, "oriDirection": 1, "oriBase": -60, "motionDirection": "out", "speedDirection": -1, "speedStrength": "hard", "speed_start": 0.1, "oriStrength": "hard", "ori_end": -45}, "ITI": 1.0621112155473167, "rt": 443.3391921520233, "FBDuration": 0.5, "trial_count": 62, "ts": "motion", "response": "down", "onset": 431.4040678544487, "quest_estimate": 0.0025911717483852875, "FB": 1, "displayFB": true, "actualOnsetTime": 431.4050099849701, "punishment_amount": 0, "responseWindow": 1.5, "decision_var": 0.00834392451235142, "stimResponseInterval": 1}
{"stimulusDuration": 2, "reward_amount": 1, "FBonset": 0.5, "stim": {"ori_start": -60, "motion_direction": "out", "speed_end": 0.09456699361971418, "oriDirection": 1, "oriBase": -60, "motionDirection": "out", "speedDirection": -1, "speedStrength": "hard", "speed_start": 0.1, "oriStrength": "easy", "ori_end": -35}, "ITI": 1.0984535811739637, "rt": 449.9512791633606, "FBDuration": 0.5, "trial_count": 63, "ts": "motion", "response": "down", "onset": 437.96617906999603, "quest_estimate": -0.00012859504463483967, "FB": 1, "displayFB": true, "actualOnsetTime": 437.966912984848, "punishment_amount": 0, "responseWindow": 1.5, "decision_var": 0.005433006380285821, "stimResponseInterval": 1}
{"stimulusDuration": 2, "reward_amount": 1, "FBonset": 0.5, "stim": {"ori_start": -60, "motion_direction": "in", "speed_end": 0.08481813316906318, "oriDirection": -1, "oriBase": -60, "motionDirection": "in", "speedDirection": -1, "speedStrength": "easy", "speed_start": 0.1, "oriStrength": "hard", "ori_end": -75}, "ITI": 1.2446670162188815, "rt": 486.58627700805664, "FBDuration": 0.5, "trial_count": 64, "ts": "motion", "response": "down", "onset": 444.56463265117, "quest_estimate": 0.012485760122950301, "FB": 1, "displayFB": true, "actualOnsetTime": 474.58223700523376, "punishment_amount": 0, "responseWindow": 1.5, "decision_var": 0.015181866830936822, "stimResponseInterval": 1}
{"stimulusDuration": 2, "reward_amount": 1, "FBonset": 0.5, "stim": {"ori_start": -60, "motion_direction": "out", "speed_end": 0.09738615876633873, "oriDirection": 1, "oriBase": -60, "motionDirection": "out", "speedDirection": -1, "speedStrength": "hard", "speed_start": 0.1, "oriStrength": "hard", "ori_end": -45}, "ITI": 1.2172237173136717, "rt": 493.27040219306946, "FBDuration": 0.5, "trial_count": 65, "ts": "motion", "response": "up", "onset": 451.30929966738887, "quest_estimate": 0.006175783950679081, "FB": 0, "displayFB": true, "actualOnsetTime": 481.3270330429077, "punishment_amount": 0, "responseWindow": 1.5, "decision_var": 0.0026138412336612765, "stimResponseInterval": 1}
{"stimulusDuration": 2, "reward_amount": 1, "FBonset": 0.5, "stim": {"ori_start": -60, "motion_direction": "in", "speed_end": 0.11388266060614183, "oriDirection": -1, "oriBase": -60, "motionDirection": "in", "speedDirection": 1, "speedStrength": "easy", "speed_start": 0.1, "oriStrength": "hard", "ori_end": -75}, "ITI": 1.0715552072978791, "rt": 500.03921008110046, "FBDuration": 0.5, "trial_count": 66, "ts": "motion", "response": "up", "onset": 458.02652338470256, "quest_estimate": 0.011375571933713247, "FB": 1, "displayFB": true, "actualOnsetTime": 488.0443661212921, "punishment_amount": 0, "responseWindow": 1.5, "decision_var": 0.013882660606141822, "stimResponseInterval": 1}
{"stimulusDuration": 2, "reward_amount": 1, "FBonset": 0.5, "stim": {"ori_start": -60, "motion_direction": "in", "speed_end": 0.08736534718804702, "oriDirection": 1, "oriBase": -60, "motionDirection": "in", "speedDirection": -1, "speedStrength": "easy", "speed_start": 0.1, "oriStrength": "easy", "ori_end": -35}, "ITI": 1.6249161138070396, "rt": 506.6105191707611, "FBDuration": 0.5, "trial_count": 67, "ts": "motion", "response": "down", "onset": 464.59807859200043, "quest_estimate": 0.010310444517505554, "FB": 1, "displayFB": true, "actualOnsetTime": 494.61573600769043, "punishment_amount": 0, "responseWindow": 1.5, "decision_var": 0.012634652811952987, "stimResponseInterval": 1}
{"stimulusDuration": 2, "reward_amount": 1, "FBonset": 0.5, "stim": {"ori_start": 30, "motion_direction": "in", "speed_end": 0.09093332372080459, "oriDirection": -1, "oriBase": 30, "motionDirection": "in", "speedDirection": -1, "speedStrength": "hard", "speed_start": 0.1, "oriStrength": "easy", "ori_end": 5}, "ITI": 1.7272367752950752, "rt": 513.7544100284576, "FBDuration": 0.5, "trial_count": 68, "ts": "motion", "response": "down", "onset": 471.7229947058075, "quest_estimate": 0.0035450189169207447, "FB": 1, "displayFB": true, "actualOnsetTime": 501.740700006485, "punishment_amount": 0, "responseWindow": 1.5, "decision_var": 0.00906667627919542, "stimResponseInterval": 1}
{"stimulusDuration": 2, "reward_amount": 1, "FBonset": 0.5, "stim": {"ori_start": -60, "motion_direction": "out", "speed_end": 0.10636435352871863, "oriDirection": -1, "oriBase": -60, "motionDirection": "out", "speedDirection": 1, "speedStrength": "hard", "speed_start": 0.1, "oriStrength": "hard", "ori_end": -75}, "ITI": 1.3765108607329624, "rt": 520.9551231861115, "FBDuration": 0.5, "trial_count": 69, "ts": "motion", "response": "up", "onset": 478.95023148110255, "quest_estimate": 0.0009936200792172237, "FB": 1, "displayFB": true, "actualOnsetTime": 508.96788215637207, "punishment_amount": 0, "responseWindow": 1.5, "decision_var": 0.006364353528718628, "stimResponseInterval": 1}
{"stimulusDuration": 2, "reward_amount": 1, "FBonset": 0.5, "stim": {"ori_start": 30, "motion_direction": "out", "speed_end": 0.0885641202142454, "oriDirection": 1, "oriBase": 30, "motionDirection": "out", "speedDirection": -1, "speedStrength": "easy", "speed_start": 0.1, "oriStrength": "hard", "ori_end": 45}, "ITI": 1.282646346253204, "rt": 527.7728061676025, "FBDuration": 0.5, "trial_count": 70, "ts": "motion", "response": "down", "onset": 485.8267423418355, "quest_estimate": 0.009288329352987706, "FB": 1, "displayFB": true, "actualOnsetTime": 515.8444740772247, "punishment_amount": 0, "responseWindow": 1.5, "decision_var": 0.01143587978575461, "stimResponseInterval": 1}
{"stimulusDuration": 2, "reward_amount": 1, "FBonset": 0.5, "stim": {"ori_start": -60, "motion_direction": "in", "speed_end": 0.10373635613372542, "oriDirection": -1, "oriBase": -60, "motionDirection": "in", "speedDirection": 1, "speedStrength": "hard", "speed_start": 0.1, "oriStrength": "easy", "ori_end": -85}, "ITI": 1.4112432881020638, "rt": 534.6641280651093, "FBDuration": 0.5, "trial_count": 71, "ts": "motion", "response": "up", "onset": 492.6093886880887, "quest_estimate": -0.0014776417920329202, "FB": 1, "displayFB": true, "actualOnsetTime": 522.62704205513, "punishment_amount": 0, "responseWindow": 1.5, "decision_var": 0.003736356133725423, "stimResponseInterval": 1}
{"stimulusDuration": 2, "reward_amount": 1, "FBonset": 0.5, "stim": {"ori_start": 30, "motion_direction": "out", "speed_end": 0.10118310301771652, "oriDirection": 1, "oriBase": 30, "motionDirection": "out", "speedDirection": 1, "speedStrength": "hard", "speed_start": 0.1, "oriStrength": "hard", "ori_end": 45}, "ITI": 1.9307659676201243, "rt": 541.4654831886292, "FBDuration": 0.5, "trial_count": 72, "ts": "motion", "response": "down", "onset": 499.52063197619077, "quest_estimate": 0.004274450745442221, "FB": 0, "displayFB": true, "actualOnsetTime": 529.5383591651917, "punishment_amount": 0, "responseWindow": 1.5, "decision_var": 0.0011831030177165136, "stimResponseInterval": 1}
{"stimulusDuration": 2, "reward_amount": 1, "FBonset": 0.5, "stim": {"ori_start": 30, "motion_direction": "out", "speed_end": 0.08971549955072021, "oriDirection": -1, "oriBase": 30, "motionDirection": "out", "speedDirection": -1, "speedStrength": "easy", "speed_start": 0.1, "oriStrength": "hard", "ori_end": 15}, "ITI": 1.9529209883158187, "rt": 549.0880250930786, "FBDuration": 0.5, "trial_count": 73, "ts": "motion", "response": "down", "onset": 506.9513979438109, "quest_estimate": 0.008307292248188505, "FB": 1, "displayFB": true, "actualOnsetTime": 536.9690861701965, "punishment_amount": 0, "responseWindow": 1.5, "decision_var": 0.010284500449279796, "stimResponseInterval": 1}
{"stimulusDuration": 2, "reward_amount": 1, "FBonset": 0.5, "stim": {"ori_start": -60, "motion_direction": "in", "speed_end": 0.10705018455610496, "oriDirection": 1, "oriBase": -60, "motionDirection": "in", "speedDirection": 1, "speedStrength": "hard", "speed_start": 0.1, "oriStrength": "hard", "ori_end": -45}, "ITI": 1.0315142707286777, "rt": 556.4710102081299, "FBDuration": 0.5, "trial_count": 74, "ts": "motion", "response": "up", "onset": 514.4043189321267, "quest_estimate": 0.0018792787873090563, "FB": 1, "displayFB": true, "actualOnsetTime": 544.4219901561737, "punishment_amount": 0, "responseWindow": 1.5, "decision_var": 0.007050184556104948, "stimResponseInterval": 1}
{"stimulusDuration": 2, "reward_amount": 1, "FBonset": 0.5, "stim": {"ori_start": 30, "motion_direction": "out", "speed_end": 0.10459499567968511, "oriDirection": 1, "oriBase": 30, "motionDirection": "out", "speedDirection": 1, "speedStrength": "hard", "speed_start": 0.1, "oriStrength": "easy", "ori_end": 55}, "ITI": 1.9207307447678552, "rt": 562.8845241069794, "FBDuration": 0.5, "trial_count": 75, "ts": "motion", "response": "up", "onset": 520.9358332028553, "quest_estimate": -0.00045007796262576394, "FB": 1, "displayFB": true, "actualOnsetTime": 550.953497171402, "punishment_amount": 0, "responseWindow": 1.5, "decision_var": 0.004594995679685104, "stimResponseInterval": 1}
{"stimulusDuration": 2, "reward_amount": 1, "FBonset": 0.5, "stim": {"ori_start": -60, "motion_direction": "out", "speed_end": 0.10220142895900894, "oriDirection": -1, "oriBase": -60, "motionDirection": "out", "speedDirection": 1, "speedStrength": "hard", "speed_start": 0.1, "oriStrength": "easy", "ori_end": -85}, "ITI": 1.4254331506469509, "rt": 570.424987077713, "FBDuration": 0.5, "trial_count": 76, "ts": "motion", "response": "down", "onset": 528.3565639476232, "quest_estimate": 0.00498626290817928, "FB": 0, "displayFB": true, "actualOnsetTime": 558.3744010925293, "punishment_amount": 0, "responseWindow": 1.5, "decision_var": 0.002201428959008933, "stimResponseInterval": 1}
{"stimulusDuration": 2, "reward_amount": 1, "FBonset": 0.5, "stim": {"ori_start": -60, "motion_direction": "in", "speed_end": 0.09229043582243536, "oriDirection": -1, "oriBase": -60, "motionDirection": "in", "speedDirection": -1, "speedStrength": "hard", "speed_start": 0.1, "oriStrength": "hard", "ori_end": -75}, "ITI": 1.839073661349091, "rt": 577.3228271007538, "FBDuration": 0.5, "trial_count": 77, "ts": "motion", "response": "down", "onset": 535.2819970982702, "quest_estimate": 0.0027323784961868283, "FB": 1, "displayFB": true, "actualOnsetTime": 565.2998020648956, "punishment_amount": 0, "responseWindow": 1.5, "decision_var": 0.007709564177564646, "stimResponseInterval": 1}
{"stimulusDuration": 2, "reward_amount": 1, "FBonset": 0.5, "stim": {"ori_start": 30, "motion_direction": "out", "speed_end": 0.10540805031763305, "oriDirection": -1, "oriBase": 30, "motionDirection": "out", "speedDirection": 1, "speedStrength": "hard", "speed_start": 0.1, "oriStrength": "easy", "ori_end": 5}, "ITI": 1.7599274367693818, "rt": 584.6176931858063, "FBDuration": 0.5, "trial_count": 78, "ts": "motion", "response": "down", "onset": 542.6210707596192, "quest_estimate": 0.008015279976120622, "FB": 0, "displayFB": true, "actualOnsetTime": 572.638750076294, "punishment_amount": 0, "responseWindow": 1.5, "decision_var": 0.0054080503176330424, "stimResponseInterval": 1}
{"stimulusDuration": 2, "reward_amount": 1, "FBonset": 0.5, "stim": {"ori_start": -60, "motion_direction": "in", "speed_end": 0.1091788296132351, "oriDirection": 1, "oriBase": -60, "motionDirection": "in", "speedDirection": 1, "speedStrength": "easy", "speed_start": 0.1, "oriStrength": "hard", "ori_end": -45}, "ITI": 1.4179439542150245, "rt": 591.8895781040192, "FBDuration": 0.5, "trial_count": 79, "ts": "motion", "response": "up", "onset": 549.8809981963886, "quest_estimate": 0.007367700374005345, "FB": 1, "displayFB": true, "actualOnsetTime": 579.8987650871277, "punishment_amount": 0, "responseWindow": 1.5, "decision_var": 0.009178829613235101, "stimResponseInterval": 1}
{"stimulusDuration": 2, "reward_amount": 1, "FBonset": 0.5, "stim": {"ori_start": 30, "motion_direction": "out", "speed_end": 0.09188037276139974, "oriDirection": -1, "oriBase": 30, "motionDirection": "out", "speedDirection": -1, "speedStrength": "easy", "speed_start": 0.1, "oriStrength": "easy", "ori_end": 5}, "ITI": 1.729172528321932, "rt": 599.8349270820618, "FBDuration": 0.5, "trial_count": 80, "ts": "motion", "response": "down", "onset": 556.7989421506037, "quest_estimate": 0.00646543635184528, "FB": 1, "displayFB": true, "actualOnsetTime": 586.8167769908905, "punishment_amount": 0, "responseWindow": 1.5, "decision_var": 0.008119627238600269, "stimResponseInterval": 1}
{"stimulusDuration": 2, "reward_amount": 1, "FBonset": 0.5, "stim": {"ori_start": -60, "motion_direction": "in", "speed_end": 0.08928089385885438, "oriDirection": 1, "oriBase": -60, "motionDirection": "in", "speedDirection": -1, "speedStrength": "hard", "speed_start": 0.1, "oriStrength": "easy", "ori_end": -35}, "ITI": 1.4471361483813858, "rt": 606.2255511283875, "FBDuration": 0.5, "trial_count": 81, "ts": "motion", "response": "up", "onset": 564.0281146789256, "quest_estimate": 0.013252663681349957, "FB": 0, "displayFB": true, "actualOnsetTime": 594.0458881855011, "punishment_amount": 0, "responseWindow": 1.5, "decision_var": 0.010719106141145629, "stimResponseInterval": 1}
{"stimulusDuration": 2, "reward_amount": 1, "FBonset": 0.5, "stim": {"ori_start": 30, "motion_direction": "in", "speed_end": 0.1071024782961108, "oriDirection": 1, "oriBase": 30, "motionDirection": "in", "speedDirection": 1, "speedStrength": "easy", "speed_start": 0.1, "oriStrength": "hard", "ori_end": 45}, "ITI": 1.661592232270583, "rt": 612.9704220294952, "FBDuration": 0.5, "trial_count": 82, "ts": "motion", "response": "up", "onset": 570.9752508273069, "quest_estimate": 0.005600880632699784, "FB": 1, "displayFB": true, "actualOnsetTime": 600.9931230545044, "punishment_amount": 0, "responseWindow": 1.5, "decision_var": 0.007102478296110798, "stimResponseInterval": 1}
{"stimulusDuration": 2, "reward_amount": 1, "FBonset": 0.5, "stim": {"ori_start": -60, "motion_direction": "in", "speed_end": 0.08404989821492119, "oriDirection": 1, "oriBase": -60, "motionDirection": "in", "speedDirection": -1, "speedStrength": "hard", "speed_start": 0.1, "oriStrength": "hard", "ori_end": -45}, "ITI": 1.3217761990951242, "rt": 620.3120231628418, "FBDuration": 0.5, "trial_count": 83, "ts": "motion", "response": "down", "onset": 578.1368430595775, "quest_estimate": 0.01110216252828727, "FB": 1, "displayFB": true, "actualOnsetTime": 608.1545369625092, "punishment_amount": 0, "responseWindow": 1.5, "decision_var": 0.01595010178507882, "stimResponseInterval": 1}
{"stimulusDuration": 2, "reward_amount": 1, "FBonset": 0.5, "stim": {"ori_start": -60, "motion_direction": "in", "speed_end": 0.09387179593213427, "oriDirection": 1, "oriBase": -60, "motionDirection": "in", "speedDirection": -1, "speedStrength": "easy", "speed_start": 0.1, "oriStrength": "easy", "ori_end": -35}, "ITI": 1.5935619102024836, "rt": 627.0088031291962, "FBDuration": 0.5, "trial_count": 84, "ts": "motion", "response": "up", "onset": 584.9586192586726, "quest_estimate": 0.010247757865291307, "FB": 0, "displayFB": true, "actualOnsetTime": 614.9763960838318, "punishment_amount": 0, "responseWindow": 1.5, "decision_var": 0.006128204067865739, "stimResponseInterval": 1}
{"stimulusDuration": 2, "reward_amount": 1, "FBonset": 0.5, "stim": {"ori_start": 30, "motion_direction": "in", "speed_end": 0.11158630934894814, "oriDirection": -1, "oriBase": 30, "motionDirection": "in", "speedDirection": 1, "speedStrength": "easy", "speed_start": 0.1, "oriStrength": "easy", "ori_end": 5}, "ITI": 1.1976020307496384, "rt": 634.0896301269531, "FBDuration": 0.5, "trial_count": 85, "ts": "motion", "response": "up", "onset": 592.0521811688751, "quest_estimate": 0.009301205086892694, "FB": 1, "displayFB": true, "actualOnsetTime": 622.0698599815369, "punishment_amount": 0, "responseWindow": 1.5, "decision_var": 0.011586309348948137, "stimResponseInterval": 1}
{"stimulusDuration": 2, "reward_amount": 1, "FBonset": 0.5, "stim": {"ori_start": 30, "motion_direction": "out", "speed_end": 0.08622898291420422, "oriDirection": -1, "oriBase": 30, "motionDirection": "out", "speedDirection": -1, "speedStrength": "hard", "speed_start": 0.1, "oriStrength": "easy", "ori_end": 5}, "ITI": 1.6869669836698518, "rt": 640.7670090198517, "FBDuration": 0.5, "trial_count": 86, "ts": "motion", "response": "down", "onset": 598.7497831996247, "quest_estimate": 0.008998498997366062, "FB": 1, "displayFB": true, "actualOnsetTime": 628.7676141262054, "punishment_amount": 0, "responseWindow": 1.5, "decision_var": 0.013771017085795777, "stimResponseInterval": 1}
{"stimulusDuration": 2, "reward_amount": 1, "FBonset": 0.5, "stim": {"ori_start": -60, "motion_direction": "out", "speed_end": 0.11163835038029697, "oriDirection": -1, "oriBase": -60, "motionDirection": "out", "speedDirection": 1, "speedStrength": "hard", "speed_start": 0.1, "oriStrength": "hard", "ori_end": -75}, "ITI": 1.6811093406944768, "rt": 647.8800940513611, "FBDuration": 0.5, "trial_count": 87, "ts": "motion", "response": "up", "onset": 605.9367501832946, "quest_estimate": 0.0069424493565973106, "FB": 1, "displayFB": true, "actualOnsetTime": 635.954451084137, "punishment_amount": 0, "responseWindow": 1.5, "decision_var": 0.011638350380296966, "stimResponseInterval": 1}
{"stimulusDuration": 2, "reward_amount": 1, "FBonset": 0.5, "stim": {"ori_start": -60, "motion_direction": "out", "speed_end": 0.11052158316489286, "oriDirection": 1, "oriBase": -60, "motionDirection": "out", "speedDirection": 1, "speedStrength": "easy", "speed_start": 0.1, "oriStrength": "hard", "ori_end": -45}, "ITI": 1.9979353621720461, "rt": 655.1345851421356, "FBDuration": 0.5, "trial_count": 88, "ts": "motion", "response": "down", "onset": 613.1178595239891, "quest_estimate": 0.014460414311432704, "FB": 0, "displayFB": true, "actualOnsetTime": 643.1355910301208, "punishment_amount": 0, "responseWindow": 1.5, "decision_var": 0.01052158316489285, "stimResponseInterval": 1}
{"stimulusDuration": 2, "reward_amount": 1, "FBonset": 0.5, "stim": {"ori_start": 30, "motion_direction": "in", "speed_end": 0.0904474548436857, "oriDirection": 1, "oriBase": 30, "motionDirection": "in", "speedDirection": -1, "speedStrength": "hard", "speed_start": 0.1, "oriStrength": "easy", "ori_end": 55}, "ITI": 1.362605908662795, "rt": 662.6360230445862, "FBDuration": 0.5, "trial_count": 89, "ts": "motion", "response": "down", "onset": 620.6157948861611, "quest_estimate": 0.004928884000481137, "FB": 1, "displayFB": true, "actualOnsetTime": 650.6336970329285, "punishment_amount": 0, "responseWindow": 1.5, "decision_var": 0.009552545156314301, "stimResponseInterval": 1}
{"stimulusDuration": 2, "reward_amount": 1, "FBonset": 0.5, "stim": {"ori_start": 30, "motion_direction": "out", "speed_end": 0.11646066222788429, "oriDirection": 1, "oriBase": 30, "motionDirection": "out", "speedDirection": 1, "speedStrength": "easy", "speed_start": 0.1, "oriStrength": "easy", "ori_end": 55}, "ITI": 1.6429731183532976, "rt": 669.6856310367584, "FBDuration": 0.5, "trial_count": 90, "ts": "motion", "response": "up", "onset": 627.4784007948239, "quest_estimate": 0.013450787182428425, "FB": 1, "displayFB": true, "actualOnsetTime": 657.4960091114044, "punishment_amount": 0, "responseWindow": 1.5, "decision_var": 0.016460662227884282, "stimResponseInterval": 1}
{"stimulusDuration": 2, "reward_amount": 1, "FBonset": 0.5, "stim": {"ori_start": 30, "motion_direction": "in", "speed_end": 0.10750822327155343, "oriDirection": 1, "oriBase": 30, "motionDirection": "in", "speedDirection": 1, "speedStrength": "hard", "speed_start": 0.1, "oriStrength": "easy", "ori_end": 55}, "ITI": 1.277210420270629, "rt": 676.8124101161957, "FBDuration": 0.5, "trial_count": 91, "ts": "motion", "response": "down", "onset": 634.6213739131772, "quest_estimate": 0.009658297170000798, "FB": 0, "displayFB": true, "actualOnsetTime": 664.6390120983124, "punishment_amount": 0, "responseWindow": 1.5, "decision_var": 0.007508223271553434, "stimResponseInterval": 1}
{"stimulusDuration": 2, "reward_amount": 1, "FBonset": 0.5, "stim": {"ori_start": -60, "motion_direction": "out", "speed_end": 0.11223290130486183, "oriDirection": 1, "oriBase": -60, "motionDirection": "out", "speedDirection": 1, "speedStrength": "hard", "speed_start": 0.1, "oriStrength": "easy", "ori_end": -35}, "ITI": 1.7036680472707157, "rt": 683.3213500976562, "FBDuration": 0.5, "trial_count": 92, "ts": "motion", "response": "up", "onset": 641.3985843334478, "quest_estimate": 0.0077106724293764875, "FB": 1, "displayFB": true, "actualOnsetTime": 671.4164130687714, "punishment_amount": 0, "responseWindow": 1.5, "decision_var": 0.012232901304861824, "stimResponseInterval": 1}
{"stimulusDuration": 2, "reward_amount": 1, "FBonset": 0.5, "stim": {"ori_start": 30, "motion_direction": "out", "speed_end": 0.1153407297273774, "oriDirection": -1, "oriBase": 30, "motionDirection": "out", "speedDirection": 1, "speedStrength": "easy", "speed_start": 0.1, "oriStrength": "hard", "ori_end": 15}, "ITI": 1.2943714704395766, "rt": 690.6476950645447, "FBDuration": 0.5, "trial_count": 93, "ts": "motion", "response": "up", "onset": 648.6022523807186, "quest_estimate": 0.012470989046500208, "FB": 1, "displayFB": true, "actualOnsetTime": 678.6200520992279, "punishment_amount": 0, "responseWindow": 1.5, "decision_var": 0.015340729727377392, "stimResponseInterval": 1}
{"stimulusDuration": 2, "reward_amount": 1, "FBonset": 0.5, "stim": {"ori_start": 30, "motion_direction": "in", "speed_end": 0.1142508203624461, "oriDirection": 1, "oriBase": 30, "motionDirection": "in", "speedDirection": 1, "speedStrength": "easy", "speed_start": 0.1, "oriStrength": "hard", "ori_end": 45}, "ITI": 1.857218572463994, "rt": 697.3781251907349, "FBDuration": 0.5, "trial_count": 94, "ts": "motion", "response": "up", "onset": 655.3966238511582, "quest_estimate": 0.011522500551148479, "FB": 1, "displayFB": true, "actualOnsetTime": 685.4144520759583, "punishment_amount": 0, "responseWindow": 1.5, "decision_var": 0.014250820362446098, "stimResponseInterval": 1}
{"stimulusDuration": 2, "reward_amount": 1, "FBonset": 0.5, "stim": {"ori_start": -60, "motion_direction": "in", "speed_end": 0.11026004483912175, "oriDirection": -1, "oriBase": -60, "motionDirection": "in", "speedDirection": 1, "speedStrength": "hard", "speed_start": 0.1, "oriStrength": "easy", "ori_end": -85}, "ITI": 1.9899247281135062, "rt": 704.68141913414, "FBDuration": 0.5, "trial_count": 95, "ts": "motion", "response": "up", "onset": 662.7538424236222, "quest_estimate": 0.00580218304777369, "FB": 1, "displayFB": true, "actualOnsetTime": 692.7716851234436, "punishment_amount": 0, "responseWindow": 1.5, "decision_var": 0.010260044839121733, "stimResponseInterval": 1}
{"stimulusDuration": 2, "reward_amount": 1, "FBonset": 0.5, "stim": {"ori_start": 30, "motion_direction": "out", "speed_end": 0.1083258439573065, "oriDirection": 1, "oriBase": 30, "motionDirection": "out", "speedDirection": 1, "speedStrength": "hard", "speed_start": 0.1, "oriStrength": "easy", "ori_end": 55}, "ITI": 1.468440270366293, "rt": 712.5406041145325, "FBDuration": 0.5, "trial_count": 96, "ts": "motion", "response": "down", "onset": 670.2437671517357, "quest_estimate": 0.01028812776703995, "FB": 0, "displayFB": true, "actualOnsetTime": 700.2616581916809, "punishment_amount": 0, "responseWindow": 1.5, "decision_var": 0.008325843957306497, "stimResponseInterval": 1}
{"stimulusDuration": 2, "reward_amount": 1, "FBonset": 0.5, "stim": {"ori_start": -60, "motion_direction": "out", "speed_end": 0.11319325632217017, "oriDirection": -1, "oriBase": -60, "motionDirection": "out", "speedDirection": 1, "speedStrength": "easy", "speed_start": 0.1, "oriStrength": "hard", "ori_end": -75}, "ITI": 1.771007101216791, "rt": 719.3751180171967, "FBDuration": 0.5, "trial_count": 97, "ts": "motion", "response": "up", "onset": 677.212207422102, "quest_estimate": 0.010604323156843593, "FB": 1, "displayFB": true, "actualOnsetTime": 707.2299389839172, "punishment_amount": 0, "responseWindow": 1.5, "decision_var": 0.013193256322170166, "stimResponseInterval": 1}
{"stimulusDuration": 2, "reward_amount": 1, "FBonset": 0.5, "stim": {"ori_start": 30, "motion_direction": "in", "speed_end": 0.08720029911732152, "oriDirection": 1, "oriBase": 30, "motionDirection": "in", "speedDirection": -1, "speedStrength": "hard", "speed_start": 0.1, "oriStrength": "hard", "ori_end": 45}, "ITI": 1.9920722354041027, "rt": 726.4863440990448, "FBDuration": 0.5, "trial_count": 98, "ts": "motion", "response": "down", "onset": 684.4832145233188, "quest_estimate": 0.008439033425976211, "FB": 1, "displayFB": true, "actualOnsetTime": 714.5009620189667, "punishment_amount": 0, "responseWindow": 1.5, "decision_var": 0.01279970088267849, "stimResponseInterval": 1}
{"stimulusDuration": 2, "reward_amount": 1, "FBonset": 0.5, "stim": {"ori_start": 30, "motion_direction": "in", "speed_end": 0.08783295342601109, "oriDirection": -1, "oriBase": 30, "motionDirection": "in", "speedDirection": -1, "speedStrength": "easy", "speed_start": 0.1, "oriStrength": "easy", "ori_end": 5}, "ITI": 1.782519752464726, "rt": 733.982292175293, "FBDuration": 0.5, "trial_count": 99, "ts": "motion", "response": "down", "onset": 691.9752867587229, "quest_estimate": 0.009715498127060379, "FB": 1, "displayFB": true, "actualOnsetTime": 721.9929671287537, "punishment_amount": 0, "responseWindow": 1.5, "decision_var": 0.012167046573988913, "stimResponseInterval": 1}
{"stimulusDuration": 2, "reward_amount": 1, "FBonset": 0.5, "stim": {"ori_start": 30, "motion_direction": "in", "speed_end": 0.08907127715959151, "oriDirection": 1, "oriBase": 30, "motionDirection": "in", "speedDirection": -1, "speedStrength": "hard", "speed_start": 0.1, "oriStrength": "easy", "ori_end": 55}, "ITI": 1.3854248788789185, "rt": 741.2140650749207, "FBDuration": 0.5, "trial_count": 100, "ts": "motion", "response": "down", "onset": 699.2578065111876, "quest_estimate": 0.006626551447091025, "FB": 1, "displayFB": true, "actualOnsetTime": 729.2756969928741, "punishment_amount": 0, "responseWindow": 1.5, "decision_var": 0.010928722840408498, "stimResponseInterval": 1}
{"stimulusDuration": 2, "reward_amount": 1, "FBonset": 0.5, "stim": {"ori_start": -60, "motion_direction": "in", "speed_end": 0.08882852680243353, "oriDirection": -1, "oriBase": -60, "motionDirection": "in", "speedDirection": -1, "speedStrength": "easy", "speed_start": 0.1, "oriStrength": "easy", "ori_end": -85}, "ITI": 1.3228825098008157, "rt": 748.3504111766815, "FBDuration": 0.5, "trial_count": 101, "ts": "motion", "response": "down", "onset": 706.1432313900665, "quest_estimate": 0.008855103104705428, "FB": 1, "displayFB": true, "actualOnsetTime": 736.1609981060028, "punishment_amount": 0, "responseWindow": 1.5, "decision_var": 0.011171473197566478, "stimResponseInterval": 1}
{"stimulusDuration": 2, "reward_amount": 1, "FBonset": 0.5, "stim": {"ori_start": -60, "motion_direction": "out", "speed_end": 0.08979418788886377, "oriDirection": -1, "oriBase": -60, "motionDirection": "out", "speedDirection": -1, "speedStrength": "easy", "speed_start": 0.1, "oriStrength": "easy", "ori_end": -85}, "ITI": 1.3066901815907344, "rt": 754.9847881793976, "FBDuration": 0.5, "trial_count": 102, "ts": "motion", "response": "down", "onset": 712.9661138998673, "quest_estimate": 0.008022249120654024, "FB": 1, "displayFB": true, "actualOnsetTime": 742.9838130474091, "punishment_amount": 0, "responseWindow": 1.5, "decision_var": 0.010205812111136234, "stimResponseInterval": 1}
{"stimulusDuration": 2, "reward_amount": 1, "FBonset": 0.5, "stim": {"ori_start": -60, "motion_direction": "out", "speed_end": 0.09073060131443944, "oriDirection": 1, "oriBase": -60, "motionDirection": "out", "speedDirection": -1, "speedStrength": "easy", "speed_start": 0.1, "oriStrength": "hard", "ori_end": -45}, "ITI": 1.0555714188680532, "rt": 761.866898059845, "FBDuration": 0.5, "trial_count": 103, "ts": "motion", "response": "down", "onset": 719.772804081458, "quest_estimate": 0.0072160779849063245, "FB": 1, "displayFB": true, "actualOnsetTime": 749.7906270027161, "punishment_amount": 0, "responseWindow": 1.5, "decision_var": 0.009269398685560565, "stimResponseInterval": 1}
{"stimulusDuration": 2, "reward_amount": 1, "FBonset": 0.5, "stim": {"ori_start": 30, "motion_direction": "in", "speed_end": 0.0916383069235473, "oriDirection": 1, "oriBase": 30, "motionDirection": "in", "speedDirection": -1, "speedStrength": "easy", "speed_start": 0.1, "oriStrength": "hard", "ori_end": 45}, "ITI": 1.2494527516669676, "rt": 768.446631193161, "FBDuration": 0.5, "trial_count": 104, "ts": "motion", "response": "down", "onset": 726.328375500326, "quest_estimate": 0.00643576001580809, "FB": 1, "displayFB": true, "actualOnsetTime": 756.346274137497, "punishment_amount": 0, "responseWindow": 1.5, "decision_var": 0.008361693076452709, "stimResponseInterval": 1}
{"stimulusDuration": 2, "reward_amount": 1, "FBonset": 0.5, "stim": {"ori_start": 30, "motion_direction": "in", "speed_end": 0.1090941420852074, "oriDirection": 1, "oriBase": 30, "motionDirection": "in", "speedDirection": 1, "speedStrength": "hard", "speed_start": 0.1, "oriStrength": "easy", "ori_end": 55}, "ITI": 1.2067804893559764, "rt": 775.1540360450745, "FBDuration": 0.5, "trial_count": 105, "ts": "motion", "response": "up", "onset": 733.077828251993, "quest_estimate": 0.004846467105478897, "FB": 1, "displayFB": true, "actualOnsetTime": 763.0955581665039, "punishment_amount": 0, "responseWindow": 1.5, "decision_var": 0.009094142085207403, "stimResponseInterval": 1}
{"stimulusDuration": 2, "reward_amount": 1, "FBonset": 0.5, "stim": {"ori_start": 30, "motion_direction": "out", "speed_end": 0.10729154263067234, "oriDirection": 1, "oriBase": 30, "motionDirection": "out", "speedDirection": 1, "speedStrength": "hard", "speed_start": 0.1, "oriStrength": "hard", "ori_end": 45}, "ITI": 1.1853729249458211, "rt": 781.7266051769257, "FBDuration": 0.5, "trial_count": 106, "ts": "motion", "response": "up", "onset": 739.784608741349, "quest_estimate": 0.003100033187441592, "FB": 1, "displayFB": true, "actualOnsetTime": 769.8023421764374, "punishment_amount": 0, "responseWindow": 1.5, "decision_var": 0.007291542630672339, "stimResponseInterval": 1}
{"stimulusDuration": 2, "reward_amount": 1, "FBonset": 0.5, "stim": {"ori_start": 30, "motion_direction": "in", "speed_end": 0.0944779270700705, "oriDirection": 1, "oriBase": 30, "motionDirection": "in", "speedDirection": -1, "speedStrength": "hard", "speed_start": 0.1, "oriStrength": "hard", "ori_end": 45}, "ITI": 1.7007669386071043, "rt": 788.4177000522614, "FBDuration": 0.5, "trial_count": 107, "ts": "motion", "response": "down", "onset": 746.4699816662948, "quest_estimate": 0.0013859474842619693, "FB": 1, "displayFB": true, "actualOnsetTime": 776.4883060455322, "punishment_amount": 0, "responseWindow": 1.5, "decision_var": 0.005522072929929504, "stimResponseInterval": 1}
{"stimulusDuration": 2, "reward_amount": 1, "FBonset": 0.5, "stim": {"ori_start": -60, "motion_direction": "out", "speed_end": 0.09621572933609224, "oriDirection": -1, "oriBase": -60, "motionDirection": "out", "speedDirection": -1, "speedStrength": "hard", "speed_start": 0.1, "oriStrength": "hard", "ori_end": -75}, "ITI": 1.3264521728885073, "rt": 795.6016061306, "FBDuration": 0.5, "trial_count": 108, "ts": "motion", "response": "up", "onset": 753.6707486049019, "quest_estimate": 0.005418817693977986, "FB": 0, "displayFB": true, "actualOnsetTime": 783.6882929801941, "punishment_amount": 0, "responseWindow": 1.5, "decision_var": 0.0037842706639077683, "stimResponseInterval": 1}
{"stimulusDuration": 2, "reward_amount": 1, "FBonset": 0.5, "stim": {"ori_start": -60, "motion_direction": "in", "speed_end": 0.10748172611896004, "oriDirection": 1, "oriBase": -60, "motionDirection": "in", "speedDirection": 1, "speedStrength": "easy", "speed_start": 0.1, "oriStrength": "easy", "ori_end": -35}, "ITI": 1.9652258601305737, "rt": 802.4508850574493, "FBDuration": 0.5, "trial_count": 109, "ts": "motion", "response": "up", "onset": 760.4972007777903, "quest_estimate": 0.005682286892576605, "FB": 1, "displayFB": true, "actualOnsetTime": 790.5148990154266, "punishment_amount": 0, "responseWindow": 1.5, "decision_var": 0.00748172611896003, "stimResponseInterval": 1}
{"stimulusDuration": 2, "reward_amount": 1, "FBonset": 0.5, "stim": {"ori_start": -60, "motion_direction": "in", "speed_end": 0.0933686795754003, "oriDirection": 1, "oriBase": -60, "motionDirection": "in", "speedDirection": -1, "speedStrength": "easy", "speed_start": 0.1, "oriStrength": "hard", "ori_end": -45}, "ITI": 1.6743154074249167, "rt": 809.9417850971222, "FBDuration": 0.5, "trial_count": 110, "ts": "motion", "response": "down", "onset": 767.9624266379209, "quest_estimate": 0.004954692798189317, "FB": 1, "displayFB": true, "actualOnsetTime": 797.9801280498505, "punishment_amount": 0, "responseWindow": 1.5, "decision_var": 0.006631320424599699, "stimResponseInterval": 1}
{"stimulusDuration": 2, "reward_amount": 1, "FBonset": 0.5, "stim": {"ori_start": -60, "motion_direction": "in", "speed_end": 0.10781101922765765, "oriDirection": -1, "oriBase": -60, "motionDirection": "in", "speedDirection": 1, "speedStrength": "hard", "speed_start": 0.1, "oriStrength": "hard", "ori_end": -75}, "ITI": 1.8353816698042296, "rt": 817.2829830646515, "FBDuration": 0.5, "trial_count": 111, "ts": "motion", "response": "up", "onset": 775.1367420453458, "quest_estimate": 0.003752085031768611, "FB": 1, "displayFB": true, "actualOnsetTime": 805.1544320583344, "punishment_amount": 0, "responseWindow": 1.5, "decision_var": 0.007811019227657652, "stimResponseInterval": 1}
{"stimulusDuration": 2, "reward_amount": 1, "FBonset": 0.5, "stim": {"ori_start": 30, "motion_direction": "out", "speed_end": 0.09387571915701881, "oriDirection": 1, "oriBase": 30, "motionDirection": "out", "speedDirection": -1, "speedStrength": "hard", "speed_start": 0.1, "oriStrength": "easy", "ori_end": 55}, "ITI": 1.2850864795594044, "rt": 824.4397821426392, "FBDuration": 0.5, "trial_count": 112, "ts": "motion", "response": "down", "onset": 782.47212371515, "quest_estimate": 0.0021137594714564154, "FB": 1, "displayFB": true, "actualOnsetTime": 812.4898900985718, "punishment_amount": 0, "responseWindow": 1.5, "decision_var": 0.006124280842981195, "stimResponseInterval": 1}
{"stimulusDuration": 2, "reward_amount": 1, "FBonset": 0.5, "stim": {"ori_start": 30, "motion_direction": "in", "speed_end": 0.09553451667540278, "oriDirection": -1, "oriBase": 30, "motionDirection": "in", "speedDirection": -1, "speedStrength": "hard", "speed_start": 0.1, "oriStrength": "hard", "ori_end": 15}, "ITI": 1.3678628328973796, "rt": 831.2393140792847, "FBDuration": 0.5, "trial_count": 113, "ts": "motion", "response": "down", "onset": 789.2572101947094, "quest_estimate": 0.0005051658713264712, "FB": 1, "displayFB": true, "actualOnsetTime": 819.2751030921936, "punishment_amount": 0, "responseWindow": 1.5, "decision_var": 0.004465483324597223, "stimResponseInterval": 1}
{"stimulusDuration": 2, "reward_amount": 1, "FBonset": 0.5, "stim": {"ori_start": 30, "motion_direction": "in", "speed_end": 0.10580929640436183, "oriDirection": 1, "oriBase": 30, "motionDirection": "in", "speedDirection": 1, "speedStrength": "easy", "speed_start": 0.1, "oriStrength": "easy", "ori_end": 55}, "ITI": 1.6758391880815644, "rt": 838.0968501567841, "FBDuration": 0.5, "trial_count": 114, "ts": "motion", "response": "up", "onset": 796.1250730276067, "quest_estimate": 0.004250374329754239, "FB": 1, "displayFB": true, "actualOnsetTime": 826.1427500247955, "punishment_amount": 0, "responseWindow": 1.5, "decision_var": 0.005809296404361827, "stimResponseInterval": 1}
{"stimulusDuration": 2, "reward_amount": 1, "FBonset": 0.5, "stim": {"ori_start": 30, "motion_direction": "in", "speed_end": 0.09498700979259882, "oriDirection": 1, "oriBase": 30, "motionDirection": "in", "speedDirection": -1, "speedStrength": "easy", "speed_start": 0.1, "oriStrength": "easy", "ori_end": 55}, "ITI": 1.8246688070397876, "rt": 845.3176701068878, "FBDuration": 0.5, "trial_count": 115, "ts": "motion", "response": "up", "onset": 803.3009122156883, "quest_estimate": 0.008091874364607052, "FB": 0, "displayFB": true, "actualOnsetTime": 833.3185529708862, "punishment_amount": 0, "responseWindow": 1.5, "decision_var": 0.005012990207401188, "stimResponseInterval": 1}
{"stimulusDuration": 2, "reward_amount": 1, "FBonset": 0.5, "stim": {"ori_start": -60, "motion_direction": "in", "speed_end": 0.10283593818979245, "oriDirection": 1, "oriBase": -60, "motionDirection": "in", "speedDirection": 1, "speedStrength": "hard", "speed_start": 0.1, "oriStrength": "easy", "ori_end": -35}, "ITI": 1.3991929661962619, "rt": 852.5556600093842, "FBDuration": 0.5, "trial_count": 116, "ts": "motion", "response": "up", "onset": 810.625581022728, "quest_estimate": -0.0010770602442407365, "FB": 1, "displayFB": true, "actualOnsetTime": 840.6432430744171, "punishment_amount": 0, "responseWindow": 1.5, "decision_var": 0.002835938189792442, "stimResponseInterval": 1}
{"stimulusDuration": 2, "reward_amount": 1, "FBonset": 0.5, "stim": {"ori_start": -60, "motion_direction": "out", "speed_end": 0.10948579537552922, "oriDirection": 1, "oriBase": -60, "motionDirection": "out", "speedDirection": 1, "speedStrength": "easy", "speed_start": 0.1, "oriStrength": "easy", "ori_end": -35}, "ITI": 1.5932568161720235, "rt": 859.4515600204468, "FBDuration": 0.5, "trial_count": 117, "ts": "motion", "response": "up", "onset": 817.5247739889243, "quest_estimate": 0.007331630821626328, "FB": 1, "displayFB": true, "actualOnsetTime": 847.5425431728363, "punishment_amount": 0, "responseWindow": 1.5, "decision_var": 0.00948579537552921, "stimResponseInterval": 1}
{"stimulusDuration": 2, "reward_amount": 1, "FBonset": 0.5, "stim": {"ori_start": 30, "motion_direction": "out", "speed_end": 0.10123197428919642, "oriDirection": -1, "oriBase": 30, "motionDirection": "out", "speedDirection": 1, "speedStrength": "hard", "speed_start": 0.1, "oriStrength": "hard", "ori_end": 15}, "ITI": 1.1949346863944124, "rt": 866.3224391937256, "FBDuration": 0.5, "trial_count": 118, "ts": "motion", "response": "down", "onset": 824.6180308050963, "quest_estimate": 0.0026475910111083203, "FB": 0, "displayFB": true, "actualOnsetTime": 854.635812997818, "punishment_amount": 0, "responseWindow": 1.5, "decision_var": 0.0012319742891964067, "stimResponseInterval": 1}
{"stimulusDuration": 2, "reward_amount": 1, "FBonset": 0.5, "stim": {"ori_start": 30, "motion_direction": "in", "speed_end": 0.10495250068913109, "oriDirection": -1, "oriBase": 30, "motionDirection": "in", "speedDirection": 1, "speedStrength": "hard", "speed_start": 0.1, "oriStrength": "easy", "ori_end": 5}, "ITI": 1.264700420572496, "rt": 873.2746200561523, "FBDuration": 0.5, "trial_count": 119, "ts": "motion", "response": "up", "onset": 831.3129654914907, "quest_estimate": 0.0011070990911399084, "FB": 1, "displayFB": true, "actualOnsetTime": 861.3305721282959, "punishment_amount": 0, "responseWindow": 1.5, "decision_var": 0.004952500689131077, "stimResponseInterval": 1}
{"stimulusDuration": 2, "reward_amount": 1, "FBonset": 0.5, "stim": {"ori_start": 30, "motion_direction": "in", "speed_end": 0.10339367423641893, "oriDirection": 1, "oriBase": 30, "motionDirection": "in", "speedDirection": 1, "speedStrength": "hard", "speed_start": 0.1, "oriStrength": "hard", "ori_end": 45}, "ITI": 1.5662615384226408, "rt": 880.0740430355072, "FBDuration": 0.5, "trial_count": 120, "ts": "motion", "response": "up", "onset": 838.0776659120631, "quest_estimate": -0.00040790907258217435, "FB": 1, "displayFB": true, "actualOnsetTime": 868.0955271720886, "punishment_amount": 0, "responseWindow": 1.5, "decision_var": 0.0033936742364189254, "stimResponseInterval": 1}
{"stimulusDuration": 2, "reward_amount": 1, "FBonset": 0.5, "stim": {"ori_start": 30, "motion_direction": "out", "speed_end": 0.09136747355427037, "oriDirection": 1, "oriBase": 30, "motionDirection": "out", "speedDirection": -1, "speedStrength": "easy", "speed_start": 0.1, "oriStrength": "easy", "ori_end": 55}, "ITI": 1.2754256339900039, "rt": 887.0790910720825, "FBDuration": 0.5, "trial_count": 121, "ts": "motion", "response": "down", "onset": 845.1439274504858, "quest_estimate": 0.006594710469618445, "FB": 1, "displayFB": true, "actualOnsetTime": 875.1616611480713, "punishment_amount": 0, "responseWindow": 1.5, "decision_var": 0.008632526445729635, "stimResponseInterval": 1}
{"stimulusDuration": 2, "reward_amount": 1, "FBonset": 0.5, "stim": {"ori_start": -60, "motion_direction": "out", "speed_end": 0.09814013069781655, "oriDirection": -1, "oriBase": -60, "motionDirection": "out", "speedDirection": -1, "speedStrength": "hard", "speed_start": 0.1, "oriStrength": "hard", "ori_end": -75}, "ITI": 1.2814576648602485, "rt": 894.055979013443, "FBDuration": 0.5, "trial_count": 122, "ts": "motion", "response": "up", "onset": 851.9193530844758, "quest_estimate": 0.0031611543454034066, "FB": 0, "displayFB": true, "actualOnsetTime": 881.9370460510254, "punishment_amount": 0, "responseWindow": 1.5, "decision_var": 0.0018598693021834659, "stimResponseInterval": 1}
{"stimulusDuration": 2, "reward_amount": 1, "FBonset": 0.5, "stim": {"ori_start": -60, "motion_direction": "in", "speed_end": 0.09219616512228573, "oriDirection": -1, "oriBase": -60, "motionDirection": "in", "speedDirection": -1, "speedStrength": "easy", "speed_start": 0.1, "oriStrength": "easy", "ori_end": -85}, "ITI": 1.5515114241136327, "rt": 900.6413130760193, "FBDuration": 0.5, "trial_count": 123, "ts": "motion", "response": "down", "onset": 858.700810749336, "quest_estimate": 0.005878700803417042, "FB": 1, "displayFB": true, "actualOnsetTime": 888.7184371948242, "punishment_amount": 0, "responseWindow": 1.5, "decision_var": 0.007803834877714272, "stimResponseInterval": 1}
{"stimulusDuration": 2, "reward_amount": 1, "FBonset": 0.5, "stim": {"ori_start": 30, "motion_direction": "out", "speed_end": 0.10699729105438979, "oriDirection": 1, "oriBase": 30, "motionDirection": "out", "speedDirection": 1, "speedStrength": "easy", "speed_start": 0.1, "oriStrength": "easy", "ori_end": 55}, "ITI": 1.4339175777849515, "rt": 907.8082451820374, "FBDuration": 0.5, "trial_count": 124, "ts": "motion", "response": "up", "onset": 865.7523221734497, "quest_estimate": 0.005184755617244616, "FB": 1, "displayFB": true, "actualOnsetTime": 895.769994020462, "punishment_amount": 0, "responseWindow": 1.5, "decision_var": 0.006997291054389787, "stimResponseInterval": 1}
{"stimulusDuration": 2, "reward_amount": 1, "FBonset": 0.5, "stim": {"ori_start": -60, "motion_direction": "out", "speed_end": 0.10542051598570923, "oriDirection": 1, "oriBase": -60, "motionDirection": "out", "speedDirection": 1, "speedStrength": "hard", "speed_start": 0.1, "oriStrength": "easy", "ori_end": -35}, "ITI": 1.326620071722644, "rt": 914.7277030944824, "FBDuration": 0.5, "trial_count": 125, "ts": "motion", "response": "up", "onset": 872.6862397512347, "quest_estimate": 0.0016837948455239587, "FB": 1, "displayFB": true, "actualOnsetTime": 902.7039279937744, "punishment_amount": 0, "responseWindow": 1.5, "decision_var": 0.005420515985709223, "stimResponseInterval": 1}
{"stimulusDuration": 2, "reward_amount": 1, "FBonset": 0.5, "stim": {"ori_start": -60, "motion_direction": "out", "speed_end": 0.0937853437697361, "oriDirection": -1, "oriBase": -60, "motionDirection": "out", "speedDirection": -1, "speedStrength": "easy", "speed_start": 0.1, "oriStrength": "easy", "ori_end": -85}, "ITI": 1.691740356882291, "rt": 921.6058540344238, "FBDuration": 0.5, "trial_count": 126, "ts": "motion", "response": "down", "onset": 879.5128598229574, "quest_estimate": 0.004512214824440919, "FB": 1, "displayFB": true, "actualOnsetTime": 909.530650138855, "punishment_amount": 0, "responseWindow": 1.5, "decision_var": 0.006214656230263904, "stimResponseInterval": 1}
{"stimulusDuration": 2, "reward_amount": 1, "FBonset": 0.5, "stim": {"ori_start": 30, "motion_direction": "out", "speed_end": 0.10392682885395485, "oriDirection": -1, "oriBase": 30, "motionDirection": "out", "speedDirection": 1, "speedStrength": "hard", "speed_start": 0.1, "oriStrength": "hard", "ori_end": 15}, "ITI": 1.563822952681854, "rt": 928.6933879852295, "FBDuration": 0.5, "trial_count": 127, "ts": "motion", "response": "down", "onset": 886.7046001798396, "quest_estimate": 0.005169908877889373, "FB": 0, "displayFB": true, "actualOnsetTime": 916.722442150116, "punishment_amount": 0, "responseWindow": 1.5, "decision_var": 0.0039268288539548515, "stimResponseInterval": 1}
{"stimulusDuration": 2, "reward_amount": 1, "FBonset": 0.5, "stim": {"ori_start": -60, "motion_direction": "out", "speed_end": 0.09260002408721808, "oriDirection": -1, "oriBase": -60, "motionDirection": "out", "speedDirection": -1, "speedStrength": "hard", "speed_start": 0.1, "oriStrength": "easy", "ori_end": -85}, "ITI": 1.3277576350003528, "rt": 935.708948135376, "FBDuration": 0.5, "trial_count": 128, "ts": "motion", "response": "down", "onset": 893.7684231325215, "quest_estimate": 0.003729473144728046, "FB": 1, "displayFB": true, "actualOnsetTime": 923.786187171936, "punishment_amount": 0, "responseWindow": 1.5, "decision_var": 0.007399975912781923, "stimResponseInterval": 1}
