,c_dis,context,response,rt,state,stim,trial_count,ts,rep_resp,switch,con_1dim,con_2dim,subj_ts,subj_switch,correct,stim_conform,true_context,abs_context,context_sign,context_diff,opt_observer_posterior,opt_observer_choices,opt_observer_switch,conform_opt_observer,opt_certainty,midline_observer_choices,midline_observer_switch,conform_midline_observer,id,log_rt
0,"{'mean': -0.3, 'sd': 0.37}",0.1,2,1.2251520156860352,0,"(1, 2)",1,0,False,,0,1,1,,False,True,0.1,0.1,1.0,,0.6235710566026291,1,,True,0.24714211320525825,1,,True,024,0.20306493073519225
1,"{'mean': -0.3, 'sd': 0.37}",-0.1,0,1.2664008140563965,0,"(0, 2)",2,0,False,0.0,1,0,0,1.0,True,True,-0.1,0.1,-1.0,-0.2,0.48969406167477875,0,True,True,0.020611876650442507,0,1.0,True,024,0.23617887239588994
2,"{'mean': -0.3, 'sd': 0.37}",-0.3,0,0.8333439826965332,0,"(1, 2)",3,0,True,0.0,0,0,0,0.0,False,False,-0.3,0.3,-1.0,-0.19999999999999998,0.19336796675117557,0,False,True,0.6132640664976489,0,0.0,True,024,-0.18230877763976852
3,"{'mean': -0.3, 'sd': 0.37}",-0.5,1,0.5383718013763428,0,"(1, 2)",4,0,False,0.0,1,0,0,0.0,True,True,-0.5,0.5,-1.0,-0.2,0.03139378017129242,0,False,True,0.9372124396574152,0,0.0,True,024,-0.6192058768814341
4,"{'mean': -0.3, 'sd': 0.37}",-0.7,1,0.4324791431427002,0,"(1, 2)",5,0,True,0.0,1,0,0,0.0,True,True,-0.7,0.7,-1.0,-0.19999999999999996,0.005131133501492403,0,False,True,0.9897377329970152,0,0.0,True,024,-0.838221177720529
5,"{'mean': -0.3, 'sd': 0.37}",-0.1,1,0.5722780227661133,0,"(1, 2)",6,0,True,0.0,1,0,0,0.0,True,True,-0.1,0.1,-1.0,0.6,0.07078091717078491,0,False,True,0.8584381656584301,0,0.0,True,024,-0.5581303519013072
6,"{'mean': -0.3, 'sd': 0.37}",-0.7,1,0.740109920501709,0,"(1, 3)",7,0,True,0.0,1,0,0,0.0,True,True,-0.7,0.7,-1.0,-0.6,0.006630351566946478,0,False,True,0.9867392968661071,0,0.0,True,024,-0.3009565625965504
7,"{'mean': -0.3, 'sd': 0.37}",-0.3,1,0.4866960048675537,0,"(1, 3)",8,0,True,0.0,1,0,0,0.0,True,True,-0.3,0.3,-1.0,0.39999999999999997,0.028820290792455537,0,False,True,0.942359418415089,0,0.0,True,024,-0.720115570790445
8,"{'mean': -0.3, 'sd': 0.37}",-0.1,0,0.5492861270904541,0,"(0, 3)",9,0,False,0.0,1,0,0,0.0,True,True,-0.1,0.1,-1.0,0.19999999999999998,0.08399436736063012,0,False,True,0.8320112652787397,0,0.0,True,024,-0.5991357945679029
9,"{'mean': -0.3, 'sd': 0.37}",-0.3,0,0.45793581008911133,0,"(0, 2)",10,0,True,0.0,1,0,0,0.0,True,True,-0.3,0.3,-1.0,-0.19999999999999998,0.047835403604980384,0,False,True,0.9043291927900392,0,0.0,True,024,-0.7810262573341133
10,"{'mean': -0.3, 'sd': 0.37}",-0.3,1,0.5834600925445557,0,"(1, 3)",11,0,False,0.0,1,0,0,0.0,True,True,-0.3,0.3,-1.0,0.0,0.038702731295063894,0,False,True,0.9225945374098722,0,0.0,True,024,-0.5387792228342867
11,"{'mean': -0.3, 'sd': 0.37}",-0.3,1,0.414247989654541,0,"(1, 3)",12,0,True,0.0,1,0,0,0.0,True,True,-0.3,0.3,-1.0,0.0,0.03646563080873158,0,False,True,0.9270687383825369,0,0.0,True,024,-0.881290475663605
12,"{'mean': -0.3, 'sd': 0.37}",-0.5,1,0.45235300064086914,0,"(1, 3)",13,0,True,0.0,1,0,0,0.0,True,True,-0.5,0.5,-1.0,-0.2,0.013989156893342397,0,False,True,0.9720216862133152,0,0.0,True,024,-0.7932924290829146
13,"{'mean': 0.3, 'sd': 0.37}",0.5,2,0.5911359786987305,1,"(0, 3)",14,1,False,1.0,0,0,1,1.0,False,False,0.5,0.5,1.0,1.0,0.5748253546038425,1,True,True,0.14965070920768508,1,1.0,True,024,-0.5257092056403759
14,"{'mean': 0.3, 'sd': 0.37}",0.3,2,0.5823700428009033,1,"(0, 2)",15,1,True,0.0,0,1,1,0.0,True,True,0.3,0.3,1.0,-0.2,0.8427597237400452,1,False,True,0.6855194474800903,1,0.0,True,024,-0.5406492209210633
15,"{'mean': 0.3, 'sd': 0.37}",0.5,3,0.47440290451049805,1,"(1, 3)",16,1,False,0.0,0,1,1,0.0,True,True,0.5,0.5,1.0,0.2,0.9731225669285465,1,False,True,0.946245133857093,1,0.0,True,024,-0.7456983088247456
16,"{'mean': 0.3, 'sd': 0.37}",0.1,2,0.5311999320983887,1,"(0, 2)",17,1,False,0.0,0,1,1,0.0,True,True,0.1,0.1,1.0,-0.4,0.9218733100897566,1,False,True,0.8437466201795132,1,0.0,True,024,-0.6326168086467496
17,"{'mean': 0.3, 'sd': 0.37}",0.7,3,0.583528995513916,1,"(0, 3)",18,1,False,0.0,0,1,1,0.0,True,True,0.7,0.7,1.0,0.6,0.9926586939960151,1,False,True,0.9853173879920303,1,0.0,True,024,-0.538661136092696
18,"{'mean': 0.3, 'sd': 0.37}",0.1,1,0.8178451061248779,1,"(1, 3)",19,1,False,0.0,1,0,0,1.0,False,True,0.1,0.1,1.0,-0.6,0.932189572340491,1,False,False,0.8643791446809821,1,0.0,False,024,-0.20108231712520797
19,"{'mean': 0.3, 'sd': 0.37}",0.5,3,0.8837699890136719,1,"(0, 3)",20,1,False,0.0,0,1,1,1.0,True,True,0.5,0.5,1.0,0.4,0.9829449612010825,1,False,True,0.9658899224021651,1,0.0,True,024,-0.12355844362412342
20,"{'mean': 0.3, 'sd': 0.37}",0.1,3,0.7378549575805664,1,"(0, 3)",21,1,True,0.0,0,1,1,0.0,True,True,0.1,0.1,1.0,-0.4,0.9270767999528641,1,False,True,0.8541535999057281,1,0.0,True,024,-0.3040080081407661
21,"{'mean': 0.3, 'sd': 0.37}",-0.1,0,0.8299751281738281,1,"(1, 2)",22,1,False,0.0,0,0,0,1.0,False,False,-0.1,0.1,-1.0,-0.2,0.7719982040785611,1,False,False,0.5439964081571222,0,1.0,True,024,-0.18635954469611343
22,"{'mean': 0.3, 'sd': 0.37}",0.1,2,0.7733950614929199,1,"(0, 2)",23,1,False,0.0,0,1,1,1.0,True,True,0.1,0.1,1.0,0.2,0.8073323597285085,1,False,True,0.614664719457017,1,1.0,True,024,-0.25696528527939216
23,"{'mean': 0.3, 'sd': 0.37}",0.5,3,0.9593379497528076,1,"(1, 3)",24,1,False,0.0,0,1,1,0.0,True,True,0.5,0.5,1.0,0.4,0.9687754250969169,1,False,True,0.9375508501938339,1,0.0,True,024,-0.041511868102481614
24,"{'mean': 0.3, 'sd': 0.37}",-0.1,0,0.8907592296600342,1,"(0, 2)",25,1,False,0.0,1,0,0,1.0,False,True,-0.1,0.1,-1.0,-0.6,0.8162963433263917,1,False,False,0.6325926866527833,0,1.0,True,024,-0.11568111287708732
25,"{'mean': 0.3, 'sd': 0.37}",0.7,3,0.8834011554718018,1,"(0, 3)",26,1,False,0.0,0,1,1,1.0,True,True,0.7,0.7,1.0,0.7999999999999999,0.9877115030189894,1,False,True,0.9754230060379787,1,1.0,True,024,-0.12397587183799703
26,"{'mean': 0.3, 'sd': 0.37}",-0.1,0,0.9747850894927979,1,"(0, 2)",27,1,False,0.0,1,0,0,1.0,False,True,-0.1,0.1,-1.0,-0.7999999999999999,0.8369190414206732,1,False,False,0.6738380828413464,0,1.0,True,024,-0.025538253313603963
27,"{'mean': 0.3, 'sd': 0.37}",-0.7,0,0.6697080135345459,1,"(0, 2)",28,1,True,0.0,1,0,0,0.0,False,True,-0.7,0.7,-1.0,-0.6,0.10549574907615557,0,True,True,0.7890085018476889,0,0.0,True,024,-0.40091346228055413
28,"{'mean': 0.3, 'sd': 0.37}",0.9,3,0.9316730499267578,1,"(1, 3)",29,1,False,0.0,0,1,1,1.0,True,True,0.9,0.9,1.0,1.6,0.9372207702985477,1,True,True,0.8744415405970953,1,1.0,True,024,-0.07077333064255993
29,"{'mean': 0.3, 'sd': 0.37}",0.7,2,0.7547039985656738,1,"(1, 2)",30,1,False,0.0,0,1,1,0.0,True,True,0.7,0.7,1.0,-0.20000000000000007,0.9932997960206646,1,False,True,0.9865995920413293,1,0.0,True,024,-0.2814296614866221
30,"{'mean': 0.3, 'sd': 0.37}",0.3,3,1.3490869998931885,1,"(0, 3)",31,1,False,0.0,0,1,1,0.0,True,True,0.3,0.3,1.0,-0.39999999999999997,0.972368008348202,1,False,True,0.9447360166964041,1,0.0,True,024,0.2994280672833687
31,"{'mean': 0.3, 'sd': 0.37}",0.7,3,0.8636670112609863,1,"(1, 3)",32,1,True,0.0,0,1,1,0.0,True,True,0.7,0.7,1.0,0.39999999999999997,0.9947034756445035,1,False,True,0.9894069512890069,1,0.0,True,024,-0.14656798809826693
32,"{'mean': 0.3, 'sd': 0.37}",0.7,3,0.788532018661499,1,"(0, 3)",33,1,True,0.0,0,1,1,0.0,True,True,0.7,0.7,1.0,0.0,0.995551723496473,1,False,True,0.9911034469929461,1,0.0,True,024,-0.2375822663502236
33,"{'mean': 0.3, 'sd': 0.37}",0.5,2,0.6627559661865234,1,"(1, 2)",34,1,False,0.0,0,1,1,0.0,True,True,0.5,0.5,1.0,-0.19999999999999996,0.9890560147047991,1,False,True,0.9781120294095982,1,0.0,True,024,-0.41134843168600205
34,"{'mean': 0.3, 'sd': 0.37}",0.1,3,0.9658229351043701,1,"(1, 3)",35,1,False,0.0,0,1,1,0.0,True,True,0.1,0.1,1.0,-0.4,0.9302971470233122,1,False,True,0.8605942940466245,1,0.0,True,024,-0.0347747585639717
35,"{'mean': 0.3, 'sd': 0.37}",0.1,3,0.9800601005554199,1,"(1, 3)",36,1,True,0.0,0,1,1,0.0,True,True,0.1,0.1,1.0,0.0,0.8987840423026842,1,False,True,0.7975680846053683,1,0.0,True,024,-0.020141382100581737
36,"{'mean': 0.3, 'sd': 0.37}",0.1,2,1.1828670501708984,1,"(0, 2)",37,1,False,0.0,0,1,1,0.0,True,True,0.1,0.1,1.0,0.0,0.8813639661394701,1,False,True,0.7627279322789402,1,0.0,True,024,0.16794119505512273
37,"{'mean': 0.3, 'sd': 0.37}",0.7,3,0.937593936920166,1,"(0, 3)",38,1,False,0.0,0,1,1,0.0,True,True,0.7,0.7,1.0,0.6,0.9908771980309867,1,False,True,0.9817543960619735,1,0.0,True,024,-0.06443832677568348
38,"{'mean': 0.3, 'sd': 0.37}",0.5,3,0.6951918601989746,1,"(1, 3)",39,1,True,0.0,0,1,1,0.0,True,True,0.5,0.5,1.0,-0.19999999999999996,0.9886263591054288,1,False,True,0.9772527182108577,1,0.0,True,024,-0.3635674136740481
39,"{'mean': 0.3, 'sd': 0.37}",0.1,2,0.9050090312957764,1,"(1, 2)",40,1,False,0.0,0,1,1,0.0,True,True,0.1,0.1,1.0,-0.4,0.9300711558258695,1,False,True,0.860142311651739,1,0.0,True,024,-0.09981035599965456
40,"{'mean': -0.3, 'sd': 0.37}",0.1,3,0.7543129920959473,0,"(1, 3)",41,0,False,1.0,0,1,1,0.0,False,True,0.1,0.1,1.0,0.0,0.8986604331338331,1,False,True,0.7973208662676663,1,0.0,True,024,-0.28194788822746986
41,"{'mean': -0.3, 'sd': 0.37}",0.3,2,0.780350923538208,0,"(1, 2)",42,0,False,0.0,0,1,1,0.0,False,True,0.3,0.3,1.0,0.19999999999999998,0.9497580857353028,1,False,True,0.8995161714706057,1,0.0,True,024,-0.2480115585019854
42,"{'mean': -0.3, 'sd': 0.37}",-0.1,0,1.1129169464111328,0,"(0, 2)",43,0,False,0.0,1,0,0,1.0,True,True,-0.1,0.1,-1.0,-0.4,0.7959062614550713,1,False,False,0.5918125229101425,0,1.0,True,024,0.10698444813544929
43,"{'mean': -0.3, 'sd': 0.37}",-0.1,0,0.9204061031341553,0,"(0, 3)",44,0,True,0.0,1,0,0,0.0,True,True,-0.1,0.1,-1.0,0.0,0.6419091400594791,1,False,False,0.28381828011895816,0,0.0,True,024,-0.08294028988446324
44,"{'mean': -0.3, 'sd': 0.37}",-0.5,0,0.8493270874023438,0,"(0, 3)",45,0,True,0.0,1,0,0,0.0,True,True,-0.5,0.5,-1.0,-0.4,0.1300121417004506,0,True,True,0.7399757165990988,0,0.0,True,024,-0.16331090490712025
45,"{'mean': -0.3, 'sd': 0.37}",-0.3,1,0.6640779972076416,0,"(1, 2)",46,0,False,0.0,1,0,0,0.0,True,True,-0.3,0.3,-1.0,0.2,0.060135010411791784,0,False,True,0.8797299791764164,0,0.0,True,024,-0.40935567073009627
46,"{'mean': -0.3, 'sd': 0.37}",-0.1,1,0.5088269710540771,0,"(1, 3)",47,0,True,0.0,1,0,0,0.0,True,True,-0.1,0.1,-1.0,0.19999999999999998,0.1017491011324455,0,False,True,0.796501797735109,0,0.0,True,024,-0.6756472592139956
47,"{'mean': -0.3, 'sd': 0.37}",-0.1,1,0.4419100284576416,0,"(1, 2)",48,0,True,0.0,1,0,0,0.0,True,True,-0.1,0.1,-1.0,0.0,0.1258654145659548,0,False,True,0.7482691708680904,0,0.0,True,024,-0.8166489731503745
48,"{'mean': -0.3, 'sd': 0.37}",-0.5,1,0.46175694465637207,0,"(1, 3)",49,0,True,0.0,1,0,0,0.0,True,True,-0.5,0.5,-1.0,-0.4,0.023314889354753614,0,False,True,0.9533702212904928,0,0.0,True,024,-0.7727166201536827
49,"{'mean': -0.3, 'sd': 0.37}",-0.5,1,0.40640687942504883,0,"(1, 3)",50,0,True,0.0,1,0,0,0.0,True,True,-0.5,0.5,-1.0,0.0,0.012731241589606859,0,False,True,0.9745375168207863,0,0.0,True,024,-0.9004004551420209
50,"{'mean': -0.3, 'sd': 0.37}",-0.3,0,0.6648209095001221,0,"(0, 2)",51,0,False,0.0,1,0,0,0.0,True,True,-0.3,0.3,-1.0,0.2,0.030249892828694027,0,False,True,0.939500214342612,0,0.0,True,024,-0.4082375836188426
51,"{'mean': -0.3, 'sd': 0.37}",0.3,2,0.9382212162017822,0,"(0, 2)",52,0,False,0.0,0,1,1,1.0,False,True,0.3,0.3,1.0,0.6,0.37769462981612933,0,False,False,0.24461074036774133,1,1.0,True,024,-0.06376951961315021
52,"{'mean': -0.3, 'sd': 0.37}",0.5,3,0.8039288520812988,0,"(0, 3)",53,0,False,0.0,0,1,1,0.0,False,True,0.5,0.5,1.0,0.2,0.8774892166841307,1,True,True,0.7549784333682614,1,0.0,True,024,-0.2182445061550528
53,"{'mean': -0.3, 'sd': 0.37}",-0.3,0,0.8547120094299316,0,"(0, 2)",54,0,False,0.0,1,0,0,1.0,True,True,-0.3,0.3,-1.0,-0.8,0.49882957661572525,0,True,True,0.0023408467685495093,0,1.0,True,024,-0.15699069786180872
54,"{'mean': -0.3, 'sd': 0.37}",-1.0,0,0.7274041175842285,0,"(0, 2)",55,0,True,0.0,1,0,0,0.0,True,True,-1.0,1.0,-1.0,-0.7,0.007972599673939595,0,False,True,0.9840548006521208,0,0.0,True,024,-0.3182730857575762
55,"{'mean': -0.3, 'sd': 0.37}",-0.5,0,0.7172269821166992,0,"(0, 2)",56,0,True,0.0,1,0,0,0.0,True,True,-0.5,0.5,-1.0,0.5,0.011297137212795549,0,False,True,0.9774057255744089,0,0.0,True,024,-0.3323629164910386
56,"{'mean': -0.3, 'sd': 0.37}",-0.7,0,0.6607670783996582,0,"(0, 3)",57,0,True,0.0,1,0,0,0.0,True,True,-0.7,0.7,-1.0,-0.19999999999999996,0.004405319229209559,0,False,True,0.9911893615415809,0,0.0,True,024,-0.414353878840229
57,"{'mean': -0.3, 'sd': 0.37}",0.9,3,1.0481338500976562,0,"(0, 3)",58,0,False,0.0,0,1,1,1.0,False,True,0.9,0.9,1.0,1.6,0.8849917921339837,1,True,True,0.7699835842679674,1,1.0,True,024,0.047011297302234266
58,"{'mean': -0.3, 'sd': 0.37}",-0.5,0,0.8550219535827637,0,"(0, 3)",59,0,False,0.0,1,0,0,1.0,True,True,-0.5,0.5,-1.0,-1.4,0.2824476369188465,0,True,True,0.435104726162307,0,1.0,True,024,-0.15662813367003103
59,"{'mean': -0.3, 'sd': 0.37}",0.3,3,0.7344341278076172,0,"(0, 3)",60,0,False,0.0,0,1,1,1.0,False,True,0.3,0.3,1.0,0.8,0.6717635680280847,1,True,True,0.34352713605616936,1,1.0,True,024,-0.30865497042929235
60,"{'mean': -0.3, 'sd': 0.37}",0.1,2,0.8501391410827637,0,"(0, 2)",61,0,False,0.0,0,1,1,0.0,False,True,0.1,0.1,1.0,-0.19999999999999998,0.7439038991826687,1,False,True,0.4878077983653375,1,0.0,True,024,-0.16235524750291688
61,"{'mean': 0.3, 'sd': 0.37}",0.5,3,0.7776110172271729,1,"(0, 3)",62,1,False,1.0,0,1,1,0.0,True,True,0.5,0.5,1.0,0.4,0.9602244671939679,1,False,True,0.9204489343879358,1,0.0,True,024,-0.25152885769145533
62,"{'mean': 0.3, 'sd': 0.37}",0.1,0,1.2889890670776367,1,"(1, 2)",63,1,False,0.0,0,0,0,1.0,False,False,0.1,0.1,1.0,-0.4,0.9149886907772841,1,False,False,0.8299773815545681,1,0.0,False,024,0.2538582422124976
63,"{'mean': 0.3, 'sd': 0.37}",-0.3,1,1.0035009384155273,1,"(1, 3)",64,1,False,0.0,1,0,0,0.0,False,True,-0.3,0.3,-1.0,-0.4,0.5484333789697653,1,False,False,0.09686675793953059,0,1.0,True,024,0.0034948243963470287
64,"{'mean': 0.3, 'sd': 0.37}",0.5,2,0.8886229991912842,1,"(1, 2)",65,1,False,0.0,0,1,1,1.0,True,True,0.5,0.5,1.0,0.8,0.925412731488333,1,False,True,0.8508254629766661,1,1.0,True,024,-0.11808220631326727
65,"{'mean': 0.3, 'sd': 0.37}",1.0,3,0.7743690013885498,1,"(0, 3)",66,1,False,0.0,0,1,1,0.0,True,True,1.0,1.0,1.0,0.5,0.9981286199005576,1,False,True,0.9962572398011151,1,0.0,True,024,-0.25570677301962974
66,"{'mean': 0.3, 'sd': 0.37}",0.5,2,0.6013140678405762,1,"(0, 2)",67,1,False,0.0,0,1,1,0.0,True,True,0.5,0.5,1.0,-0.5,0.989291500965806,1,False,True,0.978583001931612,1,0.0,True,024,-0.5086379055000347
67,"{'mean': 0.3, 'sd': 0.37}",0.5,2,0.6229889392852783,1,"(0, 2)",68,1,True,0.0,0,1,1,0.0,True,True,0.5,0.5,1.0,0.0,0.9884798794106866,1,False,True,0.9769597588213732,1,0.0,True,024,-0.4732265143085018
68,"{'mean': 0.3, 'sd': 0.37}",1.0,2,0.6699850559234619,1,"(1, 2)",69,1,True,0.0,0,1,1,0.0,True,True,1.0,1.0,1.0,0.5,0.9987841471980178,1,False,True,0.9975682943960356,1,0.0,True,024,-0.4004998714377243
69,"{'mean': 0.3, 'sd': 0.37}",0.1,2,0.7075350284576416,1,"(1, 2)",70,1,True,0.0,0,1,1,0.0,True,True,0.1,0.1,1.0,-0.9,0.9353968656170716,1,False,True,0.8707937312341432,1,0.0,True,024,-0.34596814050285396
70,"{'mean': 0.3, 'sd': 0.37}",0.1,2,0.5691430568695068,1,"(1, 2)",71,1,True,0.0,0,1,1,0.0,True,True,0.1,0.1,1.0,0.0,0.9015684141995541,1,False,True,0.8031368283991083,1,0.0,True,024,-0.5636234584076848
71,"{'mean': 0.3, 'sd': 0.37}",0.5,3,0.718919038772583,1,"(0, 3)",72,1,False,0.0,0,1,1,0.0,True,True,0.5,0.5,1.0,0.4,0.9797522983186736,1,False,True,0.9595045966373472,1,0.0,True,024,-0.33000653014284165
72,"{'mean': 0.3, 'sd': 0.37}",0.3,2,0.7421069145202637,1,"(1, 2)",73,1,False,0.0,0,1,1,0.0,True,True,0.3,0.3,1.0,-0.2,0.9693066921779784,1,False,True,0.9386133843559568,1,0.0,True,024,-0.2982619565447221
73,"{'mean': 0.3, 'sd': 0.37}",0.3,2,0.8845841884613037,1,"(1, 2)",74,1,True,0.0,0,1,1,0.0,True,True,0.3,0.3,1.0,0.0,0.9669082241287907,1,False,True,0.9338164482575815,1,0.0,True,024,-0.12263758793182143
74,"{'mean': 0.3, 'sd': 0.37}",-0.5,0,0.7916290760040283,1,"(0, 2)",75,1,False,0.0,1,0,0,1.0,False,True,-0.5,0.5,-1.0,-0.8,0.39109051947462703,0,True,True,0.21781896105074594,0,1.0,True,024,-0.23366233525113578
75,"{'mean': 0.3, 'sd': 0.37}",0.5,2,0.7790780067443848,1,"(0, 2)",76,1,False,0.0,0,1,1,1.0,True,True,0.5,0.5,1.0,1.0,0.882160632781327,1,True,True,0.7643212655626539,1,1.0,True,024,-0.2496441010973147
76,"{'mean': 0.3, 'sd': 0.37}",0.3,2,0.7418711185455322,1,"(1, 2)",77,1,True,0.0,0,1,1,0.0,True,True,0.3,0.3,1.0,-0.2,0.9455032369496276,1,False,True,0.8910064738992551,1,0.0,True,024,-0.29857974558399614
77,"{'mean': -0.3, 'sd': 0.37}",-0.3,0,0.7706968784332275,0,"(0, 3)",78,0,False,1.0,1,0,0,1.0,True,True,-0.3,0.3,-1.0,-0.6,0.5934074549237287,1,False,False,0.1868149098474574,0,1.0,True,024,-0.26046013650712174
78,"{'mean': -0.3, 'sd': 0.37}",-0.3,1,0.7181057929992676,0,"(1, 3)",79,0,False,0.0,1,0,0,0.0,True,True,-0.3,0.3,-1.0,0.0,0.2505715751576822,0,True,True,0.4988568496846356,0,0.0,True,024,-0.3311383767778534
79,"{'mean': -0.3, 'sd': 0.37}",-0.7,0,0.6915409564971924,0,"(0, 3)",80,0,False,0.0,1,0,0,0.0,True,True,-0.7,0.7,-1.0,-0.39999999999999997,0.015098281668651662,0,False,True,0.9698034366626966,0,0.0,True,024,-0.3688329011465293
80,"{'mean': 0.3, 'sd': 0.37}",0.1,2,0.7524909973144531,1,"(1, 2)",81,1,False,1.0,0,1,1,1.0,True,True,0.1,0.1,1.0,0.7999999999999999,0.17529769970589487,0,False,False,0.6494046005882103,1,1.0,True,024,-0.2843662461323953
81,"{'mean': 0.3, 'sd': 0.37}",0.3,3,0.5654118061065674,1,"(0, 3)",82,1,False,0.0,0,1,1,0.0,True,True,0.3,0.3,1.0,0.19999999999999998,0.572972121940745,1,True,True,0.14594424388148997,1,0.0,True,024,-0.570200952959811
82,"{'mean': 0.3, 'sd': 0.37}",0.3,2,0.5169720649719238,1,"(1, 2)",83,1,False,0.0,0,1,1,0.0,True,True,0.3,0.3,1.0,0.0,0.8419645591890949,1,False,True,0.6839291183781897,1,0.0,True,024,-0.6597664388698572
83,"{'mean': 0.3, 'sd': 0.37}",0.1,2,0.5724430084228516,1,"(1, 2)",84,1,True,0.0,0,1,1,0.0,True,True,0.1,0.1,1.0,-0.19999999999999998,0.8489920151793856,1,False,True,0.6979840303587712,1,0.0,True,024,-0.5578420971154066
84,"{'mean': 0.3, 'sd': 0.37}",-0.3,1,0.7938690185546875,1,"(1, 3)",85,1,False,0.0,1,0,0,1.0,False,True,-0.3,0.3,-1.0,-0.4,0.4647286824671911,0,True,True,0.07054263506561775,0,1.0,True,024,-0.23083679537998217
85,"{'mean': 0.3, 'sd': 0.37}",0.7,3,0.9012229442596436,1,"(0, 3)",86,1,False,0.0,0,1,1,1.0,True,True,0.7,0.7,1.0,1.0,0.9594995690935811,1,True,True,0.9189991381871623,1,1.0,True,024,-0.10400261107254767
86,"{'mean': 0.3, 'sd': 0.37}",0.3,2,0.7094018459320068,1,"(1, 2)",87,1,False,0.0,0,1,1,0.0,True,True,0.3,0.3,1.0,-0.39999999999999997,0.9646254891595184,1,False,True,0.9292509783190368,1,0.0,True,024,-0.3433331345428056
87,"{'mean': -0.3, 'sd': 0.37}",-0.1,1,1.071338176727295,0,"(1, 2)",88,0,False,1.0,1,0,0,1.0,True,True,-0.1,0.1,-1.0,-0.4,0.8118196603117522,1,False,False,0.6236393206235045,0,1.0,True,024,0.06890849953988075
88,"{'mean': -0.3, 'sd': 0.37}",0.1,2,1.0791609287261963,0,"(0, 2)",89,0,False,0.0,0,1,1,1.0,False,True,0.1,0.1,1.0,0.2,0.8312936755429583,1,False,True,0.6625873510859166,1,1.0,True,024,0.07618382133293661
89,"{'mean': -0.3, 'sd': 0.37}",-0.7,1,0.8384799957275391,0,"(1, 3)",90,0,False,0.0,1,0,0,1.0,True,True,-0.7,0.7,-1.0,-0.7999999999999999,0.10315858240346241,0,True,True,0.7936828351930751,0,1.0,True,024,-0.17616455521569857
90,"{'mean': -0.3, 'sd': 0.37}",-0.1,0,0.6640698909759521,0,"(0, 3)",91,0,False,0.0,1,0,0,0.0,True,True,-0.1,0.1,-1.0,0.6,0.12669290815857967,0,False,True,0.7466141836828406,0,0.0,True,024,-0.4093678775509807
91,"{'mean': -0.3, 'sd': 0.37}",-0.5,1,0.7501850128173828,0,"(1, 3)",92,0,False,0.0,1,0,0,0.0,True,True,-0.5,0.5,-1.0,-0.4,0.023408091280572606,0,False,True,0.9531838174388548,0,0.0,True,024,-0.2874354191167055
92,"{'mean': -0.3, 'sd': 0.37}",0.5,2,1.0284559726715088,0,"(0, 3)",93,0,False,0.0,0,0,1,1.0,False,False,0.5,0.5,1.0,1.0,0.592530764486721,1,True,True,0.18506152897344208,1,1.0,True,024,0.02805862187474056
93,"{'mean': -0.3, 'sd': 0.37}",-0.9,0,0.8513360023498535,0,"(0, 2)",94,0,False,0.0,1,0,0,1.0,True,True,-0.9,0.9,-1.0,-1.4,0.017532005392014924,0,True,True,0.9649359892159701,0,1.0,True,024,-0.16094839596104754
94,"{'mean': -0.3, 'sd': 0.37}",-0.5,0,1.0646212100982666,0,"(0, 3)",95,0,True,0.0,1,0,0,0.0,True,True,-0.5,0.5,-1.0,0.4,0.012186528324133566,0,False,True,0.9756269433517328,0,0.0,True,024,0.0626190646261276
95,"{'mean': -0.3, 'sd': 0.37}",-0.3,0,0.7905869483947754,0,"(0, 3)",96,0,True,0.0,1,0,0,0.0,True,True,-0.3,0.3,-1.0,0.2,0.03012178803838806,0,False,True,0.9397564239232239,0,0.0,True,024,-0.23497963673700306
96,"{'mean': -0.3, 'sd': 0.37}",-0.1,0,0.7922029495239258,0,"(0, 3)",97,0,True,0.0,1,0,0,0.0,True,True,-0.1,0.1,-1.0,0.19999999999999998,0.08472570999035366,0,False,True,0.8305485800192927,0,0.0,True,024,-0.23293767059508455
97,"{'mean': -0.3, 'sd': 0.37}",-0.3,1,0.6945779323577881,0,"(1, 3)",98,0,False,0.0,1,0,0,0.0,True,True,-0.3,0.3,-1.0,-0.19999999999999998,0.04802479794251582,0,False,True,0.9039504041149684,0,0.0,True,024,-0.3644509094650903
98,"{'mean': -0.3, 'sd': 0.37}",-0.5,0,0.6459028720855713,0,"(0, 3)",99,0,False,0.0,1,0,0,0.0,True,True,-0.5,0.5,-1.0,-0.2,0.015117404842992293,0,False,True,0.9697651903140154,0,0.0,True,024,-0.437106139312365
99,"{'mean': -0.3, 'sd': 0.37}",-0.3,1,0.7289688587188721,0,"(1, 2)",100,0,False,0.0,1,0,0,0.0,True,True,-0.3,0.3,-1.0,0.2,0.030812144727691157,0,False,True,0.9383757105446177,0,0.0,True,024,-0.31612426569267027
100,"{'mean': -0.3, 'sd': 0.37}",-0.5,0,0.771406888961792,0,"(0, 3)",101,0,False,0.0,1,0,0,0.0,True,True,-0.5,0.5,-1.0,-0.2,0.013445078116663334,0,False,True,0.9731098437666733,0,0.0,True,024,-0.2595393027814717
101,"{'mean': -0.3, 'sd': 0.37}",-0.1,0,0.7227749824523926,0,"(0, 2)",102,0,True,0.0,1,0,0,0.0,True,True,-0.1,0.1,-1.0,0.4,0.07539723988322279,0,False,True,0.8492055202335544,0,0.0,True,024,-0.32465733285478166
102,"{'mean': -0.3, 'sd': 0.37}",-0.3,1,0.8312687873840332,0,"(1, 3)",103,0,False,0.0,1,0,0,0.0,True,True,-0.3,0.3,-1.0,-0.19999999999999998,0.04562319308602997,0,False,True,0.9087536138279401,0,0.0,True,024,-0.18480208590322966
103,"{'mean': -0.3, 'sd': 0.37}",-0.5,0,0.6273541450500488,0,"(0, 3)",104,0,False,0.0,1,0,0,0.0,True,True,-0.5,0.5,-1.0,-0.2,0.014881222975294987,0,False,True,0.97023755404941,0,0.0,True,024,-0.4662440731613885
104,"{'mean': 0.3, 'sd': 0.37}",0.1,0,0.5916948318481445,1,"(0, 3)",105,1,True,1.0,1,0,0,0.0,False,True,0.1,0.1,1.0,0.6,0.17504965687609933,0,False,True,0.6499006862478014,1,1.0,False,024,-0.5247642637500988
105,"{'mean': 0.3, 'sd': 0.37}",0.3,2,0.7578649520874023,1,"(0, 3)",106,1,False,0.0,0,0,1,1.0,False,False,0.3,0.3,1.0,0.19999999999999998,0.5727079768004577,1,True,True,0.14541595360091542,1,0.0,True,024,-0.2772500726858463
106,"{'mean': 0.3, 'sd': 0.37}",0.3,2,1.0968101024627686,1,"(1, 2)",107,1,True,0.0,0,1,1,0.0,True,True,0.3,0.3,1.0,0.0,0.8418510026505329,1,False,True,0.6837020053010658,1,0.0,True,024,0.09240606007581686
107,"{'mean': -0.3, 'sd': 0.37}",-0.9,0,0.90236496925354,0,"(0, 3)",108,0,False,1.0,1,0,0,1.0,True,True,-0.9,0.9,-1.0,-1.2,0.043042186057511755,0,True,True,0.9139156278849765,0,1.0,True,024,-0.10273621852470803
108,"{'mean': -0.3, 'sd': 0.37}",0.1,0,0.7371721267700195,0,"(0, 3)",109,0,True,0.0,1,0,0,0.0,True,True,0.1,0.1,1.0,1.0,0.20679869652233254,0,False,True,0.586402606955335,1,1.0,False,024,-0.30493386349158474
109,"{'mean': -0.3, 'sd': 0.37}",-0.1,1,0.5163609981536865,0,"(1, 2)",110,0,False,0.0,1,0,0,0.0,True,True,-0.1,0.1,-1.0,-0.2,0.18954224938415726,0,False,True,0.6209155012316855,0,1.0,True,024,-0.6609491492877725
110,"{'mean': -0.3, 'sd': 0.37}",-0.1,0,0.6572117805480957,0,"(0, 3)",111,0,False,0.0,1,0,0,0.0,True,True,-0.1,0.1,-1.0,0.0,0.17879583417633113,0,False,True,0.6424083316473377,0,0.0,True,024,-0.4197489676173934
111,"{'mean': -0.3, 'sd': 0.37}",-0.7,1,0.6072201728820801,0,"(1, 3)",112,0,False,0.0,1,0,0,0.0,True,True,-0.7,0.7,-1.0,-0.6,0.01135079203095201,0,False,True,0.977298415938096,0,0.0,True,024,-0.4988638306560072
112,"{'mean': -0.3, 'sd': 0.37}",-0.3,0,0.5565440654754639,0,"(0, 3)",113,0,False,0.0,1,0,0,0.0,True,True,-0.3,0.3,-1.0,0.39999999999999997,0.029925418291660438,0,False,True,0.9401491634166791,0,0.0,True,024,-0.5860089281570455
113,"{'mean': 0.3, 'sd': 0.37}",0.5,2,0.7348558902740479,1,"(0, 2)",114,1,False,1.0,0,1,1,1.0,True,True,0.5,0.5,1.0,0.8,0.6041037979666222,1,True,True,0.20820759593324434,1,1.0,True,024,-0.3080808666474324
114,"{'mean': 0.3, 'sd': 0.37}",0.1,2,1.3070628643035889,1,"(1, 2)",115,1,True,0.0,0,1,1,0.0,True,True,0.1,0.1,1.0,-0.4,0.6983698114758727,1,False,True,0.3967396229517455,1,0.0,True,024,0.2677825316518848
115,"{'mean': 0.3, 'sd': 0.37}",0.1,3,1.1604688167572021,1,"(0, 3)",116,1,False,0.0,0,1,1,0.0,True,True,0.1,0.1,1.0,0.0,0.7611930722640634,1,False,True,0.5223861445281268,1,0.0,True,024,0.14882407584759777
116,"{'mean': 0.3, 'sd': 0.37}",0.3,2,0.7318911552429199,1,"(1, 2)",117,1,False,0.0,0,1,1,0.0,True,True,0.3,0.3,1.0,0.19999999999999998,0.9109561171675006,1,False,True,0.8219122343350012,1,0.0,True,024,-0.31212347110035993
117,"{'mean': 0.3, 'sd': 0.37}",0.3,3,0.8824338912963867,1,"(1, 3)",118,1,False,0.0,0,1,1,0.0,True,True,0.3,0.3,1.0,0.0,0.9528649023793627,1,False,True,0.9057298047587254,1,0.0,True,024,-0.12507140369294242
118,"{'mean': 0.3, 'sd': 0.37}",-0.1,1,1.1567280292510986,1,"(1, 2)",119,1,False,0.0,1,0,0,1.0,False,True,-0.1,0.1,-1.0,-0.4,0.7992156613738111,1,False,False,0.5984313227476221,0,1.0,True,024,0.1455953551092253
119,"{'mean': 0.3, 'sd': 0.37}",0.5,3,0.7918767929077148,1,"(1, 3)",120,1,False,0.0,0,1,1,1.0,True,True,0.5,0.5,1.0,0.6,0.9677384389137342,1,False,True,0.9354768778274685,1,1.0,True,024,-0.23334946377958576
120,"{'mean': 0.3, 'sd': 0.37}",0.1,3,1.0554649829864502,1,"(1, 3)",121,1,True,0.0,0,1,1,0.0,True,True,0.1,0.1,1.0,-0.4,0.9190066041883634,1,False,True,0.8380132083767269,1,0.0,True,024,0.05398141199698135
121,"{'mean': 0.3, 'sd': 0.37}",0.3,3,0.9318490028381348,1,"(1, 3)",122,1,True,0.0,0,1,1,0.0,True,True,0.3,0.3,1.0,0.19999999999999998,0.9548702564010237,1,False,True,0.9097405128020475,1,0.0,True,024,-0.07058449154442448
122,"{'mean': 0.3, 'sd': 0.37}",0.7,2,0.870837926864624,1,"(1, 2)",123,1,False,0.0,0,1,1,0.0,True,True,0.7,0.7,1.0,0.39999999999999997,0.9940155637407739,1,False,True,0.9880311274815479,1,0.0,True,024,-0.1382993965226246
123,"{'mean': 0.3, 'sd': 0.37}",-0.1,0,0.9403250217437744,1,"(0, 3)",124,1,False,0.0,1,0,0,1.0,False,True,-0.1,0.1,-1.0,-0.7999999999999999,0.8438566929882414,1,False,False,0.6877133859764828,0,1.0,True,024,-0.06152969566947569
124,"{'mean': 0.3, 'sd': 0.37}",0.3,2,1.028198003768921,1,"(0, 2)",125,1,False,0.0,0,1,1,1.0,True,True,0.3,0.3,1.0,0.4,0.935228134307936,1,False,True,0.8704562686158721,1,1.0,True,024,0.02780775915607629
125,"{'mean': 0.3, 'sd': 0.37}",-0.3,0,0.9808039665222168,1,"(0, 2)",126,1,False,0.0,1,0,0,1.0,False,True,-0.3,0.3,-1.0,-0.6,0.5777574801967367,1,False,False,0.15551496039347334,0,1.0,True,024,-0.01938266963808144
126,"{'mean': 0.3, 'sd': 0.37}",-0.3,1,0.9398910999298096,1,"(1, 2)",127,1,False,0.0,1,0,0,0.0,False,True,-0.3,0.3,-1.0,0.0,0.24115063685472626,0,True,True,0.5176987262905475,0,0.0,True,024,-0.06199126156784942
127,"{'mean': 0.3, 'sd': 0.37}",0.5,2,1.0717809200286865,1,"(0, 2)",128,1,False,0.0,0,1,1,1.0,True,True,0.5,0.5,1.0,0.8,0.815570933273687,1,True,True,0.631141866547374,1,1.0,True,024,0.0693216761182243
128,"{'mean': 0.3, 'sd': 0.37}",0.1,3,0.9922769069671631,1,"(0, 3)",129,1,False,0.0,0,1,1,0.0,True,True,0.1,0.1,1.0,-0.4,0.8335164403012275,1,False,True,0.667032880602455,1,0.0,True,024,-0.007753070561743966
129,"{'mean': 0.3, 'sd': 0.37}",0.7,3,0.8382000923156738,1,"(0, 3)",130,1,True,0.0,0,1,1,0.0,True,True,0.7,0.7,1.0,0.6,0.9885889765540036,1,False,True,0.9771779531080071,1,0.0,True,024,-0.1764984333555554
130,"{'mean': 0.3, 'sd': 0.37}",0.3,2,1.0688440799713135,1,"(1, 2)",131,1,False,0.0,0,1,1,0.0,True,True,0.3,0.3,1.0,-0.39999999999999997,0.9713097532577102,1,False,True,0.9426195065154204,1,0.0,True,024,0.06657776543792632
131,"{'mean': 0.3, 'sd': 0.37}",1.0,2,0.6935329437255859,1,"(0, 2)",132,1,True,0.0,0,1,1,0.0,True,True,1.0,1.0,1.0,0.7,0.9986130493983213,1,False,True,0.9972260987966426,1,0.0,True,024,-0.3659565367858111
132,"{'mean': 0.3, 'sd': 0.37}",0.5,2,0.5313661098480225,1,"(1, 2)",133,1,True,0.0,0,1,1,0.0,True,True,0.5,0.5,1.0,-0.5,0.9893356620681824,1,False,True,0.9786713241363647,1,0.0,True,024,-0.6323040229102806
133,"{'mean': -0.3, 'sd': 0.37}",-0.3,0,0.7369449138641357,0,"(0, 3)",134,0,False,1.0,1,0,0,1.0,True,True,-0.3,0.3,-1.0,-0.8,0.6667159497965551,1,False,False,0.33343189959311026,0,1.0,True,024,-0.30524213332555317
134,"{'mean': -0.3, 'sd': 0.37}",-0.5,0,0.5299210548400879,0,"(0, 3)",135,0,True,0.0,1,0,0,0.0,True,True,-0.5,0.5,-1.0,-0.2,0.13982958198120926,0,True,True,0.7203408360375815,0,0.0,True,024,-0.6350272366624986
135,"{'mean': -0.3, 'sd': 0.37}",-0.7,1,0.5679960250854492,0,"(1, 3)",136,0,False,0.0,1,0,0,0.0,True,True,-0.7,0.7,-1.0,-0.19999999999999996,0.009534193553994846,0,False,True,0.9809316128920103,0,0.0,True,024,-0.5656408583744703
136,"{'mean': -0.3, 'sd': 0.37}",-0.7,0,0.5765759944915771,0,"(0, 3)",137,0,False,0.0,1,0,0,0.0,True,True,-0.7,0.7,-1.0,0.0,0.004342843726833256,0,False,True,0.9913143125463335,0,0.0,True,024,-0.5506481275068428
137,"{'mean': -0.3, 'sd': 0.37}",-0.1,1,0.6928560733795166,0,"(1, 2)",138,0,False,0.0,1,0,0,0.0,True,True,-0.1,0.1,-1.0,0.6,0.07034439288336497,0,False,True,0.8593112142332701,0,0.0,True,024,-0.3669329876830682
138,"{'mean': 0.3, 'sd': 0.37}",0.1,1,0.8103899955749512,1,"(1, 2)",139,1,True,1.0,1,0,0,0.0,False,True,0.1,0.1,1.0,0.2,0.2367704672328344,0,False,True,0.5264590655343312,1,1.0,False,024,-0.21023967116958084
139,"{'mean': 0.3, 'sd': 0.37}",0.3,2,0.5332520008087158,1,"(1, 2)",140,1,False,0.0,0,1,1,1.0,True,True,0.3,0.3,1.0,0.19999999999999998,0.6330806381141818,1,True,True,0.2661612762283636,1,0.0,True,024,-0.6287611695351081
140,"{'mean': 0.3, 'sd': 0.37}",0.3,3,0.8385119438171387,1,"(1, 3)",141,1,False,0.0,0,1,1,0.0,True,True,0.3,0.3,1.0,0.0,0.8664497398779502,1,False,True,0.7328994797559003,1,0.0,True,024,-0.17612645355420561
141,"{'mean': 0.3, 'sd': 0.37}",0.1,2,1.0324101448059082,1,"(0, 3)",142,1,False,0.0,0,0,1,0.0,False,False,0.1,0.1,1.0,-0.19999999999999998,0.8630972495139622,1,False,True,0.7261944990279243,1,0.0,True,024,0.03189601524363221
142,"{'mean': 0.3, 'sd': 0.37}",0.3,2,0.698477029800415,1,"(0, 2)",143,1,True,0.0,0,1,1,0.0,True,True,0.3,0.3,1.0,0.19999999999999998,0.9404607033897302,1,False,True,0.8809214067794604,1,0.0,True,024,-0.35885298586462117
143,"{'mean': 0.3, 'sd': 0.37}",0.9,2,0.6769061088562012,1,"(0, 3)",144,1,True,0.0,0,0,1,0.0,False,False,0.9,0.9,1.0,0.6000000000000001,0.997329327943383,1,False,True,0.994658655886766,1,0.0,True,024,-0.3902227027539751
144,"{'mean': 0.3, 'sd': 0.37}",0.7,3,0.4757659435272217,1,"(0, 3)",145,1,False,0.0,0,1,1,0.0,True,True,0.7,0.7,1.0,-0.20000000000000007,0.995649327161386,1,False,True,0.991298654322772,1,0.0,True,024,-0.7428292609612651
145,"{'mean': 0.3, 'sd': 0.37}",-0.1,1,0.8249740600585938,1,"(1, 3)",146,1,False,0.0,1,0,0,1.0,False,True,-0.1,0.1,-1.0,-0.7999999999999999,0.8456605997680907,1,False,False,0.6913211995361814,0,1.0,True,024,-0.1924033354949969
146,"{'mean': 0.3, 'sd': 0.37}",0.3,2,0.9159719944000244,1,"(1, 2)",147,1,False,0.0,0,1,1,1.0,True,True,0.3,0.3,1.0,0.4,0.9357249900962066,1,False,True,0.8714499801924132,1,1.0,True,024,-0.08776948857449489
147,"{'mean': 0.3, 'sd': 0.37}",0.7,2,1.1139750480651855,1,"(1, 2)",148,1,True,0.0,0,1,1,0.0,True,True,0.7,0.7,1.0,0.39999999999999997,0.9932380914225855,1,False,True,0.9864761828451709,1,0.0,True,024,0.10793474274902258
148,"{'mean': 0.3, 'sd': 0.37}",0.5,3,0.7126998901367188,1,"(1, 3)",149,1,False,0.0,0,1,1,0.0,True,True,0.5,0.5,1.0,-0.19999999999999996,0.988843760141721,1,False,True,0.9776875202834421,1,0.0,True,024,-0.33869485862513243
149,"{'mean': 0.3, 'sd': 0.37}",-0.3,1,1.030555009841919,1,"(1, 2)",150,1,False,0.0,1,0,0,1.0,False,True,-0.3,0.3,-1.0,-0.8,0.6658286866944014,1,False,False,0.33165737338880286,0,1.0,True,024,0.030097501623691326
150,"{'mean': 0.3, 'sd': 0.37}",-0.1,1,0.7720291614532471,1,"(1, 2)",151,1,True,0.0,1,0,0,0.0,False,True,-0.1,0.1,-1.0,0.19999999999999998,0.5252409140027501,1,False,False,0.05048182800550016,0,0.0,True,024,-0.258732955767607
151,"{'mean': 0.3, 'sd': 0.37}",0.3,2,0.8125109672546387,1,"(1, 2)",152,1,False,0.0,0,1,1,1.0,True,True,0.3,0.3,1.0,0.4,0.8205109619433387,1,False,True,0.6410219238866774,1,1.0,True,024,-0.20762586670978855
152,"{'mean': 0.3, 'sd': 0.37}",0.5,3,1.0763449668884277,1,"(0, 3)",153,1,False,0.0,0,1,1,0.0,True,True,0.5,0.5,1.0,0.2,0.9704258741074185,1,False,True,0.9408517482148371,1,0.0,True,024,0.07357101155543402
153,"{'mean': 0.3, 'sd': 0.37}",1.0,2,0.875248908996582,1,"(0, 2)",154,1,False,0.0,0,1,1,0.0,True,True,1.0,1.0,1.0,0.5,0.9986040984746185,1,False,True,0.997208196949237,1,0.0,True,024,-0.13324696565304373
154,"{'mean': 0.3, 'sd': 0.37}",0.5,3,0.765739917755127,1,"(0, 3)",155,1,False,0.0,0,1,1,0.0,True,True,0.5,0.5,1.0,-0.5,0.9893348464013128,1,False,True,0.9786696928026255,1,0.0,True,024,-0.2669126998526642
155,"{'mean': 0.3, 'sd': 0.37}",0.5,3,0.8222939968109131,1,"(1, 3)",156,1,True,0.0,0,1,1,0.0,True,True,0.5,0.5,1.0,0.0,0.9884838884216739,1,False,True,0.9769677768433478,1,0.0,True,024,-0.195657287517266
156,"{'mean': 0.3, 'sd': 0.37}",0.3,2,0.9264068603515625,1,"(0, 2)",157,1,False,0.0,0,1,1,0.0,True,True,0.3,0.3,1.0,-0.2,0.9712860704096247,1,False,True,0.9425721408192493,1,0.0,True,024,-0.07644176680269722
157,"{'mean': 0.3, 'sd': 0.37}",0.1,3,0.8178839683532715,1,"(0, 3)",158,1,False,0.0,0,1,1,0.0,True,True,0.1,0.1,1.0,-0.19999999999999998,0.9208966445431187,1,False,True,0.8417932890862374,1,0.0,True,024,-0.20103480041965174
158,"{'mean': 0.3, 'sd': 0.37}",0.7,3,0.9307849407196045,1,"(0, 3)",159,1,True,0.0,0,1,1,0.0,True,True,0.7,0.7,1.0,0.6,0.9926172895403141,1,False,True,0.9852345790806283,1,0.0,True,024,-0.07172702654220171
159,"{'mean': 0.3, 'sd': 0.37}",0.1,2,0.9603300094604492,1,"(1, 3)",160,1,False,0.0,0,0,1,0.0,False,False,0.1,0.1,1.0,-0.6,0.932167848836972,1,False,True,0.864335697673944,1,0.0,True,024,-0.04047829373750205
160,"{'mean': 0.3, 'sd': 0.37}",-0.1,0,0.9058430194854736,1,"(0, 2)",161,1,False,0.0,1,0,0,1.0,False,True,-0.1,0.1,-1.0,-0.2,0.7773263275305151,1,False,False,0.5546526550610302,0,1.0,True,024,-0.09888925562781334
161,"{'mean': 0.3, 'sd': 0.37}",0.3,3,0.9874000549316406,1,"(0, 3)",162,1,False,0.0,0,1,1,1.0,True,True,0.3,0.3,1.0,0.4,0.9159365782972544,1,False,True,0.8318731565945088,1,1.0,True,024,-0.012679997524764557
162,"{'mean': -0.3, 'sd': 0.37}",-1.0,0,1.3003709316253662,0,"(0, 2)",163,0,False,1.0,1,0,0,1.0,True,True,-1.0,1.0,-1.0,-1.3,0.038240783455386146,0,True,True,0.9235184330892277,0,1.0,True,024,0.26264955578756455
163,"{'mean': -0.3, 'sd': 0.37}",-0.5,0,0.599186897277832,0,"(0, 3)",164,0,True,0.0,1,0,0,0.0,True,True,-0.5,0.5,-1.0,0.5,0.014161033683601335,0,False,True,0.9716779326327973,0,0.0,True,024,-0.5121817140445293
164,"{'mean': -0.3, 'sd': 0.37}",0.1,0,0.8791441917419434,0,"(0, 2)",165,0,True,0.0,1,0,0,0.0,True,True,0.1,0.1,1.0,0.6,0.17422628828893694,0,False,True,0.6515474234221261,1,1.0,False,024,-0.12880635408810662
165,"{'mean': 0.3, 'sd': 0.37}",0.1,0,0.9660639762878418,1,"(0, 3)",166,1,True,1.0,1,0,0,0.0,False,True,0.1,0.1,1.0,0.0,0.344052380081096,0,False,True,0.311895239837808,1,0.0,False,024,-0.03452521892135486
166,"{'mean': 0.3, 'sd': 0.37}",-0.1,1,1.1789250373840332,1,"(1, 2)",167,1,False,0.0,1,0,0,0.0,False,True,-0.1,0.1,-1.0,-0.2,0.279341617428747,0,False,True,0.44131676514250595,0,1.0,True,024,0.16460303801054646
167,"{'mean': 0.3, 'sd': 0.37}",0.3,3,1.0160210132598877,1,"(1, 3)",168,1,False,0.0,0,1,1,1.0,True,True,0.3,0.3,1.0,0.4,0.6692736357939799,1,True,True,0.33854727158795983,1,1.0,True,024,0.015894031284822602
168,"{'mean': 0.3, 'sd': 0.37}",-0.3,1,0.9061050415039062,1,"(1, 3)",169,1,False,0.0,1,0,0,1.0,False,True,-0.3,0.3,-1.0,-0.6,0.3010356460763938,0,True,True,0.39792870784721235,0,1.0,True,024,-0.09860003980987651
169,"{'mean': 0.3, 'sd': 0.37}",0.1,0,0.9020540714263916,1,"(0, 2)",170,1,False,0.0,1,0,0,0.0,False,True,0.1,0.1,1.0,0.4,0.462105256932953,0,False,True,0.07578948613409398,1,1.0,False,024,-0.10308081456721907
170,"{'mean': 0.3, 'sd': 0.37}",0.3,2,0.8270680904388428,1,"(0, 2)",171,1,False,0.0,0,1,1,1.0,True,True,0.3,0.3,1.0,0.19999999999999998,0.7889228242974029,1,True,True,0.5778456485948058,1,0.0,True,024,-0.18986825308068464
171,"{'mean': 0.3, 'sd': 0.37}",0.3,2,0.6618130207061768,1,"(0, 2)",172,1,True,0.0,0,1,1,0.0,True,True,0.3,0.3,1.0,0.0,0.9194405356183026,1,False,True,0.8388810712366053,1,0.0,True,024,-0.41277220900370765
172,"{'mean': 0.3, 'sd': 0.37}",0.1,3,1.0568020343780518,1,"(0, 3)",173,1,False,0.0,0,1,1,0.0,True,True,0.1,0.1,1.0,-0.19999999999999998,0.8928245280167747,1,False,True,0.7856490560335494,1,0.0,True,024,0.05524739926013222
173,"{'mean': 0.3, 'sd': 0.37}",0.7,2,1.4177830219268799,1,"(1, 2)",174,1,False,0.0,0,1,1,0.0,True,True,0.7,0.7,1.0,0.6,0.9913948907732991,1,False,True,0.9827897815465982,1,0.0,True,024,0.3490943994248313
174,"{'mean': -0.3, 'sd': 0.37}",-0.1,1,1.1409862041473389,0,"(1, 2)",175,0,False,1.0,1,0,0,1.0,True,True,-0.1,0.1,-1.0,-0.7999999999999999,0.8409682140052755,1,False,False,0.6819364280105511,0,1.0,True,024,0.1318929797878573
175,"{'mean': -0.3, 'sd': 0.37}",-0.5,0,0.829369068145752,0,"(0, 2)",176,0,False,0.0,1,0,0,0.0,True,True,-0.5,0.5,-1.0,-0.4,0.2416760464640701,0,True,True,0.5166479070718598,0,0.0,True,024,-0.18709002611928052
176,"{'mean': -0.3, 'sd': 0.37}",-0.5,0,0.6089248657226562,0,"(0, 2)",177,0,True,0.0,1,0,0,0.0,True,True,-0.5,0.5,-1.0,0.0,0.03783398402028657,0,False,True,0.9243320319594268,0,0.0,True,024,-0.49606039208094777
177,"{'mean': -0.3, 'sd': 0.37}",-0.5,0,0.7351710796356201,0,"(0, 3)",178,0,True,0.0,1,0,0,0.0,True,True,-0.5,0.5,-1.0,0.0,0.014121601713390277,0,False,True,0.9717567965732195,0,0.0,True,024,-0.3076520454450274
178,"{'mean': -0.3, 'sd': 0.37}",-0.3,0,0.48487091064453125,0,"(0, 3)",179,0,True,0.0,1,0,0,0.0,True,True,-0.3,0.3,-1.0,0.2,0.030577289875034868,0,False,True,0.9388454202499302,0,0.0,True,024,-0.7238725870919998
179,"{'mean': -0.3, 'sd': 0.37}",-0.3,0,0.4339408874511719,0,"(0, 3)",180,0,True,0.0,1,0,0,0.0,True,True,-0.3,0.3,-1.0,0.0,0.034497998735614786,0,False,True,0.9310040025287705,0,0.0,True,024,-0.8348469581879012
180,"{'mean': -0.3, 'sd': 0.37}",-0.1,0,0.44501495361328125,0,"(0, 3)",181,0,True,0.0,1,0,0,0.0,True,True,-0.1,0.1,-1.0,0.19999999999999998,0.08718895957449162,0,False,True,0.8256220808510167,0,0.0,True,024,-0.8096473937551348
181,"{'mean': 0.3, 'sd': 0.37}",0.7,3,0.8788669109344482,1,"(1, 3)",182,1,False,1.0,0,1,1,1.0,True,True,0.7,0.7,1.0,0.7999999999999999,0.8455494439061221,1,True,True,0.6910988878122442,1,1.0,True,024,-0.12912180239144475
182,"{'mean': -0.3, 'sd': 0.37}",-1.0,2,1.2003381252288818,0,"(0, 2)",183,0,False,1.0,0,1,1,0.0,False,True,-1.0,1.0,-1.0,-1.7,0.027074655896389722,0,True,False,0.9458506882072205,0,1.0,False,024,0.18260328812802332
183,"{'mean': 0.3, 'sd': 0.37}",0.1,3,1.1363651752471924,1,"(1, 3)",184,1,False,1.0,0,1,1,0.0,True,True,0.1,0.1,1.0,1.1,0.1889029019448828,0,False,False,0.6221941961102344,1,1.0,True,024,0.12783472572649723
184,"{'mean': 0.3, 'sd': 0.37}",0.7,2,0.7296099662780762,1,"(1, 2)",185,1,False,0.0,0,1,1,0.0,True,True,0.7,0.7,1.0,0.6,0.8993996774475598,1,True,True,0.7987993548951196,1,0.0,True,024,-0.3152451803947025
185,"{'mean': 0.3, 'sd': 0.37}",-0.1,0,0.9328229427337646,1,"(1, 2)",186,1,False,0.0,0,0,0,1.0,False,False,-0.1,0.1,-1.0,-0.7999999999999999,0.7434121710475138,1,False,False,0.48682434209502756,0,1.0,True,024,-0.06953986813330981
186,"{'mean': 0.3, 'sd': 0.37}",0.1,2,0.8757410049438477,1,"(1, 3)",187,1,False,0.0,0,0,1,1.0,False,False,0.1,0.1,1.0,0.2,0.7897088181993568,1,False,True,0.5794176363987136,1,1.0,True,024,-0.13268488821752739
187,"{'mean': -0.3, 'sd': 0.37}",-0.9,0,0.8461399078369141,0,"(0, 2)",188,0,False,1.0,1,0,0,1.0,True,True,-0.9,0.9,-1.0,-1.0,0.034742244750983406,0,True,True,0.9305155104980332,0,1.0,True,024,-0.16707055735521453
188,"{'mean': -0.3, 'sd': 0.37}",-0.3,1,0.4748189449310303,0,"(1, 2)",189,0,False,0.0,1,0,0,0.0,True,True,-0.3,0.3,-1.0,0.6000000000000001,0.03550391966111645,0,False,True,0.9289921606777671,0,0.0,True,024,-0.744821716176951
189,"{'mean': -0.3, 'sd': 0.37}",-0.7,0,0.8207359313964844,0,"(0, 2)",190,0,False,0.0,1,0,0,0.0,True,True,-0.7,0.7,-1.0,-0.39999999999999997,0.0052827324936443295,0,False,True,0.9894345350127114,0,0.0,True,024,-0.19755386390301566
190,"{'mean': -0.3, 'sd': 0.37}",-0.5,1,0.6175141334533691,0,"(1, 2)",191,0,False,0.0,1,0,0,0.0,True,True,-0.5,0.5,-1.0,0.19999999999999996,0.011049322775079242,0,False,True,0.9779013544498415,0,0.0,True,024,-0.48205332255834155
191,"{'mean': -0.3, 'sd': 0.37}",-0.7,0,0.6953611373901367,0,"(0, 2)",192,0,False,0.0,1,0,0,0.0,True,True,-0.7,0.7,-1.0,-0.19999999999999996,0.0043965256960064765,0,False,True,0.9912069486079871,0,0.0,True,024,-0.3633239462301006
192,"{'mean': -0.3, 'sd': 0.37}",-0.3,1,1.08760404586792,0,"(1, 3)",193,0,False,0.0,1,0,0,0.0,True,True,-0.3,0.3,-1.0,0.39999999999999997,0.02829968467723673,0,False,True,0.9434006306455265,0,0.0,True,024,0.08397715376550798
193,"{'mean': -0.3, 'sd': 0.37}",-0.5,1,0.5463311672210693,0,"(1, 3)",194,0,True,0.0,1,0,0,0.0,True,True,-0.5,0.5,-1.0,-0.2,0.013204889743715729,0,False,True,0.9735902205125685,0,0.0,True,024,-0.6045299537323319
194,"{'mean': -0.3, 'sd': 0.37}",-0.5,0,0.501370906829834,0,"(0, 3)",195,0,False,0.0,1,0,0,0.0,True,True,-0.5,0.5,-1.0,0.0,0.011782249062345967,0,False,True,0.976435501875308,0,0.0,True,024,-0.6904091188148803
195,"{'mean': -0.3, 'sd': 0.37}",-0.7,1,0.6914768218994141,0,"(1, 3)",196,0,False,0.0,1,0,0,0.0,True,True,-0.7,0.7,-1.0,-0.19999999999999996,0.004422543962036774,0,False,True,0.9911549120759264,0,0.0,True,024,-0.3689256470227228
196,"{'mean': 0.3, 'sd': 0.37}",0.3,2,1.3516061305999756,1,"(0, 2)",197,1,False,1.0,0,1,1,1.0,True,True,0.3,0.3,1.0,1.0,0.33154509522421305,0,False,False,0.3369098095515739,1,1.0,True,024,0.30129361165710405
197,"{'mean': 0.3, 'sd': 0.37}",-0.1,1,1.3770661354064941,1,"(1, 2)",198,1,False,0.0,1,0,0,1.0,False,True,-0.1,0.1,-1.0,-0.4,0.27082569316458927,0,False,True,0.45834861367082147,0,1.0,True,024,0.31995524721082347
198,"{'mean': 0.3, 'sd': 0.37}",0.1,3,0.9013090133666992,1,"(1, 3)",199,1,False,0.0,0,1,1,1.0,True,True,0.1,0.1,1.0,0.2,0.43515720135092867,0,False,False,0.12968559729814266,1,1.0,True,024,-0.1039071130629208
199,"{'mean': 0.3, 'sd': 0.37}",0.7,2,0.8286011219024658,1,"(0, 2)",200,1,False,0.0,0,1,1,0.0,True,True,0.7,0.7,1.0,0.6,0.9556487785851147,1,True,True,0.9112975571702293,1,0.0,True,024,-0.1880163953662236
200,"{'mean': 0.3, 'sd': 0.37}",0.3,2,0.6085431575775146,1,"(0, 3)",201,1,True,0.0,0,0,1,0.0,False,False,0.3,0.3,1.0,-0.39999999999999997,0.9637208592465334,1,False,True,0.9274417184930668,1,0.0,True,024,-0.49668744453792163
201,"{'mean': 0.3, 'sd': 0.37}",0.3,3,0.5645310878753662,1,"(0, 3)",202,1,False,0.0,0,1,1,0.0,True,True,0.3,0.3,1.0,0.0,0.9656117538134272,1,False,True,0.9312235076268545,1,0.0,True,024,-0.5717598253846802
202,"{'mean': 0.3, 'sd': 0.37}",0.5,2,0.5380830764770508,1,"(0, 2)",203,1,False,0.0,0,1,1,0.0,True,True,0.5,0.5,1.0,0.2,0.9862472830803785,1,False,True,0.9724945661607569,1,0.0,True,024,-0.6197423134978792
203,"{'mean': 0.3, 'sd': 0.37}",0.9,3,0.5826969146728516,1,"(1, 3)",204,1,False,0.0,0,1,1,0.0,True,True,0.9,0.9,1.0,0.4,0.9980640434829375,1,False,True,0.9961280869658751,1,0.0,True,024,-0.5400880997281089
204,"{'mean': 0.3, 'sd': 0.37}",0.1,2,1.3636350631713867,1,"(1, 2)",205,1,False,0.0,0,1,1,0.0,True,True,0.1,0.1,1.0,-0.8,0.9350204895268363,1,False,True,0.8700409790536725,1,0.0,True,024,0.31015397462906835
205,"{'mean': 0.3, 'sd': 0.37}",-0.5,0,0.673267126083374,1,"(0, 2)",206,1,False,0.0,1,0,0,1.0,False,True,-0.5,0.5,-1.0,-0.6,0.3422562415707291,0,True,True,0.3154875168585418,0,1.0,True,024,-0.39561310968842106
206,"{'mean': 0.3, 'sd': 0.37}",0.3,3,0.9668779373168945,1,"(1, 3)",207,1,False,0.0,0,1,1,1.0,True,True,0.3,0.3,1.0,0.8,0.7162015337003493,1,True,True,0.43240306740069867,1,1.0,True,024,-0.03368301971046742
207,"{'mean': -0.3, 'sd': 0.37}",-0.1,0,0.7620358467102051,0,"(0, 2)",208,0,False,1.0,1,0,0,1.0,True,True,-0.1,0.1,-1.0,-0.4,0.5690780118069453,1,False,False,0.13815602361389057,0,1.0,True,024,-0.27176168147519625
208,"{'mean': -0.3, 'sd': 0.37}",0.1,1,0.7102479934692383,0,"(1, 2)",209,0,False,0.0,1,0,0,0.0,True,True,0.1,0.1,1.0,0.2,0.6738701069189106,1,False,False,0.34774021383782117,1,1.0,False,024,-0.3421410833567395
209,"{'mean': -0.3, 'sd': 0.37}",-0.1,1,1.0549259185791016,0,"(1, 3)",210,0,True,0.0,1,0,0,0.0,True,True,-0.1,0.1,-1.0,-0.2,0.5321302209676022,1,False,False,0.06426044193520442,0,1.0,True,024,0.053470545106233565
210,"{'mean': -0.3, 'sd': 0.37}",-0.5,1,0.7226839065551758,0,"(1, 2)",211,0,True,0.0,1,0,0,0.0,True,True,-0.5,0.5,-1.0,-0.4,0.09461741386999871,0,True,True,0.8107651722600026,0,0.0,True,024,-0.32478334944097437
211,"{'mean': -0.3, 'sd': 0.37}",-0.7,1,0.7083451747894287,0,"(1, 3)",212,0,True,0.0,1,0,0,0.0,True,True,-0.7,0.7,-1.0,-0.19999999999999996,0.007590803371384928,0,False,True,0.9848183932572302,0,0.0,True,024,-0.34482376908168116
212,"{'mean': -0.3, 'sd': 0.37}",-0.1,0,0.7208259105682373,0,"(0, 2)",213,0,False,0.0,1,0,0,0.0,True,True,-0.1,0.1,-1.0,0.6,0.07214429186761978,0,False,True,0.8557114162647604,0,0.0,True,024,-0.32735762637482163
213,"{'mean': -0.3, 'sd': 0.37}",-0.7,1,0.5665719509124756,0,"(1, 2)",214,0,False,0.0,1,0,0,0.0,True,True,-0.7,0.7,-1.0,-0.6,0.006684165963986775,0,False,True,0.9866316680720264,0,0.0,True,024,-0.568151197024869
214,"{'mean': 0.3, 'sd': 0.37}",0.9,2,0.7322368621826172,1,"(0, 2)",215,1,False,1.0,0,1,1,1.0,True,True,0.9,0.9,1.0,1.6,0.8869254949862002,1,True,True,0.7738509899724004,1,1.0,True,024,-0.31165123514556997
215,"{'mean': 0.3, 'sd': 0.37}",-0.3,0,0.7093198299407959,1,"(0, 3)",216,1,False,0.0,1,0,0,1.0,False,True,-0.3,0.3,-1.0,-1.2,0.510776242000016,1,False,False,0.02155248400003207,0,1.0,True,024,-0.3434487541075125
216,"{'mean': 0.3, 'sd': 0.37}",0.7,2,1.331157922744751,1,"(0, 2)",217,1,False,0.0,0,1,1,1.0,True,True,0.7,0.7,1.0,1.0,0.9648364636653507,1,False,True,0.9296729273307014,1,1.0,True,024,0.2860491820701866
217,"{'mean': 0.3, 'sd': 0.37}",0.5,3,0.8416979312896729,1,"(1, 3)",218,1,False,0.0,0,1,1,0.0,True,True,0.5,0.5,1.0,-0.19999999999999996,0.9861727246349827,1,False,True,0.9723454492699655,1,0.0,True,024,-0.1723340805439453
218,"{'mean': 0.3, 'sd': 0.37}",0.5,2,0.6578159332275391,1,"(0, 2)",219,1,False,0.0,0,1,1,0.0,True,True,0.5,0.5,1.0,0.0,0.9881906912791776,1,False,True,0.9763813825583552,1,0.0,True,024,-0.41883012352670174
219,"{'mean': 0.3, 'sd': 0.37}",-0.1,1,0.8483271598815918,1,"(1, 3)",220,1,False,0.0,1,0,0,1.0,False,True,-0.1,0.1,-1.0,-0.6,0.837445115729808,1,False,False,0.6748902314596159,0,1.0,True,024,-0.16448891584543213
220,"{'mean': 0.3, 'sd': 0.37}",0.3,2,0.7039358615875244,1,"(1, 2)",221,1,False,0.0,0,1,1,1.0,True,True,0.3,0.3,1.0,0.4,0.9334514676332191,1,False,True,0.8669029352664381,1,1.0,True,024,-0.35106803267401016
221,"{'mean': 0.3, 'sd': 0.37}",0.1,3,0.9861390590667725,1,"(1, 3)",222,1,False,0.0,0,1,1,0.0,True,True,0.1,0.1,1.0,-0.19999999999999998,0.9005073821956889,1,False,True,0.8010147643913779,1,0.0,True,024,-0.013957900787515451
222,"{'mean': 0.3, 'sd': 0.37}",0.5,2,0.8501369953155518,1,"(0, 2)",223,1,False,0.0,0,1,1,0.0,True,True,0.5,0.5,1.0,0.4,0.9796386463257749,1,False,True,0.9592772926515498,1,0.0,True,024,-0.162357771524946
223,"{'mean': 0.3, 'sd': 0.37}",1.0,2,0.6255040168762207,1,"(0, 2)",224,1,True,0.0,0,1,1,0.0,True,True,1.0,1.0,1.0,0.5,0.9986967009608512,1,False,True,0.9973934019217023,1,0.0,True,024,-0.46919752723132974
224,"{'mean': -0.3, 'sd': 0.37}",0.1,3,1.0128660202026367,0,"(0, 3)",225,0,False,1.0,0,1,1,0.0,False,True,0.1,0.1,1.0,-0.9,0.9353511696721802,1,False,True,0.8707023393443605,1,0.0,True,024,0.01278395610735957
225,"{'mean': 0.3, 'sd': 0.37}",0.7,2,0.7422330379486084,1,"(0, 2)",226,1,False,1.0,0,1,1,0.0,True,True,0.7,0.7,1.0,0.6,0.9932226444919623,1,False,True,0.9864452889839246,1,0.0,True,024,-0.2980920178073884
226,"{'mean': 0.3, 'sd': 0.37}",0.5,2,1.0056278705596924,1,"(1, 2)",227,1,True,0.0,0,1,1,0.0,True,True,0.5,0.5,1.0,-0.19999999999999996,0.9888423403894105,1,False,True,0.9776846807788211,1,0.0,True,024,0.005612093263548893
227,"{'mean': -0.3, 'sd': 0.37}",-0.3,1,0.8853850364685059,0,"(1, 3)",228,0,False,1.0,1,0,0,1.0,True,True,-0.3,0.3,-1.0,-0.8,0.6658261281184147,1,False,False,0.33165225623682937,0,1.0,True,024,-0.12173265913354264
228,"{'mean': -0.3, 'sd': 0.37}",-0.5,0,0.7192411422729492,0,"(0, 2)",229,0,False,0.0,1,0,0,0.0,True,True,-0.5,0.5,-1.0,-0.2,0.13946321662673472,0,True,True,0.7210735667465306,0,0.0,True,024,-0.32955859185335595
229,"{'mean': -0.3, 'sd': 0.37}",0.9,3,1.2259490489959717,0,"(0, 3)",230,0,False,0.0,0,1,1,1.0,False,True,0.9,0.9,1.0,1.4,0.9465002275892118,1,True,True,0.8930004551784236,1,1.0,True,024,0.2037152779195766
230,"{'mean': -0.3, 'sd': 0.37}",-0.1,0,1.3880510330200195,0,"(0, 3)",231,0,False,0.0,1,0,0,1.0,True,True,-0.1,0.1,-1.0,-1.0,0.7924449821436768,1,False,False,0.5848899642873535,0,1.0,True,024,0.3279006287142015
231,"{'mean': -0.3, 'sd': 0.37}",-0.1,0,0.8164730072021484,0,"(0, 2)",232,0,True,0.0,1,0,0,0.0,True,True,-0.1,0.1,-1.0,0.0,0.6386537945987044,1,False,False,0.27730758919740883,0,0.0,True,024,-0.20276142627038138
232,"{'mean': -0.3, 'sd': 0.37}",-0.1,0,0.7020869255065918,0,"(0, 2)",233,0,True,0.0,1,0,0,0.0,True,True,-0.1,0.1,-1.0,0.0,0.5022566002374992,1,False,False,0.004513200474998369,0,0.0,True,024,-0.3536980571141058
233,"{'mean': 0.3, 'sd': 0.37}",-0.3,1,0.9033989906311035,1,"(1, 2)",234,1,False,1.0,1,0,0,0.0,False,True,-0.3,0.3,-1.0,-0.19999999999999998,0.19968889676450047,0,True,True,0.6006222064709991,0,0.0,True,024,-0.1015909730623421
234,"{'mean': 0.3, 'sd': 0.37}",0.9,3,0.9341108798980713,1,"(0, 3)",235,1,False,0.0,0,1,1,1.0,True,True,0.9,0.9,1.0,1.2,0.9584847139820726,1,True,True,0.9169694279641452,1,1.0,True,024,-0.06816013270507885
235,"{'mean': 0.3, 'sd': 0.37}",0.5,3,1.2828640937805176,1,"(1, 2)",236,1,True,0.0,0,0,1,0.0,False,False,0.5,0.5,1.0,-0.4,0.9855583081028849,1,False,True,0.9711166162057698,1,0.0,True,024,0.24909515155855055
236,"{'mean': 0.3, 'sd': 0.37}",-0.1,0,1.25996994972229,1,"(0, 3)",237,1,False,0.0,1,0,0,1.0,False,True,-0.1,0.1,-1.0,-0.6,0.8345577474621857,1,False,False,0.6691154949243714,0,1.0,True,024,0.2310878712522306
237,"{'mean': -0.3, 'sd': 0.37}",-0.1,1,0.9255828857421875,0,"(1, 3)",238,0,False,1.0,1,0,0,0.0,True,True,-0.1,0.1,-1.0,0.0,0.6788582738371748,1,False,False,0.35771654767434957,0,0.0,True,024,-0.07733159318049539
238,"{'mean': 0.3, 'sd': 0.37}",0.3,3,0.719635009765625,1,"(0, 3)",239,1,False,1.0,0,1,1,1.0,True,True,0.3,0.3,1.0,0.4,0.8834471688544644,1,False,True,0.7668943377089288,1,1.0,True,024,-0.3290111263860116
239,"{'mean': 0.3, 'sd': 0.37}",0.1,2,0.8972799777984619,1,"(0, 2)",240,1,False,0.0,0,1,1,0.0,True,True,0.1,0.1,1.0,-0.19999999999999998,0.8727500406494314,1,False,True,0.7455000812988628,1,0.0,True,024,-0.10838733875917643
240,"{'mean': 0.3, 'sd': 0.37}",0.5,3,0.8796029090881348,1,"(1, 3)",241,1,False,0.0,0,1,1,0.0,True,True,0.5,0.5,1.0,0.4,0.9765896563189006,1,False,True,0.9531793126378012,1,0.0,True,024,-0.12828471302171718
241,"{'mean': 0.3, 'sd': 0.37}",0.1,3,1.1806199550628662,1,"(1, 3)",242,1,True,0.0,0,1,1,0.0,True,True,0.1,0.1,1.0,-0.4,0.923713897687166,1,False,True,0.8474277953743321,1,0.0,True,024,0.16603968615735312
242,"{'mean': 0.3, 'sd': 0.37}",0.7,2,0.661592960357666,1,"(0, 2)",243,1,False,0.0,0,1,1,0.0,True,True,0.7,0.7,1.0,0.6,0.9927365235557419,1,False,True,0.9854730471114839,1,0.0,True,024,-0.4131047756592732
243,"{'mean': -0.3, 'sd': 0.37}",-0.5,1,1.0317161083221436,0,"(1, 3)",244,0,False,1.0,1,0,0,1.0,True,True,-0.5,0.5,-1.0,-1.2,0.4392383516206261,0,True,True,0.12152329675874785,0,1.0,True,024,0.031223540380364727
244,"{'mean': 0.3, 'sd': 0.37}",-0.1,0,1.0332770347595215,1,"(0, 2)",245,1,False,1.0,1,0,0,0.0,False,True,-0.1,0.1,-1.0,0.4,0.3465107947413101,0,False,True,0.30697841051737984,0,0.0,True,024,0.0327353388479804
245,"{'mean': -0.3, 'sd': 0.37}",0.3,3,1.1941158771514893,0,"(1, 2)",246,0,False,1.0,0,0,1,1.0,False,False,0.3,0.3,1.0,0.4,0.7191283631758499,1,True,True,0.4382567263516999,1,1.0,True,024,0.17740605980201912
246,"{'mean': -0.3, 'sd': 0.37}",0.1,1,1.3107149600982666,0,"(1, 2)",247,0,False,0.0,1,0,0,1.0,True,True,0.1,0.1,1.0,-0.19999999999999998,0.774450727530565,1,False,False,0.54890145506113,1,0.0,False,024,0.270572759401577
247,"{'mean': -0.3, 'sd': 0.37}",-0.7,1,0.8104360103607178,0,"(1, 3)",248,0,True,0.0,1,0,0,0.0,True,True,-0.7,0.7,-1.0,-0.7999999999999999,0.08323510793153487,0,True,True,0.8335297841369302,0,1.0,True,024,-0.21018289174278185
248,"{'mean': -0.3, 'sd': 0.37}",-0.3,1,0.7124769687652588,0,"(1, 2)",249,0,True,0.0,1,0,0,0.0,True,True,-0.3,0.3,-1.0,0.39999999999999997,0.047638980757148466,0,False,True,0.9047220384857031,0,0.0,True,024,-0.3390076919017683
249,"{'mean': -0.3, 'sd': 0.37}",-1.0,1,0.5472099781036377,0,"(1, 3)",250,0,True,0.0,1,0,0,0.0,True,True,-1.0,1.0,-1.0,-0.7,0.0013075973520307723,0,False,True,0.9973848052959384,0,0.0,True,024,-0.6029226780015298
250,"{'mean': -0.3, 'sd': 0.37}",-0.3,0,0.6819920539855957,0,"(0, 3)",251,0,False,0.0,1,0,0,0.0,True,True,-0.3,0.3,-1.0,0.7,0.027582280576868224,0,False,True,0.9448354388462635,0,0.0,True,024,-0.38273727225406257
251,"{'mean': -0.3, 'sd': 0.37}",-0.5,0,0.36127495765686035,0,"(0, 3)",252,0,True,0.0,1,0,0,0.0,True,True,-0.5,0.5,-1.0,-0.2,0.013136486685992751,0,False,True,0.9737270266280145,0,0.0,True,024,-1.018115955002482
252,"{'mean': -0.3, 'sd': 0.37}",-0.1,1,0.687877893447876,0,"(1, 3)",253,0,False,0.0,1,0,0,0.0,True,True,-0.1,0.1,-1.0,0.4,0.07522548902692476,0,False,True,0.8495490219461505,0,0.0,True,024,-0.3741439372539815
253,"{'mean': -0.3, 'sd': 0.37}",-0.5,1,0.8330910205841064,0,"(1, 2)",254,0,True,0.0,1,0,0,0.0,True,True,-0.5,0.5,-1.0,-0.4,0.01785933880098171,0,False,True,0.9642813223980365,0,0.0,True,024,-0.182612374376361
254,"{'mean': -0.3, 'sd': 0.37}",-0.3,0,0.6197900772094727,0,"(0, 3)",255,0,False,0.0,1,0,0,0.0,True,True,-0.3,0.3,-1.0,0.2,0.031460402081385924,0,False,True,0.9370791958372282,0,0.0,True,024,-0.47837444342190394
255,"{'mean': -0.3, 'sd': 0.37}",-0.3,1,0.6126739978790283,0,"(1, 3)",256,0,False,0.0,1,0,0,0.0,True,True,-0.3,0.3,-1.0,0.0,0.034710824519310464,0,False,True,0.9305783509613791,0,0.0,True,024,-0.48992229873597604
256,"{'mean': -0.3, 'sd': 0.37}",-0.3,0,0.8606798648834229,0,"(0, 3)",257,0,False,0.0,1,0,0,0.0,True,True,-0.3,0.3,-1.0,0.0,0.03549631021502541,0,False,True,0.9290073795699492,0,0.0,True,024,-0.15003266148506786
257,"{'mean': 0.3, 'sd': 0.37}",0.7,3,1.0217418670654297,1,"(0, 3)",258,1,False,1.0,0,1,1,1.0,True,True,0.7,0.7,1.0,1.0,0.7984119091369951,1,True,True,0.5968238182739902,1,1.0,True,024,0.021508883621839767
258,"{'mean': 0.3, 'sd': 0.37}",0.7,2,0.8597691059112549,1,"(1, 2)",259,1,False,0.0,0,1,1,0.0,True,True,0.7,0.7,1.0,0.0,0.9867673745986343,1,False,True,0.9735347491972686,1,0.0,True,024,-0.15109140728073422
259,"{'mean': 0.3, 'sd': 0.37}",0.9,2,0.7554328441619873,1,"(0, 2)",260,1,True,0.0,0,1,1,0.0,True,True,0.9,0.9,1.0,0.20000000000000007,0.9980720483228592,1,False,True,0.9961440966457185,1,0.0,True,024,-0.28046439048298416
260,"{'mean': -0.3, 'sd': 0.37}",0.3,2,0.7018182277679443,0,"(0, 2)",261,0,True,1.0,0,1,1,0.0,False,True,0.3,0.3,1.0,-0.6000000000000001,0.9734333571412594,1,False,True,0.9468667142825189,1,0.0,True,024,-0.35408084328922834
261,"{'mean': -0.3, 'sd': 0.37}",-1.0,0,1.1739580631256104,0,"(0, 3)",262,0,False,0.0,1,0,0,1.0,True,True,-1.0,1.0,-1.0,-1.3,0.054455734381429054,0,True,True,0.8910885312371419,0,1.0,True,024,0.16038099940979864
262,"{'mean': -0.3, 'sd': 0.37}",0.3,3,1.4324331283569336,0,"(1, 3)",263,0,False,0.0,0,1,1,1.0,False,True,0.3,0.3,1.0,1.3,0.41716493085007134,0,False,False,0.16567013829985733,1,1.0,True,024,0.35937448674186506
263,"{'mean': -0.3, 'sd': 0.37}",0.1,3,0.9835848808288574,0,"(1, 3)",264,0,True,0.0,0,1,1,0.0,False,True,0.1,0.1,1.0,-0.19999999999999998,0.5595253028465735,1,True,True,0.11905060569314707,1,0.0,True,024,-0.01655134001804193
264,"{'mean': -0.3, 'sd': 0.37}",0.1,3,0.7202229499816895,0,"(1, 3)",265,0,True,0.0,0,1,1,0.0,False,True,0.1,0.1,1.0,0.0,0.6670736138171428,1,False,True,0.3341472276342856,1,0.0,True,024,-0.32819446215220843
265,"{'mean': -0.3, 'sd': 0.37}",-0.3,0,0.6414260864257812,0,"(0, 2)",266,0,False,0.0,1,0,0,1.0,True,True,-0.3,0.3,-1.0,-0.4,0.2994489041674129,0,True,True,0.40110219166517425,0,1.0,True,024,-0.44406132147781563
266,"{'mean': -0.3, 'sd': 0.37}",-0.7,1,0.7549648284912109,0,"(1, 3)",267,0,False,0.0,1,0,0,0.0,True,True,-0.7,0.7,-1.0,-0.39999999999999997,0.01800231429977575,0,False,True,0.9639953714004486,0,0.0,True,024,-0.28108411559806995
267,"{'mean': -0.3, 'sd': 0.37}",-0.1,0,0.5973429679870605,0,"(0, 3)",268,0,False,0.0,1,0,0,0.0,True,True,-0.1,0.1,-1.0,0.6,0.07793728485884516,0,False,True,0.8441254302823097,0,0.0,True,024,-0.5152638448028254
268,"{'mean': -0.3, 'sd': 0.37}",-0.3,0,0.5725948810577393,0,"(0, 3)",269,0,True,0.0,1,0,0,0.0,True,True,-0.3,0.3,-1.0,-0.19999999999999998,0.04627409092728007,0,False,True,0.9074518181454398,0,0.0,True,024,-0.5575768261804034
269,"{'mean': -0.3, 'sd': 0.37}",-0.5,1,0.6533381938934326,0,"(1, 2)",270,0,False,0.0,1,0,0,0.0,True,True,-0.5,0.5,-1.0,-0.2,0.014945141996381209,0,False,True,0.9701097160072376,0,0.0,True,024,-0.4256603758205527
270,"{'mean': -0.3, 'sd': 0.37}",-0.1,1,0.5180149078369141,0,"(1, 2)",271,0,True,0.0,1,0,0,0.0,True,True,-0.1,0.1,-1.0,0.4,0.07623256770643053,0,False,True,0.847534864587139,0,0.0,True,024,-0.6577512575288368
271,"{'mean': -0.3, 'sd': 0.37}",-0.3,0,0.5811748504638672,0,"(0, 3)",272,0,False,0.0,1,0,0,0.0,True,True,-0.3,0.3,-1.0,-0.19999999999999998,0.04583700044716905,0,False,True,0.9083259991056619,0,0.0,True,024,-0.5427036199637116
272,"{'mean': -0.3, 'sd': 0.37}",0.1,2,0.9377999305725098,0,"(1, 2)",273,0,False,0.0,0,1,1,1.0,False,True,0.1,0.1,1.0,0.4,0.20990283712142246,0,False,False,0.5801943257571551,1,1.0,True,024,-0.06421864635895311
273,"{'mean': -0.3, 'sd': 0.37}",-0.3,1,0.9018170833587646,0,"(1, 3)",274,0,False,0.0,1,0,0,1.0,True,True,-0.3,0.3,-1.0,-0.4,0.0835078859697184,0,False,True,0.8329842280605632,0,1.0,True,024,-0.10334356955208789
274,"{'mean': -0.3, 'sd': 0.37}",0.1,2,0.886836051940918,0,"(0, 3)",275,0,False,0.0,0,0,1,1.0,False,False,0.1,0.1,1.0,0.4,0.25094565033747296,0,False,False,0.4981086993250541,1,1.0,True,024,-0.12009514809596784
275,"{'mean': 0.3, 'sd': 0.37}",-0.1,1,1.1674659252166748,1,"(1, 3)",276,1,False,1.0,1,0,0,1.0,False,True,-0.1,0.1,-1.0,-0.2,0.21757114212399548,0,False,True,0.564857715752009,0,1.0,True,024,0.15483552402507803
276,"{'mean': -0.3, 'sd': 0.37}",-0.3,0,0.959568977355957,0,"(0, 2)",277,0,False,1.0,1,0,0,0.0,True,True,-0.3,0.3,-1.0,-0.19999999999999998,0.08589975377008932,0,False,True,0.8282004924598214,0,0.0,True,024,-0.041271077263695326
277,"{'mean': -0.3, 'sd': 0.37}",-0.5,0,0.6966099739074707,0,"(0, 2)",278,0,True,0.0,1,0,0,0.0,True,True,-0.5,0.5,-1.0,-0.2,0.018970103486734155,0,False,True,0.9620597930265317,0,0.0,True,024,-0.3615296031690013
278,"{'mean': -0.3, 'sd': 0.37}",-0.3,1,0.7386660575866699,0,"(1, 2)",279,0,False,0.0,1,0,0,0.0,True,True,-0.3,0.3,-1.0,0.2,0.0317236775731094,0,False,True,0.9365526448537812,0,0.0,True,024,-0.30290934435019484
279,"{'mean': -0.3, 'sd': 0.37}",-0.5,1,0.6645050048828125,0,"(1, 3)",280,0,True,0.0,1,0,0,0.0,True,True,-0.5,0.5,-1.0,-0.2,0.013532462873500767,0,False,True,0.9729350742529985,0,0.0,True,024,-0.4087128690546238
280,"{'mean': -0.3, 'sd': 0.37}",-0.3,0,0.823307991027832,0,"(0, 2)",281,0,False,0.0,1,0,0,0.0,True,True,-0.3,0.3,-1.0,0.2,0.030438488793934487,0,False,True,0.939123022412131,0,0.0,True,024,-0.19442491863008096
281,"{'mean': -0.3, 'sd': 0.37}",-0.3,1,0.9032001495361328,0,"(1, 3)",282,0,False,0.0,1,0,0,0.0,True,True,-0.3,0.3,-1.0,0.0,0.034464570973305145,0,False,True,0.9310708580533897,0,0.0,True,024,-0.1018111005841068
282,"{'mean': -0.3, 'sd': 0.37}",0.3,2,0.8055229187011719,0,"(0, 2)",283,0,False,0.0,0,1,1,1.0,False,True,0.3,0.3,1.0,0.6,0.38481591963160855,0,False,False,0.2303681607367829,1,1.0,True,024,-0.2162636240061659
283,"{'mean': -0.3, 'sd': 0.37}",0.5,3,0.7607018947601318,0,"(1, 2)",284,0,False,0.0,0,0,1,0.0,False,False,0.5,0.5,1.0,0.2,0.8799967929685988,1,True,True,0.7599935859371976,1,0.0,True,024,-0.2735137261707153
284,"{'mean': -0.3, 'sd': 0.37}",-0.5,0,1.15647292137146,0,"(0, 3)",285,0,False,0.0,1,0,0,1.0,True,True,-0.5,0.5,-1.0,-1.0,0.27734448921225985,0,True,True,0.4453110215754803,0,1.0,True,024,0.1453747881233746
285,"{'mean': -0.3, 'sd': 0.37}",-0.7,1,0.8936200141906738,0,"(1, 3)",286,0,False,0.0,1,0,0,0.0,True,True,-0.7,0.7,-1.0,-0.19999999999999996,0.016649769479791226,0,False,True,0.9667004610404175,0,0.0,True,024,-0.11247463421892578
286,"{'mean': -0.3, 'sd': 0.37}",-0.5,1,1.104858160018921,0,"(1, 3)",287,0,True,0.0,1,0,0,0.0,True,True,-0.5,0.5,-1.0,0.19999999999999996,0.01210387299716009,0,False,True,0.9757922540056798,0,0.0,True,024,0.09971696475678567
287,"{'mean': -0.3, 'sd': 0.37}",-0.7,0,0.785228967666626,0,"(0, 2)",288,0,False,0.0,1,0,0,0.0,True,True,-0.7,0.7,-1.0,-0.19999999999999996,0.0044339717040729875,0,False,True,0.991132056591854,0,0.0,True,024,-0.2417799251734374
288,"{'mean': -0.3, 'sd': 0.37}",-0.9,1,0.6424989700317383,0,"(1, 2)",289,0,False,0.0,1,0,0,0.0,True,True,-0.9,0.9,-1.0,-0.20000000000000007,0.001556905126856446,0,False,True,0.9968861897462871,0,0.0,True,024,-0.4423900652774895
289,"{'mean': -0.3, 'sd': 0.37}",-0.3,0,0.6314229965209961,0,"(0, 2)",290,0,False,0.0,1,0,0,0.0,True,True,-0.3,0.3,-1.0,0.6000000000000001,0.027640075545893414,0,False,True,0.9447198489082131,0,0.0,True,024,-0.4597792820438292
290,"{'mean': -0.3, 'sd': 0.37}",-0.1,0,0.6493549346923828,0,"(0, 3)",291,0,True,0.0,1,0,0,0.0,True,True,-0.1,0.1,-1.0,0.19999999999999998,0.08333166438500124,0,False,True,0.8333366712299975,0,0.0,True,024,-0.4317758170210444
291,"{'mean': 0.3, 'sd': 0.37}",0.3,2,0.8891150951385498,1,"(0, 2)",292,1,False,1.0,0,1,1,1.0,True,True,0.3,0.3,1.0,0.4,0.4600922848826268,0,False,False,0.07981543023474635,1,1.0,True,024,-0.11752858600057448
292,"{'mean': -0.3, 'sd': 0.37}",-0.5,1,0.9920248985290527,0,"(1, 2)",293,0,False,1.0,1,0,0,1.0,True,True,-0.5,0.5,-1.0,-0.8,0.07668091566462479,0,False,True,0.8466381686707505,0,1.0,True,024,-0.008007072688605142
293,"{'mean': -0.3, 'sd': 0.37}",-0.3,1,0.6763160228729248,0,"(1, 2)",294,0,True,0.0,1,0,0,0.0,True,True,-0.3,0.3,-1.0,0.2,0.04595185849844871,0,False,True,0.9080962830031025,0,0.0,True,024,-0.3910948227213357
294,"{'mean': 0.3, 'sd': 0.37}",0.7,2,1.019953966140747,1,"(1, 2)",295,1,False,1.0,0,1,1,1.0,True,True,0.7,0.7,1.0,1.0,0.8097106435231715,1,True,True,0.6194212870463429,1,1.0,True,024,0.019757495043173208
295,"{'mean': 0.3, 'sd': 0.37}",0.5,2,0.5094161033630371,1,"(1, 2)",296,1,True,0.0,0,1,1,0.0,True,True,0.5,0.5,1.0,-0.19999999999999996,0.9690762871002433,1,False,True,0.9381525742004866,1,0.0,True,024,-0.674490104523727
296,"{'mean': 0.3, 'sd': 0.37}",-0.1,0,1.3759949207305908,1,"(0, 2)",297,1,False,0.0,1,0,0,1.0,False,True,-0.1,0.1,-1.0,-0.6,0.8166214886288851,1,False,False,0.6332429772577701,0,1.0,True,024,0.31917704817482645
297,"{'mean': 0.3, 'sd': 0.37}",0.5,3,0.9418439865112305,1,"(0, 3)",298,1,False,0.0,0,1,1,1.0,True,True,0.5,0.5,1.0,0.6,0.9699429785249353,1,False,True,0.9398859570498705,1,1.0,True,024,-0.05991563753701342
298,"{'mean': 0.3, 'sd': 0.37}",0.5,2,0.7816548347473145,1,"(0, 2)",299,1,False,0.0,0,1,1,0.0,True,True,0.5,0.5,1.0,0.0,0.9866620780750547,1,False,True,0.9733241561501094,1,0.0,True,024,-0.24634202366824873
299,"{'mean': 0.3, 'sd': 0.37}",0.5,3,1.1341290473937988,1,"(1, 3)",300,1,False,0.0,0,1,1,0.0,True,True,0.5,0.5,1.0,0.0,0.9882361623697895,1,False,True,0.976472324739579,1,0.0,True,024,0.1258649972382428
300,"{'mean': 0.3, 'sd': 0.37}",0.3,2,1.0209097862243652,1,"(1, 2)",301,1,False,0.0,0,1,1,0.0,True,True,0.3,0.3,1.0,-0.2,0.9712302293477719,1,False,True,0.9424604586955438,1,0.0,True,024,0.02069417702637245
301,"{'mean': 0.3, 'sd': 0.37}",0.7,3,0.8052821159362793,1,"(1, 3)",302,1,False,0.0,0,1,1,0.0,True,True,0.7,0.7,1.0,0.39999999999999997,0.9946593820594192,1,False,True,0.9893187641188383,1,0.0,True,024,-0.21656260837920713
302,"{'mean': 0.3, 'sd': 0.37}",0.3,2,0.8840591907501221,1,"(0, 2)",303,1,False,0.0,0,1,1,0.0,True,True,0.3,0.3,1.0,-0.39999999999999997,0.9726722046760299,1,False,True,0.9453444093520598,1,0.0,True,024,-0.12323126072394217
303,"{'mean': 0.3, 'sd': 0.37}",0.5,3,0.9455130100250244,1,"(0, 3)",304,1,False,0.0,0,1,1,0.0,True,True,0.5,0.5,1.0,0.2,0.9869219525391351,1,False,True,0.9738439050782701,1,0.0,True,024,-0.05602763103643646
304,"{'mean': 0.3, 'sd': 0.37}",0.3,3,0.7523119449615479,1,"(0, 3)",305,1,True,0.0,0,1,1,0.0,True,True,0.3,0.3,1.0,-0.2,0.9709336797881963,1,False,True,0.9418673595763927,1,0.0,True,024,-0.28460422061891444
305,"{'mean': 0.3, 'sd': 0.37}",-0.1,0,1.1495192050933838,1,"(0, 2)",306,1,False,0.0,1,0,0,1.0,False,True,-0.1,0.1,-1.0,-0.4,0.8186305812015549,1,False,False,0.6372611624031097,0,1.0,True,024,0.1393437724267995
306,"{'mean': 0.3, 'sd': 0.37}",1.0,3,0.8845438957214355,1,"(0, 3)",307,1,False,0.0,0,1,1,1.0,True,True,1.0,1.0,1.0,1.1,0.9968220688192952,1,False,True,0.9936441376385905,1,1.0,True,024,-0.12268313889021204
307,"{'mean': 0.3, 'sd': 0.37}",0.7,2,0.7653090953826904,1,"(1, 2)",308,1,False,0.0,0,1,1,0.0,True,True,0.7,0.7,1.0,-0.30000000000000004,0.9956305062324138,1,False,True,0.9912610124648276,1,0.0,True,024,-0.2674754805084245
308,"{'mean': 0.3, 'sd': 0.37}",0.7,2,0.6162080764770508,1,"(1, 2)",309,1,True,0.0,0,1,1,0.0,True,True,0.7,0.7,1.0,0.0,0.9955862314089056,1,False,True,0.9911724628178111,1,0.0,True,024,-0.4841705859969106
309,"{'mean': 0.3, 'sd': 0.37}",0.7,2,0.5401489734649658,1,"(1, 2)",310,1,True,0.0,0,1,1,0.0,True,True,0.7,0.7,1.0,0.0,0.9955845845577396,1,False,True,0.9911691691154791,1,0.0,True,024,-0.6159103006838467
310,"{'mean': 0.3, 'sd': 0.37}",0.3,2,0.55607008934021,1,"(1, 2)",311,1,True,0.0,0,1,1,0.0,True,True,0.3,0.3,1.0,-0.39999999999999997,0.9728788986867816,1,False,True,0.9457577973735631,1,0.0,True,024,-0.5868609327120379
311,"{'mean': 0.3, 'sd': 0.37}",0.3,3,0.9267840385437012,1,"(0, 3)",312,1,False,0.0,0,1,1,0.0,True,True,0.3,0.3,1.0,0.0,0.9677322385120308,1,False,True,0.9354644770240617,1,0.0,True,024,-0.0760347086873443
312,"{'mean': 0.3, 'sd': 0.37}",0.3,2,0.6209728717803955,1,"(0, 2)",313,1,False,0.0,0,1,1,0.0,True,True,0.3,0.3,1.0,0.0,0.9665437806532278,1,False,True,0.9330875613064555,1,0.0,True,024,-0.4764678827365267
313,"{'mean': 0.3, 'sd': 0.37}",0.7,2,0.5173518657684326,1,"(0, 2)",314,1,True,0.0,0,1,1,0.0,True,True,0.7,0.7,1.0,0.39999999999999997,0.9944768379033027,1,False,True,0.9889536758066053,1,0.0,True,024,-0.6590320445427204
314,"{'mean': 0.3, 'sd': 0.37}",0.5,3,0.5661129951477051,1,"(0, 3)",315,1,False,0.0,0,1,1,0.0,True,True,0.5,0.5,1.0,-0.19999999999999996,0.9889575013196713,1,False,True,0.9779150026393426,1,0.0,True,024,-0.5689615826338316
315,"{'mean': 0.3, 'sd': 0.37}",0.1,2,0.8553881645202637,1,"(0, 2)",316,1,False,0.0,0,1,1,0.0,True,True,0.1,0.1,1.0,-0.4,0.9302453364017194,1,False,True,0.8604906728034387,1,0.0,True,024,-0.1561999194783352
316,"{'mean': 0.3, 'sd': 0.37}",0.3,2,0.8399608135223389,1,"(0, 3)",317,1,True,0.0,0,0,1,0.0,False,False,0.3,0.3,1.0,0.19999999999999998,0.9576325002510094,1,False,True,0.9152650005020189,1,0.0,True,024,-0.17440003880159358
317,"{'mean': 0.3, 'sd': 0.37}",0.3,3,1.3481950759887695,1,"(1, 3)",318,1,False,0.0,0,1,1,0.0,True,True,0.3,0.3,1.0,0.0,0.9641874660077716,1,False,True,0.9283749320155432,1,0.0,True,024,0.2987667171450916
318,"{'mean': 0.3, 'sd': 0.37}",-0.1,1,1.0889959335327148,1,"(1, 2)",319,1,False,0.0,1,0,0,1.0,False,True,-0.1,0.1,-1.0,-0.4,0.8113480400591752,1,False,False,0.6226960801183503,0,1.0,True,024,0.0852561098141131
319,"{'mean': 0.3, 'sd': 0.37}",0.3,3,1.0386359691619873,1,"(1, 3)",320,1,False,0.0,0,1,1,1.0,True,True,0.3,0.3,1.0,0.4,0.926043015459126,1,False,True,0.8520860309182521,1,1.0,True,024,0.03790828418155092
320,"{'mean': 0.3, 'sd': 0.37}",0.3,2,0.6680231094360352,1,"(1, 2)",321,1,False,0.0,0,1,1,0.0,True,True,0.3,0.3,1.0,0.0,0.9566046917772166,1,False,True,0.9132093835544333,1,0.0,True,024,-0.4034325110797588
321,"{'mean': -0.3, 'sd': 0.37}",-0.7,1,1.0223519802093506,0,"(1, 3)",322,0,False,1.0,1,0,0,1.0,True,True,-0.7,0.7,-1.0,-1.0,0.18389371837024887,0,True,True,0.6322125632595023,0,1.0,True,024,0.022105835824256723
322,"{'mean': -0.3, 'sd': 0.37}",0.1,2,1.1027259826660156,0,"(0, 2)",323,0,False,0.0,0,1,1,1.0,False,True,0.1,0.1,1.0,0.7999999999999999,0.3535263833170997,0,False,False,0.29294723336580064,1,1.0,True,024,0.09778528027447785
323,"{'mean': -0.3, 'sd': 0.37}",-0.5,0,0.7490689754486084,0,"(0, 3)",324,0,False,0.0,1,0,0,1.0,True,True,-0.5,0.5,-1.0,-0.6,0.05538457223262722,0,False,True,0.8892308555347456,0,1.0,True,024,-0.2889242096533995
324,"{'mean': -0.3, 'sd': 0.37}",-0.5,1,1.117722988128662,0,"(1, 2)",325,0,False,0.0,1,0,0,0.0,True,True,-0.5,0.5,-1.0,0.0,0.01584706254808109,0,False,True,0.9683058749038378,0,0.0,True,024,0.11129356954932579
325,"{'mean': -0.3, 'sd': 0.37}",-1.0,0,1.1070818901062012,0,"(0, 2)",326,0,False,0.0,1,0,0,0.0,True,True,-1.0,1.0,-1.0,-0.5,0.0010401224296112351,0,False,True,0.9979197551407776,0,0.0,True,024,0.10172762579284882
326,"{'mean': -0.3, 'sd': 0.37}",-0.1,0,1.1580519676208496,0,"(0, 3)",327,0,True,0.0,1,0,0,0.0,True,True,-0.1,0.1,-1.0,0.9,0.06851767680483277,0,False,True,0.8629646463903344,0,0.0,True,024,0.14673925519122474
327,"{'mean': 0.3, 'sd': 0.37}",0.1,2,1.080820083618164,1,"(0, 2)",328,1,False,1.0,0,1,1,1.0,True,True,0.1,0.1,1.0,0.2,0.23478937046231688,0,False,False,0.5304212590753663,1,1.0,True,024,0.07772008966937359
328,"{'mean': 0.3, 'sd': 0.37}",0.7,3,0.7648751735687256,1,"(0, 3)",329,1,False,0.0,0,1,1,0.0,True,True,0.7,0.7,1.0,0.6,0.9149826806078176,1,True,True,0.8299653612156352,1,0.0,True,024,-0.26804263027515607
329,"{'mean': 0.3, 'sd': 0.37}",0.5,3,1.1445040702819824,1,"(1, 3)",330,1,True,0.0,0,1,1,0.0,True,True,0.5,0.5,1.0,-0.19999999999999996,0.9811714303552953,1,False,True,0.9623428607105906,1,0.0,True,024,0.13497141678859242
330,"{'mean': -0.3, 'sd': 0.37}",0.3,2,0.889646053314209,0,"(1, 2)",331,0,False,1.0,0,1,1,0.0,False,True,0.3,0.3,1.0,-0.2,0.9696299669259338,1,False,True,0.9392599338518677,1,0.0,True,024,-0.11693158826213076
331,"{'mean': -0.3, 'sd': 0.37}",0.1,2,1.0035779476165771,0,"(1, 2)",332,0,True,0.0,0,1,1,0.0,False,True,0.1,0.1,1.0,-0.19999999999999998,0.9200148914748572,1,False,True,0.8400297829497143,1,0.0,True,024,0.0035715619890978926
332,"{'mean': -0.3, 'sd': 0.37}",-0.9,1,0.9806661605834961,0,"(1, 3)",333,0,False,0.0,1,0,0,1.0,True,True,-0.9,0.9,-1.0,-1.0,0.06270552756401838,0,True,True,0.8745889448719633,0,1.0,True,024,-0.019523182549334165
333,"{'mean': -0.3, 'sd': 0.37}",-0.3,1,0.7639927864074707,0,"(1, 3)",334,0,True,0.0,1,0,0,0.0,True,True,-0.3,0.3,-1.0,0.6000000000000001,0.042404394823854705,0,False,True,0.9151912103522906,0,0.0,True,024,-0.2691969317352297
334,"{'mean': -0.3, 'sd': 0.37}",0.1,1,0.7668230533599854,0,"(1, 3)",335,0,True,0.0,1,0,0,0.0,True,True,0.1,0.1,1.0,0.4,0.20608914756293034,0,False,True,0.5878217048741393,1,1.0,False,024,-0.2654992038911772
335,"{'mean': -0.3, 'sd': 0.37}",-0.1,0,0.7338199615478516,0,"(0, 3)",336,0,False,0.0,1,0,0,0.0,True,True,-0.1,0.1,-1.0,-0.2,0.18909808840123812,0,False,True,0.6218038231975238,0,1.0,True,024,-0.30949156444941317
336,"{'mean': -0.3, 'sd': 0.37}",-0.7,0,0.7805080413818359,0,"(0, 3)",337,0,True,0.0,1,0,0,0.0,True,True,-0.7,0.7,-1.0,-0.6,0.011855108549127316,0,False,True,0.9762897829017454,0,0.0,True,024,-0.24781023622022927
337,"{'mean': -0.3, 'sd': 0.37}",-0.1,1,0.7552738189697266,0,"(1, 3)",338,0,False,0.0,1,0,0,0.0,True,True,-0.1,0.1,-1.0,0.6,0.07451265509095319,0,False,True,0.8509746898180937,0,0.0,True,024,-0.2806749213513904
338,"{'mean': 0.3, 'sd': 0.37}",0.5,2,0.7221310138702393,1,"(0, 2)",339,1,False,1.0,0,1,1,1.0,True,True,0.5,0.5,1.0,0.6,0.6711110416863375,1,True,True,0.342222083372675,1,1.0,True,024,-0.32554869689705146
339,"{'mean': 0.3, 'sd': 0.37}",0.3,3,1.265139102935791,1,"(0, 3)",340,1,False,0.0,0,1,1,0.0,True,True,0.3,0.3,1.0,-0.2,0.8806626066744929,1,False,True,0.7613252133489858,1,0.0,True,024,0.2351820789291103
340,"{'mean': 0.3, 'sd': 0.37}",0.1,2,0.7820498943328857,1,"(1, 2)",341,1,False,0.0,0,1,1,0.0,True,True,0.1,0.1,1.0,-0.19999999999999998,0.8711763919702104,1,False,True,0.7423527839404207,1,0.0,True,024,-0.24583673697744357
341,"{'mean': 0.3, 'sd': 0.37}",-0.1,1,0.9087347984313965,1,"(1, 3)",342,1,False,0.0,1,0,0,1.0,False,True,-0.1,0.1,-1.0,-0.2,0.7149070073608513,1,False,False,0.42981401472170266,0,1.0,True,024,-0.09570197827278575
342,"{'mean': 0.3, 'sd': 0.37}",0.1,3,1.2526631355285645,1,"(0, 3)",343,1,False,0.0,0,1,1,1.0,True,True,0.1,0.1,1.0,0.2,0.771770902290727,1,False,True,0.543541804581454,1,1.0,True,024,0.2252717934223556
343,"{'mean': 0.3, 'sd': 0.37}",0.3,2,0.9223740100860596,1,"(0, 2)",344,1,False,0.0,0,1,1,0.0,True,True,0.3,0.3,1.0,0.19999999999999998,0.9142356432867814,1,False,True,0.8284712865735628,1,0.0,True,024,-0.08080448682704759
344,"{'mean': -0.3, 'sd': 0.37}",-0.3,3,0.9890780448913574,0,"(1, 3)",346,0,False,1.0,0,1,1,0.0,False,True,-0.3,0.3,-1.0,-0.6,0.5473788602537933,1,False,True,0.09475772050758668,0,1.0,False,024,-0.010982037539259368
345,"{'mean': -0.3, 'sd': 0.37}",-0.5,1,0.8315708637237549,0,"(1, 3)",347,0,False,0.0,1,0,0,1.0,True,True,-0.5,0.5,-1.0,-0.2,0.09888021539141895,0,True,True,0.8022395692171621,0,0.0,True,024,-0.1844387600192896
346,"{'mean': 0.3, 'sd': 0.37}",-0.3,0,1.2415969371795654,1,"(0, 2)",348,1,False,1.0,1,0,0,0.0,False,True,-0.3,0.3,-1.0,0.2,0.05172819750150205,0,False,True,0.8965436049969959,0,0.0,True,024,0.21639840361030604
347,"{'mean': 0.3, 'sd': 0.37}",0.1,2,0.97747802734375,1,"(1, 2)",349,1,False,0.0,0,1,1,1.0,True,True,0.1,0.1,1.0,0.4,0.2164188883844619,0,False,False,0.5671622232310762,1,1.0,True,024,-0.022779465795975812
348,"{'mean': 0.3, 'sd': 0.37}",0.3,3,0.9379758834838867,1,"(1, 3)",350,1,False,0.0,0,1,1,0.0,True,True,0.3,0.3,1.0,0.19999999999999998,0.614295303018209,1,True,True,0.228590606036418,1,0.0,True,024,-0.06403104087798413
349,"{'mean': 0.3, 'sd': 0.37}",-0.1,1,1.3393471240997314,1,"(1, 2)",351,1,False,0.0,1,0,0,1.0,False,True,-0.1,0.1,-1.0,-0.4,0.4820358213246096,0,True,True,0.035928357350780815,0,1.0,True,024,0.2921822744110929
350,"{'mean': 0.3, 'sd': 0.37}",0.1,3,1.0449810028076172,1,"(1, 3)",352,1,False,0.0,0,1,1,1.0,True,True,0.1,0.1,1.0,0.2,0.6100389619050477,1,True,True,0.2200779238100954,1,1.0,True,024,0.04399870612006511
351,"{'mean': 0.3, 'sd': 0.37}",-0.3,1,0.674872875213623,1,"(1, 3)",353,1,False,0.0,1,0,0,1.0,False,True,-0.3,0.3,-1.0,-0.4,0.26093052250783066,0,True,True,0.47813895498433867,0,1.0,True,024,-0.3932309388633516
352,"{'mean': 0.3, 'sd': 0.37}",0.7,2,1.0326061248779297,1,"(0, 2)",354,1,False,0.0,0,1,1,1.0,True,True,0.7,0.7,1.0,1.0,0.9223996305109365,1,True,True,0.8447992610218731,1,1.0,True,024,0.032085824956501814
353,"{'mean': 0.3, 'sd': 0.37}",0.5,2,0.6951820850372314,1,"(0, 3)",355,1,True,0.0,0,0,1,0.0,False,False,0.5,0.5,1.0,-0.19999999999999996,0.9819422427274621,1,False,True,0.9638844854549242,1,0.0,True,024,-0.36358147487215503
354,"{'mean': 0.3, 'sd': 0.37}",0.3,2,0.7107300758361816,1,"(1, 2)",356,1,True,0.0,0,1,1,0.0,True,True,0.3,0.3,1.0,-0.2,0.9698052996629122,1,False,True,0.9396105993258244,1,0.0,True,024,-0.34146256143461784
355,"{'mean': 0.3, 'sd': 0.37}",0.1,2,0.5245749950408936,1,"(1, 2)",357,1,True,0.0,0,1,1,0.0,True,True,0.1,0.1,1.0,-0.19999999999999998,0.9201082891696184,1,False,True,0.8402165783392368,1,0.0,True,024,-0.6451668774949484
356,"{'mean': 0.3, 'sd': 0.37}",-0.7,0,1.1670901775360107,1,"(0, 3)",358,1,False,0.0,1,0,0,1.0,False,True,-0.7,0.7,-1.0,-0.7999999999999999,0.1521521442139286,0,True,True,0.6956957115721428,0,1.0,True,024,0.1545136232718979
357,"{'mean': 0.3, 'sd': 0.37}",-0.1,0,0.4379689693450928,1,"(0, 3)",359,1,True,0.0,1,0,0,0.0,False,True,-0.1,0.1,-1.0,0.6,0.15590328320512767,0,False,True,0.6881934335897446,0,0.0,True,024,-0.8256072173594851
358,"{'mean': 0.3, 'sd': 0.37}",-0.5,1,0.5778069496154785,1,"(1, 2)",360,1,False,0.0,1,0,0,0.0,False,True,-0.5,0.5,-1.0,-0.4,0.026787739662349413,0,False,True,0.9464245206753011,0,0.0,True,024,-0.5485154633043032
359,"{'mean': 0.3, 'sd': 0.37}",0.1,0,0.7574648857116699,1,"(0, 2)",361,1,False,0.0,1,0,0,0.0,False,True,0.1,0.1,1.0,0.6,0.18857880786986253,0,False,True,0.6228423842602749,1,1.0,False,024,-0.2777780981692074
360,"{'mean': 0.3, 'sd': 0.37}",0.3,3,0.8713259696960449,1,"(0, 3)",362,1,False,0.0,0,1,1,1.0,True,True,0.3,0.3,1.0,0.19999999999999998,0.5868445077677279,1,True,True,0.1736890155354558,1,0.0,True,024,-0.13773912450097273
361,"{'mean': 0.3, 'sd': 0.37}",-0.1,0,0.9211459159851074,1,"(0, 3)",363,1,False,0.0,1,0,0,1.0,False,True,-0.1,0.1,-1.0,-0.4,0.45966804704662706,0,True,True,0.08066390590674588,0,1.0,True,024,-0.08213682315306418
362,"{'mean': 0.3, 'sd': 0.37}",0.5,3,1.0178568363189697,1,"(1, 3)",364,1,False,0.0,0,1,1,1.0,True,True,0.5,0.5,1.0,0.6,0.9033435331601039,1,True,True,0.8066870663202077,1,1.0,True,024,0.017699275939045127
363,"{'mean': 0.3, 'sd': 0.37}",0.1,2,1.2263669967651367,1,"(0, 2)",365,1,False,0.0,0,1,1,0.0,True,True,0.1,0.1,1.0,-0.4,0.8839074828268292,1,False,True,0.7678149656536584,1,0.0,True,024,0.2040561375521954
364,"{'mean': 0.3, 'sd': 0.37}",0.1,3,1.2180061340332031,1,"(1, 3)",366,1,False,0.0,0,1,1,0.0,True,True,0.1,0.1,1.0,0.0,0.873009890653728,1,False,True,0.746019781307456,1,0.0,True,024,0.19721520542707902
365,"{'mean': 0.3, 'sd': 0.37}",0.5,3,0.6950290203094482,1,"(1, 3)",367,1,True,0.0,0,1,1,0.0,True,True,0.5,0.5,1.0,0.4,0.9766188933363429,1,False,True,0.9532377866726858,1,0.0,True,024,-0.3638016784481631
366,"{'mean': 0.3, 'sd': 0.37}",0.9,3,0.6199820041656494,1,"(1, 3)",368,1,True,0.0,0,1,1,0.0,True,True,0.9,0.9,1.0,0.4,0.997914512568582,1,False,True,0.995829025137164,1,0.0,True,024,-0.4780648269035241
367,"{'mean': 0.3, 'sd': 0.37}",0.3,2,0.6322901248931885,1,"(0, 2)",369,1,False,0.0,0,1,1,0.0,True,True,0.3,0.3,1.0,-0.6000000000000001,0.9733982962247775,1,False,True,0.9467965924495549,1,0.0,True,024,-0.458406931795042
368,"{'mean': 0.3, 'sd': 0.37}",-0.3,0,1.1437029838562012,1,"(0, 2)",370,1,False,0.0,1,0,0,1.0,False,True,-0.3,0.3,-1.0,-0.6,0.6387512859214854,1,False,False,0.2775025718429709,0,1.0,True,024,0.13427122975170602
369,"{'mean': 0.3, 'sd': 0.37}",0.5,3,0.7948911190032959,1,"(1, 3)",371,1,False,0.0,0,1,1,1.0,True,True,0.5,0.5,1.0,0.8,0.9433836899320351,1,False,True,0.8867673798640703,1,1.0,True,024,-0.2295501309358614
370,"{'mean': 0.3, 'sd': 0.37}",0.7,2,0.9115958213806152,1,"(1, 2)",372,1,False,0.0,0,1,1,0.0,True,True,0.7,0.7,1.0,0.19999999999999996,0.9935522934452004,1,False,True,0.9871045868904007,1,0.0,True,024,-0.09255856545106621
371,"{'mean': -0.3, 'sd': 0.37}",-0.1,1,1.2122321128845215,0,"(1, 3)",373,0,False,1.0,1,0,0,1.0,True,True,-0.1,0.1,-1.0,-0.7999999999999999,0.8433456229863225,1,False,False,0.6866912459726451,0,1.0,True,024,0.19246338159194518
372,"{'mean': -0.3, 'sd': 0.37}",-0.3,1,0.630000114440918,0,"(1, 2)",374,0,True,0.0,1,0,0,0.0,True,True,-0.3,0.3,-1.0,-0.19999999999999998,0.4583026404977843,0,True,True,0.0833947190044314,0,0.0,True,024,-0.4620352779443244
373,"{'mean': -0.3, 'sd': 0.37}",-0.1,0,0.539680004119873,0,"(0, 2)",375,0,False,0.0,1,0,0,0.0,True,True,-0.1,0.1,-1.0,0.19999999999999998,0.36048665372557004,0,False,True,0.2790266925488599,0,0.0,True,024,-0.6167789000348787
374,"{'mean': 0.3, 'sd': 0.37}",0.3,3,0.8718039989471436,1,"(1, 3)",376,1,False,1.0,0,1,1,1.0,True,True,0.3,0.3,1.0,0.4,0.7285431860300396,1,True,True,0.4570863720600793,1,1.0,True,024,-0.1371906521877416
375,"{'mean': 0.3, 'sd': 0.37}",0.1,2,1.1953890323638916,1,"(1, 2)",377,1,False,0.0,0,1,1,0.0,True,True,0.1,0.1,1.0,-0.19999999999999998,0.7803980577319294,1,False,True,0.5607961154638588,1,0.0,True,024,0.1784716824988466
376,"{'mean': 0.3, 'sd': 0.37}",0.7,2,0.8483338356018066,1,"(1, 2)",378,1,True,0.0,0,1,1,0.0,True,True,0.7,0.7,1.0,0.6,0.9857807522129596,1,False,True,0.9715615044259192,1,0.0,True,024,-0.1644810466008009
377,"{'mean': 0.3, 'sd': 0.37}",0.9,3,0.6132941246032715,1,"(0, 3)",379,1,False,0.0,0,1,1,0.0,True,True,0.9,0.9,1.0,0.20000000000000007,0.9980568567532129,1,False,True,0.9961137135064257,1,0.0,True,024,-0.4889106463679257
378,"{'mean': -0.3, 'sd': 0.37}",-0.3,0,0.7431759834289551,0,"(0, 2)",380,0,False,1.0,1,0,0,1.0,True,True,-0.3,0.3,-1.0,-1.2,0.6827136284389135,1,False,False,0.36542725687782696,0,1.0,True,024,-0.29682240708948093
379,"{'mean': -0.3, 'sd': 0.37}",-0.7,1,0.532585859298706,0,"(1, 3)",381,0,False,0.0,1,0,0,0.0,True,True,-0.7,0.7,-1.0,-0.39999999999999997,0.06080694622219661,0,True,True,0.8783861075556068,0,0.0,True,024,-0.6300111562763896
380,"{'mean': -0.3, 'sd': 0.37}",-0.1,0,0.7558939456939697,0,"(0, 2)",382,0,False,0.0,1,0,0,0.0,True,True,-0.1,0.1,-1.0,0.6,0.10213372540213618,0,False,True,0.7957325491957277,0,0.0,True,024,-0.2798541961168359
381,"{'mean': -0.3, 'sd': 0.37}",-0.1,1,0.7731080055236816,0,"(1, 2)",383,0,False,0.0,1,0,0,0.0,True,True,-0.1,0.1,-1.0,0.0,0.1260911537418809,0,False,True,0.7478176925162382,0,0.0,True,024,-0.2573365176146616
382,"{'mean': -0.3, 'sd': 0.37}",-0.5,0,1.3724441528320312,0,"(0, 3)",384,0,False,0.0,1,0,0,0.0,True,True,-0.5,0.5,-1.0,-0.4,0.023340301206883133,0,False,True,0.9533193975862337,0,0.0,True,024,0.31659320346951725
383,"{'mean': 0.3, 'sd': 0.37}",0.1,3,1.125458002090454,1,"(1, 3)",385,1,False,1.0,0,1,1,1.0,True,True,0.1,0.1,1.0,0.6,0.18467761054277598,0,False,False,0.630644778914448,1,1.0,True,024,0.118190065777676
384,"{'mean': 0.3, 'sd': 0.37}",0.5,2,0.6092021465301514,1,"(0, 2)",386,1,False,0.0,0,1,1,0.0,True,True,0.5,0.5,1.0,0.4,0.7787968415334292,1,True,True,0.5575936830668584,1,0.0,True,024,-0.49560513444443677
385,"{'mean': 0.3, 'sd': 0.37}",0.1,3,1.3689239025115967,1,"(1, 3)",387,1,False,0.0,0,1,1,0.0,True,True,0.1,0.1,1.0,-0.4,0.8114711581827436,1,False,True,0.6229423163654872,1,0.0,True,024,0.31402495857551105
386,"{'mean': 0.3, 'sd': 0.37}",0.3,2,0.6591980457305908,1,"(1, 2)",388,1,False,0.0,0,1,1,0.0,True,True,0.3,0.3,1.0,0.19999999999999998,0.9260786492581895,1,False,True,0.852157298516379,1,0.0,True,024,-0.4167312649989898
387,"{'mean': 0.3, 'sd': 0.37}",0.1,2,0.8137290477752686,1,"(1, 2)",389,1,True,0.0,0,1,1,0.0,True,True,0.1,0.1,1.0,-0.19999999999999998,0.8964735674685858,1,False,True,0.7929471349371715,1,0.0,True,024,-0.2061278335324423
388,"{'mean': 0.3, 'sd': 0.37}",-0.1,0,0.9947588443756104,1,"(0, 3)",390,1,False,0.0,1,0,0,1.0,False,True,-0.1,0.1,-1.0,-0.2,0.7404269463285857,1,False,False,0.4808538926571715,0,1.0,True,024,-0.005254938660982244
389,"{'mean': 0.3, 'sd': 0.37}",-0.1,0,0.720221996307373,1,"(0, 2)",391,1,True,0.0,1,0,0,0.0,False,True,-0.1,0.1,-1.0,0.0,0.5907520929065101,1,False,False,0.1815041858130202,0,0.0,True,024,-0.3281957862907239
390,"{'mean': 0.3, 'sd': 0.37}",0.5,3,0.8122620582580566,1,"(1, 3)",392,1,False,0.0,0,1,1,1.0,True,True,0.5,0.5,1.0,0.6,0.9343092563707702,1,False,True,0.8686185127415404,1,1.0,True,024,-0.20793225904228152
391,"{'mean': 0.3, 'sd': 0.37}",0.3,2,0.6322429180145264,1,"(1, 2)",393,1,False,0.0,0,1,1,0.0,True,True,0.3,0.3,1.0,-0.2,0.9586208001292967,1,False,True,0.9172416002585935,1,0.0,True,024,-0.4584815947371435
392,"{'mean': 0.3, 'sd': 0.37}",0.1,2,1.3391470909118652,1,"(1, 3)",394,1,True,0.0,0,0,1,0.0,False,False,0.1,0.1,1.0,-0.19999999999999998,0.9141285611871373,1,False,True,0.8282571223742745,1,0.0,True,024,0.29203291199162823
393,"{'mean': 0.3, 'sd': 0.37}",-0.3,0,0.9578349590301514,1,"(0, 3)",395,1,False,0.0,1,0,0,1.0,False,True,-0.3,0.3,-1.0,-0.4,0.547229115181703,1,False,False,0.09445823036340606,0,1.0,True,024,-0.04307979243907303
394,"{'mean': 0.3, 'sd': 0.37}",0.7,2,1.087799072265625,1,"(0, 2)",396,1,False,0.0,0,1,1,1.0,True,True,0.7,0.7,1.0,1.0,0.9685799716302509,1,False,True,0.9371599432605018,1,1.0,True,024,0.0841564551525492
395,"{'mean': 0.3, 'sd': 0.37}",1.0,2,0.7956709861755371,1,"(1, 2)",397,1,True,0.0,0,1,1,0.0,True,True,1.0,1.0,1.0,0.30000000000000004,0.9985853592428628,1,False,True,0.9971707184857257,1,0.0,True,024,-0.2285695125341075
396,"{'mean': 0.3, 'sd': 0.37}",0.5,3,0.6367721557617188,1,"(1, 3)",398,1,False,0.0,0,1,1,0.0,True,True,0.5,0.5,1.0,-0.5,0.9893331387219906,1,False,True,0.9786662774439812,1,0.0,True,024,-0.4513433706564976
397,"{'mean': 0.3, 'sd': 0.37}",-0.1,0,0.9679558277130127,1,"(0, 3)",399,1,False,0.0,1,0,0,1.0,False,True,-0.1,0.1,-1.0,-0.6,0.8387001901697854,1,False,False,0.6774003803395707,0,1.0,True,024,-0.032568825274634956
398,"{'mean': 0.3, 'sd': 0.37}",-0.3,0,0.5714571475982666,1,"(0, 3)",400,1,True,0.0,1,0,0,0.0,False,True,-0.3,0.3,-1.0,-0.19999999999999998,0.45309324141469787,0,True,True,0.09381351717060427,0,0.0,True,024,-0.5595657808888294
399,"{'mean': -0.3, 'sd': 0.37}",-0.3,0,1.1581249237060547,0,"(0, 2)",401,0,True,1.0,1,0,0,0.0,True,True,-0.3,0.3,-1.0,0.0,0.17578420613855653,0,False,True,0.648431587722887,0,0.0,True,024,0.14680225218036008
400,"{'mean': 0.3, 'sd': 0.37}",0.3,2,0.7311220169067383,1,"(0, 2)",402,1,False,1.0,0,1,1,1.0,True,True,0.3,0.3,1.0,0.6,0.5734896624168409,1,True,True,0.1469793248336817,1,1.0,True,024,-0.3131749153685077
401,"{'mean': 0.3, 'sd': 0.37}",-0.1,1,0.6090118885040283,1,"(1, 3)",403,1,False,0.0,1,0,0,1.0,False,True,-0.1,0.1,-1.0,-0.4,0.44894332757883976,0,True,True,0.10211334484232049,0,1.0,True,024,-0.4959174901096949
402,"{'mean': 0.3, 'sd': 0.37}",0.3,2,0.7778370380401611,1,"(1, 2)",404,1,False,0.0,0,1,1,1.0,True,True,0.3,0.3,1.0,0.4,0.7818178868793251,1,True,True,0.5636357737586501,1,1.0,True,024,-0.2512382394174298
403,"{'mean': 0.3, 'sd': 0.37}",0.3,3,0.9685800075531006,1,"(0, 3)",405,1,False,0.0,0,1,1,0.0,True,True,0.3,0.3,1.0,0.0,0.9173011520190245,1,False,True,0.834602304038049,1,0.0,True,024,-0.031924189786526676
404,"{'mean': 0.3, 'sd': 0.37}",-0.1,0,1.104362964630127,1,"(0, 3)",406,1,False,0.0,1,0,0,1.0,False,True,-0.1,0.1,-1.0,-0.4,0.7618286554964175,1,False,False,0.5236573109928351,0,1.0,True,024,0.09926866613102818
405,"{'mean': 0.3, 'sd': 0.37}",0.1,2,0.7305879592895508,1,"(1, 2)",407,1,False,0.0,0,1,1,1.0,True,True,0.1,0.1,1.0,0.2,0.8011039584971532,1,False,True,0.6022079169943064,1,1.0,True,024,-0.31390564533498344
406,"{'mean': 0.3, 'sd': 0.37}",-0.1,1,1.218846082687378,1,"(1, 2)",408,1,False,0.0,1,0,0,1.0,False,True,-0.1,0.1,-1.0,-0.2,0.6468138945003339,1,False,False,0.29362778900066777,0,1.0,True,024,0.19790457729926378
407,"{'mean': 0.3, 'sd': 0.37}",0.5,2,1.0031070709228516,1,"(1, 2)",409,1,False,0.0,0,1,1,1.0,True,True,0.5,0.5,1.0,0.6,0.9448135167685592,1,False,True,0.8896270335371184,1,1.0,True,024,0.003102253953190129
408,"{'mean': 0.3, 'sd': 0.37}",0.3,3,0.8593940734863281,1,"(1, 3)",410,1,False,0.0,0,1,1,0.0,True,True,0.3,0.3,1.0,-0.2,0.9611498741461849,1,False,True,0.9222997482923698,1,0.0,True,024,-0.15152770377122476
409,"{'mean': 0.3, 'sd': 0.37}",-0.3,0,0.6600251197814941,1,"(0, 3)",411,1,False,0.0,1,0,0,1.0,False,True,-0.3,0.3,-1.0,-0.6,0.6183040826409644,1,False,False,0.23660816528192874,0,1.0,True,024,-0.4154773844109486
410,"{'mean': 0.3, 'sd': 0.37}",0.5,2,0.7181029319763184,1,"(0, 2)",412,1,False,0.0,0,1,1,1.0,True,True,0.5,0.5,1.0,0.8,0.9396396034389995,1,False,True,0.8792792068779991,1,1.0,True,024,-0.3311423609103816
411,"{'mean': 0.3, 'sd': 0.37}",0.7,3,0.5159640312194824,1,"(0, 3)",413,1,False,0.0,0,1,1,0.0,True,True,0.7,0.7,1.0,0.19999999999999996,0.9933992289619628,1,False,True,0.9867984579239255,1,0.0,True,024,-0.6617182228692035
412,"{'mean': 0.3, 'sd': 0.37}",-0.3,1,1.01180100440979,1,"(1, 2)",414,1,False,0.0,1,0,0,1.0,False,True,-0.3,0.3,-1.0,-1.0,0.6741065375643974,1,False,False,0.34821307512879485,0,1.0,True,024,0.011731915571183449
413,"{'mean': 0.3, 'sd': 0.37}",0.1,3,1.0954899787902832,1,"(1, 3)",415,1,False,0.0,0,1,1,1.0,True,True,0.1,0.1,1.0,0.4,0.7454400115211914,1,False,True,0.4908800230423829,1,1.0,True,024,0.0912017323988409
414,"{'mean': 0.3, 'sd': 0.37}",0.1,3,1.083561897277832,1,"(1, 2)",416,1,True,0.0,0,0,1,0.0,False,False,0.1,0.1,1.0,0.0,0.7909709211911249,1,False,True,0.5819418423822498,1,0.0,True,024,0.08025366752255682
415,"{'mean': 0.3, 'sd': 0.37}",0.5,2,0.9358119964599609,1,"(1, 2)",417,1,False,0.0,0,1,1,0.0,True,True,0.5,0.5,1.0,0.4,0.966668664833719,1,False,True,0.9333373296674381,1,0.0,True,024,-0.06634068116225937
416,"{'mean': 0.3, 'sd': 0.37}",-0.1,0,0.9234848022460938,1,"(0, 3)",418,1,False,0.0,1,0,0,1.0,False,True,-0.1,0.1,-1.0,-0.6,0.8140217962636703,1,False,False,0.6280435925273407,0,1.0,True,024,-0.07960093616900374
417,"{'mean': 0.3, 'sd': 0.37}",0.1,2,0.9579079151153564,1,"(0, 2)",419,1,False,0.0,0,1,1,1.0,True,True,0.1,0.1,1.0,0.2,0.8325992289943753,1,False,True,0.6651984579887507,1,1.0,True,024,-0.04300362764031537
418,"{'mean': 0.3, 'sd': 0.37}",0.5,2,0.6909360885620117,1,"(1, 2)",420,1,True,0.0,0,1,1,0.0,True,True,0.5,0.5,1.0,0.4,0.9719046996517036,1,False,True,0.9438093993034071,1,0.0,True,024,-0.36970795071923446
419,"{'mean': 0.3, 'sd': 0.37}",0.7,3,0.8893280029296875,1,"(0, 3)",421,1,False,0.0,0,1,1,0.0,True,True,0.7,0.7,1.0,0.19999999999999996,0.9946855310813768,1,False,True,0.9893710621627536,1,0.0,True,024,-0.11728915433994268
420,"{'mean': 0.3, 'sd': 0.37}",0.5,3,0.7430779933929443,1,"(1, 3)",422,1,True,0.0,0,1,1,0.0,True,True,0.5,0.5,1.0,-0.19999999999999996,0.9889766412981579,1,False,True,0.9779532825963158,1,0.0,True,024,-0.2969542688542679
421,"{'mean': 0.3, 'sd': 0.37}",-0.1,1,0.8934099674224854,1,"(1, 3)",423,1,False,0.0,1,0,0,1.0,False,True,-0.1,0.1,-1.0,-0.6,0.8383084200247533,1,False,False,0.6766168400495065,0,1.0,True,024,-0.11270971339646278
422,"{'mean': 0.3, 'sd': 0.37}",0.5,3,0.759117841720581,1,"(1, 3)",424,1,False,0.0,0,1,1,1.0,True,True,0.5,0.5,1.0,0.6,0.972591798826836,1,False,True,0.945183597653672,1,1.0,True,024,-0.27559825445406555
423,"{'mean': 0.3, 'sd': 0.37}",0.3,3,0.6791319847106934,1,"(1, 3)",425,1,True,0.0,0,1,1,0.0,True,True,0.3,0.3,1.0,-0.2,0.9676661580809401,1,False,True,0.9353323161618803,1,0.0,True,024,-0.3869397892957616
424,"{'mean': 0.3, 'sd': 0.37}",-0.1,0,0.8219048976898193,1,"(0, 3)",426,1,False,0.0,1,0,0,1.0,False,True,-0.1,0.1,-1.0,-0.4,0.815098240352999,1,False,False,0.6301964807059981,0,1.0,True,024,-0.1961305868603792
425,"{'mean': 0.3, 'sd': 0.37}",-0.3,1,0.6220748424530029,1,"(1, 3)",427,1,False,0.0,1,0,0,0.0,False,True,-0.3,0.3,-1.0,-0.19999999999999998,0.4276558374592532,0,True,True,0.14468832508149365,0,0.0,True,024,-0.4746948679943454
426,"{'mean': 0.3, 'sd': 0.37}",0.5,3,0.9050321578979492,1,"(0, 3)",428,1,False,0.0,0,1,1,1.0,True,True,0.5,0.5,1.0,0.8,0.8939826008072991,1,True,True,0.7879652016145982,1,1.0,True,024,-0.09978480232461978
427,"{'mean': -0.3, 'sd': 0.37}",-0.1,0,0.7479979991912842,0,"(0, 3)",429,0,False,1.0,1,0,0,1.0,True,True,-0.1,0.1,-1.0,-0.6,0.7378911543594163,1,False,False,0.47578230871883265,0,1.0,True,024,-0.2903549758891996
428,"{'mean': -0.3, 'sd': 0.37}",-0.5,0,0.7180521488189697,0,"(0, 3)",430,0,True,0.0,1,0,0,0.0,True,True,-0.5,0.5,-1.0,-0.4,0.17319174778615157,0,True,True,0.6536165044276969,0,0.0,True,024,-0.3312130819043033
429,"{'mean': -0.3, 'sd': 0.37}",-0.1,1,0.8524320125579834,0,"(1, 2)",431,0,False,0.0,1,0,0,0.0,True,True,-0.1,0.1,-1.0,0.4,0.16871971862555868,0,False,True,0.6625605627488826,0,0.0,True,024,-0.1596618236698407
430,"{'mean': -0.3, 'sd': 0.37}",-0.3,1,0.7071800231933594,0,"(1, 3)",432,0,True,0.0,1,0,0,0.0,True,True,-0.3,0.3,-1.0,-0.19999999999999998,0.07111948436984696,0,False,True,0.8577610312603061,0,0.0,True,024,-0.34647001580462505
431,"{'mean': 0.3, 'sd': 0.37}",0.5,3,0.66261887550354,1,"(0, 3)",433,1,False,1.0,0,1,1,1.0,True,True,0.5,0.5,1.0,0.8,0.666649886043138,1,True,True,0.33329977208627604,1,1.0,True,024,-0.4115553024959195
432,"{'mean': -0.3, 'sd': 0.37}",-0.5,1,0.7127141952514648,0,"(1, 2)",434,0,False,1.0,1,0,0,1.0,True,True,-0.5,0.5,-1.0,-1.0,0.13980234375605474,0,True,True,0.7203953124878906,0,1.0,True,024,-0.3386747871036101
433,"{'mean': -0.3, 'sd': 0.37}",-0.1,0,1.2363159656524658,0,"(0, 3)",435,0,False,0.0,1,0,0,0.0,True,True,-0.1,0.1,-1.0,0.4,0.14845740980862684,0,False,True,0.7030851803827463,0,0.0,True,024,0.2121359620074296
434,"{'mean': -0.3, 'sd': 0.37}",-0.9,0,0.7666599750518799,0,"(0, 2)",436,0,True,0.0,1,0,0,0.0,True,True,-0.9,0.9,-1.0,-0.8,0.0037249823778350817,0,False,True,0.9925500352443298,0,0.0,True,024,-0.26571189396429673
435,"{'mean': -0.3, 'sd': 0.37}",-0.9,1,0.9146180152893066,0,"(1, 3)",437,0,False,0.0,1,0,0,0.0,True,True,-0.9,0.9,-1.0,0.0,0.0015475863109293037,0,False,True,0.9969048273781413,0,0.0,True,024,-0.08924877050049437
436,"{'mean': -0.3, 'sd': 0.37}",-0.1,0,1.0017979145050049,0,"(0, 3)",438,0,False,0.0,1,0,0,0.0,True,True,-0.1,0.1,-1.0,0.8,0.06879812113057983,0,False,True,0.8624037577388404,0,0.0,True,024,0.0017963001913635444
437,"{'mean': -0.3, 'sd': 0.37}",-0.3,1,1.001945972442627,0,"(1, 3)",439,0,False,0.0,1,0,0,0.0,True,True,-0.3,0.3,-1.0,-0.19999999999999998,0.043942636971535935,0,False,True,0.9121147260569281,0,0.0,True,024,0.001944081491015636
438,"{'mean': -0.3, 'sd': 0.37}",-0.7,1,0.9352149963378906,0,"(1, 2)",440,0,True,0.0,1,0,0,0.0,True,True,-0.7,0.7,-1.0,-0.39999999999999997,0.005597443973865868,0,False,True,0.9888051120522683,0,0.0,True,024,-0.06697883351882981
439,"{'mean': -0.3, 'sd': 0.37}",-0.3,0,0.6783750057220459,0,"(0, 2)",441,0,False,0.0,1,0,0,0.0,True,True,-0.3,0.3,-1.0,0.39999999999999997,0.02857937738994884,0,False,True,0.9428412452201023,0,0.0,True,024,-0.3880550381636378
440,"{'mean': -0.3, 'sd': 0.37}",-0.7,0,0.8851349353790283,0,"(0, 3)",442,0,True,0.0,1,0,0,0.0,True,True,-0.7,0.7,-1.0,-0.39999999999999997,0.0050279542478241296,0,False,True,0.9899440915043517,0,0.0,True,024,-0.12201517624164401
441,"{'mean': -0.3, 'sd': 0.37}",-0.1,0,0.5420799255371094,0,"(0, 2)",443,0,True,0.0,1,0,0,0.0,True,True,-0.1,0.1,-1.0,0.6,0.07072376896579606,0,False,True,0.8585524620684079,0,0.0,True,024,-0.6123418243236434
442,"{'mean': -0.3, 'sd': 0.37}",-0.7,1,0.5969369411468506,0,"(1, 2)",444,0,False,0.0,1,0,0,0.0,True,True,-0.7,0.7,-1.0,-0.6,0.006628098748098864,0,False,True,0.9867438025038022,0,0.0,True,024,-0.5159437973880577
443,"{'mean': -0.3, 'sd': 0.37}",-0.3,0,0.5473849773406982,0,"(0, 2)",445,0,False,0.0,1,0,0,0.0,True,True,-0.3,0.3,-1.0,0.39999999999999997,0.028819764996335477,0,False,True,0.942360470007329,0,0.0,True,024,-0.6026029264118096
444,"{'mean': 0.3, 'sd': 0.37}",-0.1,0,0.555872917175293,1,"(0, 3)",446,1,True,1.0,1,0,0,0.0,False,True,-0.1,0.1,-1.0,0.19999999999999998,0.08399407201732552,0,False,True,0.832011855965349,0,0.0,True,024,-0.5872155770882842
445,"{'mean': 0.3, 'sd': 0.37}",0.5,2,0.7357950210571289,1,"(1, 3)",447,1,False,0.0,0,0,1,1.0,False,False,0.5,0.5,1.0,0.6,0.6831074431690091,1,True,True,0.36621488633801813,1,1.0,True,024,-0.3068037030411677
446,"{'mean': 0.3, 'sd': 0.37}",0.3,3,0.6299479007720947,1,"(0, 3)",448,1,False,0.0,0,1,1,0.0,True,True,0.3,0.3,1.0,-0.2,0.8849591768109941,1,False,True,0.7699183536219882,1,0.0,True,024,-0.4621181602033108
447,"{'mean': -0.3, 'sd': 0.37}",-0.3,1,0.7298779487609863,0,"(1, 2)",449,0,False,1.0,1,0,0,1.0,True,True,-0.3,0.3,-1.0,-0.6,0.5082584690121855,1,False,False,0.016516938024371042,0,1.0,True,024,-0.3148779522961888
448,"{'mean': -0.3, 'sd': 0.37}",-0.3,0,1.0050280094146729,0,"(0, 3)",450,0,False,0.0,1,0,0,0.0,True,True,-0.3,0.3,-1.0,0.0,0.20276306225592347,0,True,True,0.5944738754881531,0,0.0,True,024,0.005015411187027142
449,"{'mean': -0.3, 'sd': 0.37}",-0.1,1,0.8288290500640869,0,"(1, 3)",451,0,False,0.0,1,0,0,0.0,True,True,-0.1,0.1,-1.0,0.19999999999999998,0.1870186670608566,0,False,True,0.6259626658782869,0,0.0,True,024,-0.18774135733818112
450,"{'mean': -0.3, 'sd': 0.37}",-0.3,1,0.6415419578552246,0,"(1, 2)",452,0,True,0.0,1,0,0,0.0,True,True,-0.3,0.3,-1.0,-0.19999999999999998,0.07653100706923614,0,False,True,0.8469379858615277,0,0.0,True,024,-0.443880691211497
451,"{'mean': 0.3, 'sd': 0.37}",0.3,3,0.6962840557098389,1,"(1, 3)",453,1,False,1.0,0,1,1,1.0,True,True,0.3,0.3,1.0,0.6,0.45035787236802194,0,False,False,0.09928425526395612,1,1.0,True,024,-0.36199757588860487
452,"{'mean': 0.3, 'sd': 0.37}",0.5,3,0.6204009056091309,1,"(1, 2)",454,1,True,0.0,0,0,1,0.0,False,False,0.5,0.5,1.0,0.2,0.900708323500713,1,True,True,0.8014166470014259,1,0.0,True,024,-0.4773893879626838
453,"{'mean': 0.3, 'sd': 0.37}",-0.5,0,0.796281099319458,1,"(0, 2)",455,1,False,0.0,1,0,0,1.0,False,True,-0.5,0.5,-1.0,-1.0,0.29943418796517335,0,True,True,0.4011316240696533,0,1.0,True,024,-0.22780301562838914
454,"{'mean': 0.3, 'sd': 0.37}",0.7,2,0.5549259185791016,1,"(0, 2)",456,1,False,0.0,0,1,1,1.0,True,True,0.7,0.7,1.0,1.2,0.931841444881049,1,True,True,0.8636828897620981,1,1.0,True,024,-0.5889206541826104
455,"{'mean': 0.3, 'sd': 0.37}",0.5,2,0.601438045501709,1,"(0, 2)",457,1,True,0.0,0,1,1,0.0,True,True,0.5,0.5,1.0,-0.19999999999999996,0.9829095877672073,1,False,True,0.9658191755344145,1,0.0,True,024,-0.5084317488694262
456,"{'mean': 0.3, 'sd': 0.37}",-0.3,0,0.719606876373291,1,"(0, 3)",458,1,False,0.0,1,0,0,1.0,False,True,-0.3,0.3,-1.0,-0.8,0.6552482212730086,1,False,False,0.31049644254601727,0,1.0,True,024,-0.329050221124163
457,"{'mean': 0.3, 'sd': 0.37}",0.1,2,0.7294669151306152,1,"(0, 2)",459,1,False,0.0,0,1,1,1.0,True,True,0.1,0.1,1.0,0.4,0.7330002335774822,1,False,True,0.46600046715496446,1,1.0,True,024,-0.31544126485021273
458,"{'mean': -0.3, 'sd': 0.37}",-0.1,0,0.707360029220581,0,"(0, 2)",460,0,False,1.0,1,0,0,1.0,True,True,-0.1,0.1,-1.0,-0.2,0.5840656453407216,1,False,False,0.16813129068144317,0,1.0,True,024,-0.3462155075948559
459,"{'mean': -0.3, 'sd': 0.37}",-0.7,0,0.5896549224853516,0,"(0, 3)",461,0,True,0.0,1,0,0,0.0,True,True,-0.7,0.7,-1.0,-0.6,0.0444734695028801,0,True,True,0.9110530609942398,0,0.0,True,024,-0.5282177903332014
460,"{'mean': -0.3, 'sd': 0.37}",-0.3,1,0.6265969276428223,0,"(1, 3)",462,0,False,0.0,1,0,0,0.0,True,True,-0.3,0.3,-1.0,0.39999999999999997,0.03787603074675718,0,False,True,0.9242479385064857,0,0.0,True,024,-0.46745180369530964
461,"{'mean': -0.3, 'sd': 0.37}",-0.1,0,1.0171539783477783,0,"(0, 3)",463,0,False,0.0,1,0,0,0.0,True,True,-0.1,0.1,-1.0,0.19999999999999998,0.08909474996629409,0,False,True,0.8218105000674119,0,0.0,True,024,0.017008510077681057
462,"{'mean': -0.3, 'sd': 0.37}",-0.5,1,0.7987329959869385,0,"(1, 2)",464,0,False,0.0,1,0,0,0.0,True,True,-0.5,0.5,-1.0,-0.4,0.01930651847182538,0,False,True,0.9613869630563492,0,0.0,True,024,-0.2247285617962544
463,"{'mean': -0.3, 'sd': 0.37}",-0.7,0,0.8027219772338867,0,"(0, 3)",465,0,False,0.0,1,0,0,0.0,True,True,-0.7,0.7,-1.0,-0.19999999999999996,0.004691559373084302,0,False,True,0.9906168812538314,0,0.0,True,024,-0.21974685508163921
464,"{'mean': -0.3, 'sd': 0.37}",0.5,3,1.4172759056091309,0,"(0, 3)",466,0,False,0.0,0,1,1,1.0,False,True,0.5,0.5,1.0,1.2,0.5561028884093265,1,True,True,0.11220577681865307,1,1.0,True,024,0.34873665284098987
465,"{'mean': -0.3, 'sd': 0.37}",-0.3,1,1.1289308071136475,0,"(1, 3)",467,0,False,0.0,1,0,0,1.0,True,True,-0.3,0.3,-1.0,-0.8,0.2286087754476733,0,True,True,0.5427824491046533,0,1.0,True,024,0.12127099641044153
466,"{'mean': -0.3, 'sd': 0.37}",0.3,3,0.9527959823608398,0,"(1, 3)",468,0,False,0.0,0,1,1,1.0,False,True,0.3,0.3,1.0,0.6,0.6256701044177567,1,True,True,0.25134020883551345,1,1.0,True,024,-0.048354477615722084
467,"{'mean': -0.3, 'sd': 0.37}",-0.3,0,0.6469650268554688,0,"(0, 2)",469,0,False,0.0,1,0,0,1.0,True,True,-0.3,0.3,-1.0,-0.6,0.27100953718931486,0,True,True,0.45798092562137027,0,1.0,True,024,-0.4354630402614375
