,c_dis,context,response,rt,state,stim,trial_count,ts,rep_resp,switch,con_1dim,con_2dim,subj_ts,subj_switch,correct,stim_conform,true_context,abs_context,context_sign,context_diff,log_rt,fit_observer_posterior,fit_observer_choices,fit_observer_switch,conform_fit_observer,fit_certainty,opt_observer_posterior,opt_observer_choices,opt_observer_switch,conform_opt_observer,opt_certainty,ignore_observer_posterior,ignore_observer_choices,ignore_observer_switch,conform_ignore_observer,id
0,"{'mean': 0.3, 'sd': 0.37}",-0.3,3,0.9376349449157715,1,"(1, 3)",2,0,False,,0,1,1,,False,True,0.3,0.3,-1.0,,-0.06439459025262838,0.26042069688633035,0,,False,0.4791586062273393,0.22239052460816902,0,,False,0.555218950783662,0.22239052460816902,0,,False,059
1,"{'mean': 0.3, 'sd': 0.37}",0.1,3,0.9853329658508301,1,"(0, 3)",3,0,True,0.0,0,1,1,0.0,False,True,-0.1,0.1,1.0,0.4,-0.014775658534696754,0.4435810487762166,0,False,False,0.11283790244756675,0.3745477505433374,0,False,False,0.2509044989133252,0.5967216676049257,1,True,True,059
2,"{'mean': -0.3, 'sd': 0.37}",0.1,0,0.7023251056671143,0,"(0, 2)",5,1,False,1.0,1,0,0,1.0,False,True,-0.1,0.1,1.0,0.0,-0.3533588686743615,0.6022980739325575,1,True,False,0.20459614786511504,0.5010055700610183,1,True,False,0.0020111401220366254,0.5967216676049257,1,False,False,059
3,"{'mean': -0.3, 'sd': 0.37}",-0.3,1,0.5482821464538574,0,"(1, 3)",6,1,False,0.0,1,0,0,0.0,False,True,0.3,0.3,-1.0,-0.4,-0.6009652587403255,0.33036579648841236,0,True,True,0.3392684070231753,0.22292189330887865,0,True,True,0.5541562133822426,0.22239052460816902,0,True,True,059
4,"{'mean': -0.3, 'sd': 0.37}",0.9,2,1.2214090824127197,0,"(0, 2)",7,1,False,0.0,0,1,1,1.0,True,True,-0.9,0.9,1.0,1.2,0.20000517784664776,0.9724570612221674,1,True,True,0.9449141224443347,0.953572886184723,1,True,True,0.907145772369446,0.9806388378590251,1,True,True,059
5,"{'mean': -0.3, 'sd': 0.37}",0.7,3,0.8228950500488281,0,"(0, 3)",8,1,False,0.0,0,1,1,0.0,True,True,-0.7,0.7,1.0,-0.20000000000000007,-0.1949266076409274,0.9948670252040525,1,False,True,0.9897340504081049,0.9911284718015828,1,False,True,0.9822569436031656,0.953065101352218,1,False,True,059
6,"{'mean': 0.3, 'sd': 0.37}",-0.3,0,1.2043251991271973,1,"(0, 3)",9,0,False,1.0,1,0,0,1.0,True,True,0.3,0.3,-1.0,-1.0,0.1859194093593316,0.7683790418970993,1,False,False,0.5367580837941985,0.6666013719350531,1,False,False,0.3332027438701062,0.22239052460816902,0,True,True,059
7,"{'mean': 0.3, 'sd': 0.37}",-0.7,0,0.9376859664916992,1,"(0, 3)",10,0,True,0.0,1,0,0,0.0,True,True,0.7,0.7,-1.0,-0.39999999999999997,-0.06434017655134668,0.15904874359199647,0,True,True,0.681902512816007,0.09167234590197151,0,True,True,0.816655308196057,0.05660214579677927,0,False,True,059
8,"{'mean': 0.3, 'sd': 0.37}",-0.5,0,0.4197511672973633,1,"(0, 3)",11,0,True,0.0,1,0,0,0.0,True,True,0.5,0.5,-1.0,0.19999999999999996,-0.868093202093599,0.0434768802430431,0,False,True,0.9130462395139138,0.029206897101029146,0,False,True,0.9415862057979417,0.11477577437543884,0,False,True,059
9,"{'mean': 0.3, 'sd': 0.37}",-0.1,1,0.4574558734893799,1,"(1, 2)",12,0,False,0.0,1,0,0,0.0,True,True,0.1,0.1,-1.0,0.4,-0.782074850307629,0.10362447618461246,0,False,True,0.7927510476307751,0.09534537635043645,0,False,True,0.8093092472991271,0.3916866350666369,0,False,True,059
10,"{'mean': -0.3, 'sd': 0.37}",0.5,0,1.0014090538024902,0,"(0, 3)",13,1,False,1.0,1,0,0,0.0,False,True,-0.5,0.5,1.0,0.6,0.001408062017723829,0.6866036500096022,1,True,False,0.37320730001920444,0.6625741089782867,1,True,False,0.32514821795657345,0.8925827728657627,1,True,False,059
11,"{'mean': 0.3, 'sd': 0.37}",-0.9,0,0.5669667720794678,1,"(0, 3)",14,0,True,1.0,1,0,0,0.0,True,True,0.9,0.9,-1.0,-1.4,-0.5674545800060583,0.061449784043153516,0,True,True,0.877100431913693,0.04493344365642367,0,True,True,0.9101331126871527,0.02755762725460389,0,True,True,059
12,"{'mean': 0.3, 'sd': 0.37}",0.3,1,0.33719706535339355,1,"(0, 2)",15,0,False,0.0,0,0,0,0.0,False,False,-0.3,0.3,1.0,1.2,-1.087087755877499,0.4141327332146512,0,False,True,0.17173453357069757,0.3847355856645862,0,False,True,0.23052882867082758,0.7763230739176619,1,True,False,059
13,"{'mean': 0.3, 'sd': 0.37}",-0.5,0,0.5034530162811279,1,"(0, 2)",16,0,False,0.0,1,0,0,0.0,True,True,0.5,0.5,-1.0,-0.8,-0.686264885415642,0.10744158736473398,0,False,True,0.7851168252705321,0.08328939888103519,0,False,True,0.8334212022379296,0.11477577437543884,0,True,True,059
14,"{'mean': 0.3, 'sd': 0.37}",-0.1,1,0.5298709869384766,1,"(1, 3)",17,0,False,0.0,1,0,0,0.0,True,True,0.1,0.1,-1.0,0.4,-0.6351217229384374,0.1477911822769864,0,False,True,0.7044176354460272,0.1252647517450766,0,False,True,0.7494704965098469,0.3916866350666369,0,False,True,059
15,"{'mean': -0.3, 'sd': 0.37}",0.3,2,1.1607789993286133,0,"(1, 2)",18,1,False,1.0,0,1,1,1.0,True,True,-0.3,0.3,1.0,0.4,0.14909133087406057,0.5354539765391666,1,True,True,0.0709079530783332,0.4858168090752913,0,False,False,0.02836638184941742,0.7763230739176619,1,True,True,059
16,"{'mean': -0.3, 'sd': 0.37}",0.1,2,0.6095371246337891,0,"(1, 2)",19,1,True,0.0,0,1,1,0.0,True,True,-0.1,0.1,1.0,-0.19999999999999998,-0.4950554219341421,0.6716699226145426,1,False,True,0.3433398452290852,0.5862573981230228,1,True,True,0.1725147962460456,0.5967216676049257,1,False,True,059
17,"{'mean': -0.3, 'sd': 0.37}",0.1,3,0.38057899475097656,0,"(0, 3)",20,1,False,0.0,0,1,1,0.0,True,True,-0.1,0.1,1.0,0.0,-0.9660615154723812,0.7642098202482531,1,False,True,0.5284196404965062,0.6585211647094076,1,False,True,0.31704232941881516,0.5967216676049257,1,False,True,059
18,"{'mean': -0.3, 'sd': 0.37}",0.7,2,0.46222901344299316,0,"(0, 2)",21,1,False,0.0,0,1,1,0.0,True,True,-0.7,0.7,1.0,0.6,-0.7716948106260447,0.9843613664411438,1,False,True,0.9687227328822876,0.9708209151882208,1,False,True,0.9416418303764416,0.953065101352218,1,False,True,059
19,"{'mean': -0.3, 'sd': 0.37}",0.3,2,0.6313369274139404,0,"(0, 2)",22,1,True,0.0,0,1,1,0.0,True,True,-0.3,0.3,1.0,-0.39999999999999997,-0.45991560107891666,0.9734078492061154,1,False,True,0.9468156984122309,0.9549704324848881,1,False,True,0.9099408649697762,0.7763230739176619,1,False,True,059
20,"{'mean': -0.3, 'sd': 0.37}",-0.3,2,0.6382548809051514,0,"(0, 2)",23,1,True,0.0,0,1,1,0.0,True,True,0.3,0.3,-1.0,-0.6,-0.4490175755648313,0.7333930041416203,1,False,True,0.4667860082832407,0.6133712179812494,1,False,True,0.22674243596249877,0.22239052460816902,0,True,False,059
21,"{'mean': 0.3, 'sd': 0.37}",-0.1,3,0.5929081439971924,1,"(0, 3)",24,0,False,1.0,0,1,1,0.0,False,True,0.1,0.1,-1.0,0.19999999999999998,-0.5227157924933715,0.6388796019014098,1,False,True,0.2777592038028196,0.4773705653207638,0,True,False,0.04525886935847245,0.3916866350666369,0,False,False,059
22,"{'mean': 0.3, 'sd': 0.37}",-0.9,0,0.8848600387573242,1,"(0, 2)",25,0,False,0.0,1,0,0,1.0,True,True,0.9,0.9,-1.0,-0.8,-0.12232579477777686,0.05245400236516975,0,True,True,0.8950919952696605,0.025764687403183432,0,False,True,0.9484706251936331,0.02755762725460389,0,False,True,059
23,"{'mean': 0.3, 'sd': 0.37}",-0.7,0,0.6961369514465332,1,"(0, 3)",26,0,True,0.0,1,0,0,0.0,True,True,0.7,0.7,-1.0,0.20000000000000007,-0.36220886868452923,0.01135844886007945,0,False,True,0.977283102279841,0.009516477745638989,0,False,True,0.9809670445087221,0.05660214579677927,0,False,True,059
24,"{'mean': 0.3, 'sd': 0.37}",-0.7,0,0.3995058536529541,1,"(1, 3)",27,0,True,0.0,0,0,0,0.0,False,False,0.7,0.7,-1.0,0.0,-0.9175268614352086,0.008234565386350829,0,False,True,0.9835308692272984,0.008546966505934476,0,False,True,0.9829060669881311,0.05660214579677927,0,False,True,059
25,"{'mean': 0.3, 'sd': 0.37}",-0.7,1,0.5405008792877197,1,"(1, 3)",28,0,False,0.0,1,0,0,0.0,True,True,0.7,0.7,-1.0,0.0,-0.6152590150999055,0.008005839882009131,0,False,True,0.9839883202359817,0.008489926612662025,0,False,True,0.983020146774676,0.05660214579677927,0,False,True,059
26,"{'mean': 0.3, 'sd': 0.37}",-0.5,0,0.5053689479827881,1,"(0, 3)",29,0,False,0.0,1,0,0,0.0,True,True,0.5,0.5,-1.0,0.19999999999999996,-0.682466526392856,0.017106028410578414,0,False,True,0.9657879431788432,0.018160722025322706,0,False,True,0.9636785559493546,0.11477577437543884,0,False,True,059
27,"{'mean': -0.3, 'sd': 0.37}",0.5,0,0.7892391681671143,0,"(0, 3)",30,1,True,1.0,1,0,0,0.0,False,True,-0.5,0.5,1.0,1.0,-0.23668587584839534,0.5474381320352116,1,True,False,0.09487626407042327,0.5587287421479484,1,True,False,0.11745748429589686,0.8925827728657627,1,True,False,059
28,"{'mean': 0.3, 'sd': 0.37}",-1.0,1,0.3843510150909424,1,"(1, 2)",31,0,False,1.0,1,0,0,0.0,True,True,1.0,1.0,-1.0,-1.5,-0.9561990421317029,0.027447500847498255,0,True,True,0.9451049983050035,0.02295251902753443,0,True,True,0.9540949619449312,0.01924837303298191,0,True,True,059
29,"{'mean': 0.3, 'sd': 0.37}",0.5,0,0.6778311729431152,1,"(0, 2)",32,0,False,0.0,1,0,0,0.0,True,True,-0.5,0.5,1.0,1.5,-0.3888570295077783,0.5687220838684233,1,True,False,0.13744416773684653,0.566482015314379,1,True,False,0.13296403062875806,0.8925827728657627,1,True,False,059
30,"{'mean': 0.3, 'sd': 0.37}",0.3,1,0.9624471664428711,1,"(0, 3)",33,0,False,0.0,0,0,0,0.0,False,False,-0.3,0.3,1.0,-0.2,-0.03827610633422579,0.8426074999195735,1,False,False,0.685214999839147,0.8096967432235073,1,False,False,0.6193934864470145,0.7763230739176619,1,False,False,059
31,"{'mean': 0.3, 'sd': 0.37}",0.1,0,0.6820077896118164,1,"(0, 3)",34,0,False,0.0,1,0,0,0.0,True,True,-0.1,0.1,1.0,-0.19999999999999998,-0.3827141994856964,0.8657517731734095,1,False,False,0.7315035463468189,0.8051918658180579,1,False,False,0.6103837316361158,0.5967216676049257,1,False,False,059
32,"{'mean': 0.3, 'sd': 0.37}",-0.1,1,1.004709005355835,1,"(1, 3)",35,0,False,0.0,1,0,0,0.0,True,True,0.1,0.1,-1.0,-0.2,0.004697952674622306,0.7586867562587594,1,False,False,0.5173735125175187,0.6386188387525195,1,False,False,0.2772376775050389,0.3916866350666369,0,True,True,059
33,"{'mean': 0.3, 'sd': 0.37}",-0.3,1,0.5959000587463379,1,"(0, 3)",36,0,True,0.0,0,0,0,0.0,False,False,0.3,0.3,-1.0,-0.19999999999999998,-0.5176823126449867,0.4644299800160344,0,True,True,0.07114003996793117,0.30532111933251366,0,True,True,0.3893577613349727,0.22239052460816902,0,False,True,059
34,"{'mean': 0.3, 'sd': 0.37}",-0.5,1,0.6486999988555908,1,"(1, 3)",37,0,True,0.0,1,0,0,0.0,True,True,0.5,0.5,-1.0,-0.2,-0.4327849205272852,0.12442781235982524,0,False,True,0.7511443752803495,0.06563764982189689,0,False,True,0.8687247003562062,0.11477577437543884,0,False,True,059
35,"{'mean': 0.3, 'sd': 0.37}",-0.5,1,0.8396849632263184,1,"(1, 3)",38,0,True,0.0,1,0,0,0.0,True,True,0.5,0.5,-1.0,0.0,-0.1747285012694772,0.03685583144491168,0,False,True,0.9262883371101767,0.02559583016482043,0,False,True,0.9488083396703592,0.11477577437543884,0,False,True,059
36,"{'mean': 0.3, 'sd': 0.37}",-0.7,1,0.43710803985595703,1,"(1, 3)",39,0,True,0.0,1,0,0,0.0,True,True,0.7,0.7,-1.0,-0.19999999999999996,-0.8275748836513791,0.010146983758040549,0,False,True,0.9797060324839189,0.00950626868865316,0,False,True,0.9809874626226937,0.05660214579677927,0,False,True,059
37,"{'mean': 0.3, 'sd': 0.37}",-0.1,0,0.8187551498413086,1,"(0, 3)",40,0,False,0.0,1,0,0,0.0,True,True,0.1,0.1,-1.0,0.6,-0.1999702021699423,0.08099753529215153,0,False,True,0.8380049294156969,0.08467545511035304,0,False,True,0.830649089779294,0.3916866350666369,0,False,True,059
38,"{'mean': 0.3, 'sd': 0.37}",-0.1,2,0.7963869571685791,1,"(0, 2)",41,0,False,0.0,0,1,1,1.0,False,True,0.1,0.1,-1.0,0.0,-0.22767008416304615,0.12941210932879957,0,False,False,0.7411757813424009,0.1260439086080745,0,False,False,0.7479121827838511,0.3916866350666369,0,False,False,059
39,"{'mean': 0.3, 'sd': 0.37}",-0.1,2,0.5769720077514648,1,"(0, 2)",42,0,True,0.0,0,1,1,0.0,False,True,0.1,0.1,-1.0,0.0,-0.5499615270798557,0.16319149440445563,0,False,False,0.6736170111910887,0.14959134935972776,0,False,False,0.7008173012805445,0.3916866350666369,0,False,False,059
40,"{'mean': 0.3, 'sd': 0.37}",0.3,3,0.8702578544616699,1,"(1, 3)",44,0,False,0.0,0,1,1,0.0,False,True,-0.3,0.3,1.0,0.4,-0.13896572680799776,0.553705144371002,1,True,True,0.10741028874200409,0.5125901554333382,1,True,True,0.02518031086667638,0.7763230739176619,1,True,True,059
41,"{'mean': 0.3, 'sd': 0.37}",-0.3,3,0.8986251354217529,1,"(0, 3)",45,0,True,0.0,0,1,1,0.0,False,True,0.3,0.3,-1.0,-0.6,-0.10688931097926409,0.29568358485571555,0,True,False,0.4086328302885689,0.22910950917107714,0,True,False,0.5417809816578457,0.22239052460816902,0,True,False,059
42,"{'mean': 0.3, 'sd': 0.37}",-0.5,0,0.9377520084381104,1,"(0, 2)",46,0,False,0.0,1,0,0,1.0,True,True,0.5,0.5,-1.0,-0.2,-0.0642697482595863,0.07387194503679068,0,False,True,0.8522561099264186,0.0510492215448556,0,False,True,0.8979015569102888,0.11477577437543884,0,False,True,059
43,"{'mean': 0.3, 'sd': 0.37}",-0.9,0,0.6466939449310303,1,"(0, 2)",47,0,True,0.0,1,0,0,0.0,True,True,0.9,0.9,-1.0,-0.4,-0.4358821335995092,0.00621907174154851,0,False,True,0.987561856516903,0.005263139813762837,0,False,True,0.9894737203724743,0.02755762725460389,0,False,True,059
44,"{'mean': 0.3, 'sd': 0.37}",-0.1,0,0.6357190608978271,1,"(0, 3)",48,0,True,0.0,1,0,0,0.0,True,True,0.1,0.1,-1.0,0.8,-0.4529985413807039,0.0783481153565633,0,False,True,0.8433037692868735,0.08239300107628432,0,False,True,0.8352139978474313,0.3916866350666369,0,False,True,059
45,"{'mean': 0.3, 'sd': 0.37}",-0.5,1,0.7082240581512451,1,"(1, 3)",49,0,False,0.0,1,0,0,0.0,True,True,0.5,0.5,-1.0,-0.4,-0.3449947690380014,0.028604793168570886,0,False,True,0.9427904136628582,0.02790282343950536,0,False,True,0.9441943531209893,0.11477577437543884,0,False,True,059
46,"{'mean': 0.3, 'sd': 0.37}",-0.1,0,0.6636509895324707,1,"(0, 3)",50,0,False,0.0,1,0,0,0.0,True,True,0.1,0.1,-1.0,0.4,-0.40999888586534955,0.09349583883276633,0,False,True,0.8130083223344673,0.09463536951130437,0,False,True,0.8107292609773913,0.3916866350666369,0,False,True,059
47,"{'mean': 0.3, 'sd': 0.37}",-0.3,0,0.4232289791107178,1,"(0, 3)",51,0,True,0.0,1,0,0,0.0,True,True,0.3,0.3,-1.0,-0.19999999999999998,-0.8598419246228916,0.06642719321526264,0,False,True,0.8671456135694747,0.06309675693105307,0,False,True,0.8738064861378938,0.22239052460816902,0,False,True,059
48,"{'mean': 0.3, 'sd': 0.37}",0.1,0,0.5821390151977539,1,"(0, 3)",52,0,True,0.0,1,0,0,0.0,True,True,-0.1,0.1,1.0,0.4,-0.5410460020445652,0.23749317512334914,0,False,True,0.5250136497533018,0.2281792782922646,0,False,True,0.5436414434154708,0.5967216676049257,1,True,False,059
49,"{'mean': 0.3, 'sd': 0.37}",-0.5,1,0.5987770557403564,1,"(1, 3)",53,0,False,0.0,1,0,0,0.0,True,True,0.5,0.5,-1.0,-0.6,-0.5128659442376543,0.060010390796406334,0,False,True,0.8799792184071873,0.05088339850995875,0,False,True,0.8982332029800825,0.11477577437543884,0,True,True,059
50,"{'mean': 0.3, 'sd': 0.37}",-0.7,1,0.6031830310821533,1,"(0, 3)",54,0,True,0.0,0,0,0,0.0,False,False,0.7,0.7,-1.0,-0.19999999999999996,-0.5055345941791926,0.011957147559410462,0,False,True,0.9760857048811791,0.011067478343684956,0,False,True,0.9778650433126301,0.05660214579677927,0,False,True,059
51,"{'mean': 0.3, 'sd': 0.37}",-0.5,1,0.5990948677062988,1,"(1, 3)",56,0,True,0.0,1,0,0,0.0,True,True,0.5,0.5,-1.0,0.19999999999999996,-0.5123353166017965,0.01771977599521429,0,False,True,0.9645604480095714,0.018482405078703693,0,False,True,0.9630351898425926,0.11477577437543884,0,False,True,059
52,"{'mean': 0.3, 'sd': 0.37}",-0.1,0,0.6229679584503174,1,"(0, 2)",57,0,False,0.0,1,0,0,0.0,True,True,0.1,0.1,-1.0,0.4,-0.4732601925761868,0.08611563021902774,0,False,True,0.8277687395619445,0.08952208545963627,0,False,True,0.8209558290807275,0.3916866350666369,0,False,True,059
53,"{'mean': -0.3, 'sd': 0.37}",-0.1,1,0.8098568916320801,0,"(1, 2)",58,1,False,1.0,1,0,0,0.0,False,True,0.1,0.1,-1.0,0.0,-0.21089772392230388,0.13295599243649964,0,False,True,0.7340880151270007,0.12877333486677023,0,False,True,0.7424533302664595,0.3916866350666369,0,False,True,059
54,"{'mean': -0.3, 'sd': 0.37}",0.5,2,1.0218210220336914,0,"(0, 3)",59,1,False,0.0,0,0,1,1.0,False,False,-0.5,0.5,1.0,0.6,0.021586351233650037,0.7193252214220179,1,True,True,0.43865044284403587,0.6968061812707456,1,True,True,0.3936123625414911,0.8925827728657627,1,True,True,059
55,"{'mean': -0.3, 'sd': 0.37}",0.9,2,0.868955135345459,0,"(0, 2)",60,1,True,0.0,0,1,1,0.0,True,True,-0.9,0.9,1.0,0.4,-0.1404637829603757,0.9924785729245345,1,False,True,0.9849571458490689,0.9894906083754262,1,False,True,0.9789812167508525,0.9806388378590251,1,False,True,059
56,"{'mean': -0.3, 'sd': 0.37}",0.1,3,0.5481290817260742,0,"(1, 3)",61,1,False,0.0,0,1,1,0.0,True,True,-0.1,0.1,1.0,-0.8,-0.6012444691767813,0.9437744671939963,1,False,True,0.8875489343879925,0.9109342904036711,1,False,True,0.8218685808073423,0.5967216676049257,1,False,True,059
57,"{'mean': -0.3, 'sd': 0.37}",-0.1,3,0.516294002532959,0,"(1, 3)",62,1,True,0.0,0,1,1,0.0,True,True,0.1,0.1,-1.0,-0.2,-0.6610789034085137,0.8323714180628337,1,False,True,0.6647428361256673,0.7376302830163244,1,False,True,0.47526056603264877,0.3916866350666369,0,True,False,059
58,"{'mean': -0.3, 'sd': 0.37}",0.1,2,0.49980711936950684,0,"(0, 2)",63,1,False,0.0,0,1,1,0.0,True,True,-0.1,0.1,1.0,0.2,-0.6935330162459477,0.8600725123739538,1,False,True,0.7201450247479075,0.7598617185377433,1,False,True,0.5197234370754866,0.5967216676049257,1,True,True,059
59,"{'mean': -0.3, 'sd': 0.37}",0.3,2,0.5937008857727051,0,"(1, 2)",64,1,True,0.0,0,1,1,0.0,True,True,-0.3,0.3,1.0,0.19999999999999998,-0.5213796457532683,0.9427567787679982,1,False,True,0.8855135575359965,0.8893174324545627,1,False,True,0.7786348649091255,0.7763230739176619,1,False,True,059
60,"{'mean': -0.3, 'sd': 0.37}",0.3,2,0.5932540893554688,0,"(1, 2)",65,1,True,0.0,0,1,1,0.0,True,True,-0.3,0.3,1.0,0.0,-0.5221324905497456,0.9637412071092302,1,False,True,0.9274824142184603,0.9316908622570187,1,False,True,0.8633817245140374,0.7763230739176619,1,False,True,059
61,"{'mean': -0.3, 'sd': 0.37}",0.1,3,0.7801599502563477,0,"(1, 3)",66,1,False,0.0,0,1,1,0.0,True,True,-0.1,0.1,1.0,-0.19999999999999998,-0.24825631589012118,0.9295199437098759,1,False,True,0.8590398874197518,0.8780265950061535,1,False,True,0.7560531900123071,0.5967216676049257,1,False,True,059
62,"{'mean': -0.3, 'sd': 0.37}",0.1,2,0.571321964263916,0,"(0, 2)",67,1,False,0.0,0,1,1,0.0,True,True,-0.1,0.1,1.0,0.0,-0.5598023678785248,0.9121232234957873,1,False,True,0.8242464469915747,0.8465687218942386,1,False,True,0.6931374437884772,0.5967216676049257,1,False,True,059
63,"{'mean': -0.3, 'sd': 0.37}",0.5,3,0.48719310760498047,0,"(1, 3)",68,1,False,0.0,0,1,1,0.0,True,True,-0.5,0.5,1.0,0.4,-0.7190947096385294,0.9812513102843955,1,False,True,0.962502620568791,0.964258345274992,1,False,True,0.928516690549984,0.8925827728657627,1,False,True,059
64,"{'mean': -0.3, 'sd': 0.37}",0.3,3,0.7229199409484863,0,"(1, 3)",69,1,True,0.0,0,1,1,0.0,True,True,-0.3,0.3,1.0,-0.2,-0.32445679469941685,0.9727041921288653,1,False,True,0.9454083842577305,0.953181142381257,1,False,True,0.9063622847625139,0.7763230739176619,1,False,True,059
65,"{'mean': -0.3, 'sd': 0.37}",-0.3,3,0.8652040958404541,0,"(0, 3)",70,1,True,0.0,0,1,1,0.0,True,True,0.3,0.3,-1.0,-0.6,-0.14478985093333122,0.7322773647551005,1,False,True,0.46455472951020105,0.6108746636364291,1,False,True,0.22174932727285812,0.22239052460816902,0,True,False,059
66,"{'mean': -0.3, 'sd': 0.37}",0.3,3,0.5641679763793945,0,"(1, 3)",71,1,True,0.0,0,1,1,0.0,True,True,-0.3,0.3,1.0,0.6,-0.5724032413668461,0.9047229213584558,1,False,True,0.8094458427169116,0.8300754782552444,1,False,True,0.6601509565104888,0.7763230739176619,1,True,True,059
67,"{'mean': -0.3, 'sd': 0.37}",0.5,3,0.46594786643981934,0,"(0, 3)",72,1,True,0.0,0,1,1,0.0,True,True,-0.5,0.5,1.0,0.2,-0.7636815257075825,0.9804333960569113,1,False,True,0.9608667921138225,0.9618142384024261,1,False,True,0.9236284768048522,0.8925827728657627,1,False,True,059
68,"{'mean': -0.3, 'sd': 0.37}",-0.1,3,0.4661848545074463,0,"(0, 3)",73,1,True,0.0,0,1,1,0.0,True,True,0.1,0.1,-1.0,-0.6,-0.7631730400222129,0.8678162810143275,1,False,True,0.735632562028655,0.7881837206523171,1,False,True,0.5763674413046342,0.3916866350666369,0,True,False,059
69,"{'mean': 0.3, 'sd': 0.37}",-0.3,3,0.5340039730072021,1,"(1, 3)",74,0,True,1.0,0,1,1,0.0,False,True,0.3,0.3,-1.0,-0.19999999999999998,-0.627351999961226,0.5852700341525515,1,False,True,0.17054006830510304,0.4237194310251269,0,True,False,0.15256113794974624,0.22239052460816902,0,False,False,059
70,"{'mean': 0.3, 'sd': 0.37}",-0.1,3,0.47174501419067383,1,"(1, 3)",75,0,True,0.0,0,1,1,0.0,False,True,0.1,0.1,-1.0,0.19999999999999998,-0.7513166635425358,0.5120175487077913,1,False,True,0.024035097415582518,0.33756182902898024,0,False,False,0.3248763419420395,0.3916866350666369,0,False,False,059
71,"{'mean': 0.3, 'sd': 0.37}",-0.5,2,0.5328948497772217,1,"(1, 2)",76,0,False,0.0,0,1,1,0.0,False,True,0.5,0.5,-1.0,-0.4,-0.6294311542462342,0.14238733732605832,0,True,False,0.7152253253478833,0.07247009121985476,0,False,False,0.8550598175602905,0.11477577437543884,0,False,False,059
72,"{'mean': 0.3, 'sd': 0.37}",-0.5,1,0.4995689392089844,1,"(0, 2)",78,0,False,0.0,0,0,0,1.0,False,False,0.5,0.5,-1.0,0.0,-0.6940096739825176,0.04024290209399858,0,False,True,0.9195141958120029,0.026529262726315075,0,False,True,0.9469414745473699,0.11477577437543884,0,False,True,059
73,"{'mean': 0.3, 'sd': 0.37}",-0.5,1,0.48511695861816406,1,"(1, 3)",79,0,True,0.0,1,0,0,0.0,True,True,0.5,0.5,-1.0,0.0,-0.7233652653270439,0.022221885811202862,0,False,True,0.9555562283775942,0.020438360083661997,0,False,True,0.959123279832676,0.11477577437543884,0,False,True,059
74,"{'mean': 0.3, 'sd': 0.37}",-0.5,1,0.600938081741333,1,"(1, 2)",80,0,True,0.0,1,0,0,0.0,True,True,0.5,0.5,-1.0,0.0,-0.5092633751432064,0.019331308725707895,0,False,True,0.9613373825485843,0.01966241581702631,0,False,True,0.9606751683659474,0.11477577437543884,0,False,True,059
75,"{'mean': 0.3, 'sd': 0.37}",-0.1,0,0.557732105255127,1,"(0, 3)",81,0,False,0.0,1,0,0,0.0,True,True,0.1,0.1,-1.0,0.4,-0.5838765299939147,0.08720652065261728,0,False,True,0.8255869586947655,0.09016107426387496,0,False,True,0.81967785147225,0.3916866350666369,0,False,True,059
76,"{'mean': 0.3, 'sd': 0.37}",0.1,1,0.6920108795166016,1,"(1, 2)",82,0,False,0.0,1,0,0,0.0,True,True,-0.1,0.1,1.0,0.2,-0.36815360164325445,0.26183054988981436,0,False,True,0.4763389002203713,0.25415229381315046,0,False,True,0.49169541237369907,0.5967216676049257,1,True,False,059
77,"{'mean': 0.3, 'sd': 0.37}",-0.3,0,0.6836190223693848,1,"(0, 3)",83,0,False,0.0,1,0,0,0.0,True,True,0.3,0.3,-1.0,-0.4,-0.38035450137334564,0.1341418111759209,0,False,True,0.7317163776481582,0.11497193882497249,0,False,True,0.770056122350055,0.22239052460816902,0,True,True,059
78,"{'mean': 0.3, 'sd': 0.37}",-0.7,0,0.5825889110565186,1,"(0, 3)",84,0,True,0.0,1,0,0,0.0,True,True,0.7,0.7,-1.0,-0.39999999999999997,-0.5402734681832253,0.01827656516400122,0,False,True,0.9634468696719976,0.015338888470725563,0,False,True,0.9693222230585489,0.05660214579677927,0,False,True,059
79,"{'mean': 0.3, 'sd': 0.37}",-0.7,1,0.6967980861663818,1,"(0, 2)",85,0,False,0.0,0,0,0,0.0,False,False,0.7,0.7,-1.0,0.0,-0.36125960005154556,0.008745366205760255,0,False,True,0.9825092675884795,0.008891422031457624,0,False,True,0.9822171559370847,0.05660214579677927,0,False,True,059
80,"{'mean': 0.3, 'sd': 0.37}",0.1,1,0.7791769504547119,1,"(1, 3)",86,0,True,0.0,1,0,0,0.0,True,True,-0.1,0.1,1.0,0.7999999999999999,-0.24951710812995334,0.16664516501335225,0,False,True,0.6667096699732955,0.17469947933099117,0,False,True,0.6506010413380177,0.5967216676049257,1,True,False,059
81,"{'mean': 0.3, 'sd': 0.37}",0.3,0,1.1154279708862305,1,"(1, 2)",87,0,False,0.0,0,0,0,0.0,False,False,-0.3,0.3,1.0,0.19999999999999998,0.10923816165927949,0.5576800110432671,1,True,False,0.11536002208653429,0.5386353004531081,1,True,False,0.07727060090621629,0.7763230739176619,1,False,False,059
82,"{'mean': 0.3, 'sd': 0.37}",-0.7,0,0.6554980278015137,1,"(0, 2)",88,0,True,0.0,1,0,0,0.0,True,True,0.7,0.7,-1.0,-1.0,-0.4223599844762516,0.08192312350508611,0,True,True,0.8361537529898277,0.06324840619199658,0,True,True,0.8735031876160069,0.05660214579677927,0,True,True,059
83,"{'mean': -0.3, 'sd': 0.37}",0.1,1,0.8953859806060791,0,"(1, 3)",89,1,False,1.0,1,0,0,0.0,False,True,-0.1,0.1,1.0,0.7999999999999999,-0.11050039042753208,0.25569939472154507,0,False,True,0.48860121055690986,0.22832614052177677,0,False,True,0.5433477189564464,0.5967216676049257,1,True,False,059
84,"{'mean': -0.3, 'sd': 0.37}",0.1,3,0.8076179027557373,0,"(0, 3)",91,1,False,0.0,0,1,1,1.0,True,True,-0.1,0.1,1.0,0.0,-0.21366622493906207,0.43907621380328987,0,False,False,0.12184757239342026,0.3797124226060189,0,False,False,0.2405751547879622,0.5967216676049257,1,False,True,059
85,"{'mean': -0.3, 'sd': 0.37}",0.9,3,0.6047749519348145,0,"(0, 3)",92,1,True,0.0,0,1,1,0.0,True,True,-0.9,0.9,1.0,0.8,-0.502898870426153,0.9807972534988806,1,True,True,0.9615945069977612,0.9721716396827399,1,True,True,0.9443432793654798,0.9806388378590251,1,False,True,059
86,"{'mean': -0.3, 'sd': 0.37}",0.9,2,0.6786990165710449,0,"(0, 2)",93,1,False,0.0,0,1,1,0.0,True,True,-0.9,0.9,1.0,0.0,-0.38757752426265213,0.9980733507448333,1,False,True,0.9961467014896666,0.9968066511391642,1,False,True,0.9936133022783284,0.9806388378590251,1,False,True,059
87,"{'mean': -0.3, 'sd': 0.37}",-0.1,3,0.6973071098327637,0,"(0, 3)",94,1,False,0.0,0,1,1,0.0,True,True,0.1,0.1,-1.0,-1.0,-0.36052934857488067,0.8850649835253914,1,False,True,0.7701299670507828,0.8241329643238003,1,False,True,0.6482659286476007,0.3916866350666369,0,True,False,059
88,"{'mean': -0.3, 'sd': 0.37}",0.1,3,0.5276269912719727,0,"(0, 3)",95,1,True,0.0,0,1,1,0.0,True,True,-0.1,0.1,1.0,0.2,-0.6393657008577446,0.88880941420337,1,False,True,0.77761882840674,0.8140606286604564,1,False,True,0.6281212573209127,0.5967216676049257,1,True,True,059
89,"{'mean': -0.3, 'sd': 0.37}",0.1,3,1.085402011871338,0,"(1, 3)",96,1,True,0.0,0,1,1,0.0,True,True,-0.1,0.1,1.0,0.0,0.08195043622140115,0.8908052166317831,1,False,True,0.7816104332635663,0.8078800768418972,1,False,True,0.6157601536837944,0.5967216676049257,1,False,True,059
90,"{'mean': -0.3, 'sd': 0.37}",0.9,3,0.6448719501495361,0,"(0, 3)",97,1,True,0.0,0,1,1,0.0,True,True,-0.9,0.9,1.0,0.8,-0.4387035087953821,0.9964704940622359,1,False,True,0.9929409881244717,0.992931728377074,1,False,True,0.985863456754148,0.9806388378590251,1,False,True,059
91,"{'mean': -0.3, 'sd': 0.37}",0.3,2,0.7295980453491211,0,"(1, 2)",98,1,False,0.0,0,1,1,0.0,True,True,-0.3,0.3,1.0,-0.6000000000000001,-0.3152615192975325,0.9761194508680252,1,False,True,0.9522389017360504,0.9608959668299202,1,False,True,0.9217919336598404,0.7763230739176619,1,False,True,059
92,"{'mean': -0.3, 'sd': 0.37}",-0.1,2,0.7663350105285645,0,"(0, 2)",99,1,True,0.0,0,1,1,0.0,True,True,0.1,0.1,-1.0,-0.4,-0.2661358542919424,0.86361722461961,1,False,True,0.72723444923922,0.78725355723251,1,False,True,0.57450711446502,0.3916866350666369,0,True,False,059
93,"{'mean': -0.3, 'sd': 0.37}",0.5,2,0.5240139961242676,0,"(1, 2)",100,1,True,0.0,0,1,1,0.0,True,True,-0.5,0.5,1.0,0.6,-0.6462368848569889,0.9756914458513842,1,False,True,0.9513828917027685,0.9551329309811744,1,False,True,0.9102658619623487,0.8925827728657627,1,True,True,059
94,"{'mean': 0.3, 'sd': 0.37}",-0.1,2,0.41983795166015625,1,"(0, 2)",101,0,True,1.0,0,1,1,0.0,False,True,0.1,0.1,-1.0,-0.6,-0.8678864715366098,0.863201027884733,1,False,True,0.7264020557694659,0.7814310716548436,1,False,True,0.5628621433096872,0.3916866350666369,0,True,False,059
95,"{'mean': 0.3, 'sd': 0.37}",-0.3,2,0.42829298973083496,1,"(0, 2)",102,0,True,0.0,0,1,1,0.0,False,True,0.3,0.3,-1.0,-0.19999999999999998,-0.847947762155667,0.5795756990035894,1,False,True,0.1591513980071788,0.41752419718790573,0,True,False,0.16495160562418854,0.22239052460816902,0,False,False,059
96,"{'mean': 0.3, 'sd': 0.37}",-0.5,0,0.9669930934906006,1,"(0, 2)",103,0,False,0.0,1,0,0,1.0,True,True,0.5,0.5,-1.0,-0.2,-0.03356392575641602,0.17171897736180292,0,True,True,0.6565620452763942,0.09145415984055419,0,False,True,0.8170916803188917,0.11477577437543884,0,False,True,059
97,"{'mean': 0.3, 'sd': 0.37}",-0.5,1,0.6509380340576172,1,"(1, 3)",104,0,False,0.0,1,0,0,0.0,True,True,0.5,0.5,-1.0,0.0,-0.4293408270834115,0.045997650395338506,0,False,True,0.908004699209323,0.029176013583058612,0,False,True,0.9416479728338828,0.11477577437543884,0,False,True,059
98,"{'mean': 0.3, 'sd': 0.37}",-0.3,1,0.43842101097106934,1,"(1, 3)",105,0,True,0.0,1,0,0,0.0,True,True,0.3,0.3,-1.0,0.2,-0.8245756180116651,0.04970137495938281,0,False,True,0.9005972500812344,0.0447105933034054,0,False,True,0.9105788133931892,0.22239052460816902,0,False,True,059
99,"{'mean': 0.3, 'sd': 0.37}",-0.1,1,0.5364091396331787,1,"(0, 3)",106,0,True,0.0,0,0,0,0.0,False,False,0.1,0.1,-1.0,0.19999999999999998,-0.6228580888808865,0.10787922764789688,0,False,True,0.7842415447042063,0.10382718745901705,0,False,True,0.7923456250819659,0.3916866350666369,0,False,True,059
100,"{'mean': 0.3, 'sd': 0.37}",-0.3,0,0.5142309665679932,1,"(1, 2)",107,0,False,0.0,0,0,0,0.0,False,False,0.3,0.3,-1.0,-0.19999999999999998,-0.6650827631554359,0.07167975955626846,0,False,True,0.856640480887463,0.06580083670354407,0,False,True,0.8683983265929118,0.22239052460816902,0,False,True,059
101,"{'mean': 0.3, 'sd': 0.37}",0.3,0,0.870715856552124,1,"(0, 2)",108,0,True,0.0,1,0,0,0.0,True,True,-0.3,0.3,1.0,0.6,-0.13843958204415402,0.43046699835931557,0,False,True,0.13906600328136887,0.41307175308953986,0,False,True,0.17385649382092028,0.7763230739176619,1,True,False,059
102,"{'mean': -0.3, 'sd': 0.37}",0.7,2,1.1872999668121338,0,"(0, 2)",109,1,False,1.0,0,1,1,1.0,True,True,-0.7,0.7,1.0,0.39999999999999997,0.17168179373722453,0.9521594714798857,1,True,True,0.9043189429597713,0.9395707573141708,1,True,True,0.8791415146283417,0.953065101352218,1,False,True,059
103,"{'mean': -0.3, 'sd': 0.37}",0.3,2,0.3732781410217285,0,"(0, 2)",110,1,True,0.0,0,1,1,0.0,True,True,-0.3,0.3,1.0,-0.39999999999999997,-0.9854314508389478,0.9659747786692267,1,False,True,0.9319495573384533,0.9463206002765769,1,False,True,0.8926412005531539,0.7763230739176619,1,False,True,059
104,"{'mean': -0.3, 'sd': 0.37}",0.9,2,0.6522130966186523,0,"(1, 2)",111,1,True,0.0,0,1,1,0.0,True,True,-0.9,0.9,1.0,0.6000000000000001,-0.427383935149826,0.9978274146630082,1,False,True,0.9956548293260163,0.996271782387748,1,False,True,0.9925435647754961,0.9806388378590251,1,False,True,059
105,"{'mean': -0.3, 'sd': 0.37}",0.5,2,0.5310230255126953,0,"(0, 2)",112,1,True,0.0,0,1,1,0.0,True,True,-0.5,0.5,1.0,-0.4,-0.6329498961328776,0.9900141530462625,1,False,True,0.980028306092525,0.9836716970112395,1,False,True,0.9673433940224789,0.8925827728657627,1,False,True,059
106,"{'mean': 0.3, 'sd': 0.37}",-0.5,3,1.1382148265838623,1,"(1, 3)",113,0,False,1.0,0,1,1,0.0,False,True,0.5,0.5,-1.0,-1.0,0.12946109344527257,0.5898284407813165,1,False,True,0.17965688156263293,0.4627635437983376,0,True,False,0.07447291240332476,0.11477577437543884,0,True,False,059
107,"{'mean': 0.3, 'sd': 0.37}",0.1,3,0.39978599548339844,1,"(1, 3)",114,0,True,0.0,0,1,1,0.0,False,True,-0.1,0.1,1.0,0.6,-0.9168258863352672,0.7099886898990865,1,False,True,0.41997737979817296,0.5690597409611188,1,True,True,0.13811948192223755,0.5967216676049257,1,True,True,059
108,"{'mean': 0.3, 'sd': 0.37}",-0.1,2,0.8678460121154785,1,"(0, 2)",115,0,False,0.0,0,1,1,0.0,False,True,0.1,0.1,-1.0,-0.2,-0.14174098545689984,0.6183432839252808,1,False,True,0.23668656785056164,0.44309805943838443,0,True,False,0.11380388112323114,0.3916866350666369,0,True,False,059
109,"{'mean': 0.3, 'sd': 0.37}",-0.1,1,0.9035749435424805,1,"(1, 3)",116,0,False,0.0,1,0,0,1.0,True,True,0.1,0.1,-1.0,0.0,-0.1013962243627561,0.5397144258580429,1,False,False,0.07942885171608571,0.3510579632129539,0,False,True,0.2978840735740922,0.3916866350666369,0,False,True,059
110,"{'mean': 0.3, 'sd': 0.37}",-0.3,1,0.4668278694152832,1,"(1, 3)",117,0,True,0.0,1,0,0,0.0,True,True,0.3,0.3,-1.0,-0.19999999999999998,-0.761794677234323,0.286202646047812,0,True,True,0.42759470790437604,0.1525671576788609,0,False,True,0.6948656846422783,0.22239052460816902,0,False,True,059
111,"{'mean': 0.3, 'sd': 0.37}",-0.5,1,0.38615894317626953,1,"(1, 3)",118,0,True,0.0,1,0,0,0.0,True,True,0.5,0.5,-1.0,-0.2,-0.9515062243845521,0.07150959441889447,0,False,True,0.856980811162211,0.038266170773416174,0,False,True,0.9234676584531677,0.11477577437543884,0,False,True,059
112,"{'mean': 0.3, 'sd': 0.37}",-0.3,0,0.4557340145111084,1,"(0, 3)",119,0,False,0.0,1,0,0,0.0,True,True,0.3,0.3,-1.0,0.2,-0.7858459411649876,0.058569306517959815,0,False,True,0.8828613869640803,0.04717615503011453,0,False,True,0.905647689939771,0.22239052460816902,0,False,True,059
113,"{'mean': 0.3, 'sd': 0.37}",-0.5,1,0.446638822555542,1,"(1, 2)",120,0,False,0.0,1,0,0,0.0,True,True,0.5,0.5,-1.0,-0.2,-0.8060050142105757,0.025244499202899603,0,False,True,0.9495110015942008,0.02312262026854641,0,False,True,0.9537547594629072,0.11477577437543884,0,False,True,059
114,"{'mean': 0.3, 'sd': 0.37}",-0.5,0,0.7763957977294922,1,"(0, 3)",121,0,False,0.0,1,0,0,0.0,True,True,0.5,0.5,-1.0,0.0,-0.25309284020902356,0.019810627333611264,0,False,True,0.9603787453327775,0.020003496599639823,0,False,True,0.9599930068007203,0.11477577437543884,0,False,True,059
115,"{'mean': 0.3, 'sd': 0.37}",-0.5,1,0.590421199798584,1,"(1, 2)",122,0,False,0.0,1,0,0,0.0,True,True,0.5,0.5,-1.0,0.0,-0.526919098822607,0.018950505103424664,0,False,True,0.9620989897931507,0.01960728859961975,0,False,True,0.9607854228007605,0.11477577437543884,0,False,True,059
116,"{'mean': 0.3, 'sd': 0.37}",-0.3,0,0.5608079433441162,1,"(1, 3)",123,0,False,0.0,0,0,0,0.0,False,False,0.3,0.3,-1.0,0.2,-0.5783767790537311,0.04058071013145026,0,False,True,0.9188385797370995,0.04214439584994969,0,False,True,0.9157112083001007,0.22239052460816902,0,False,True,059
117,"{'mean': 0.3, 'sd': 0.37}",-0.1,0,0.5674939155578613,1,"(1, 3)",124,0,True,0.0,0,0,0,0.0,False,False,0.1,0.1,-1.0,0.19999999999999998,-0.5665252511679997,0.10164793615656328,0,False,True,0.7967041276868734,0.10241804750877088,0,False,True,0.7951639049824583,0.3916866350666369,0,False,True,059
118,"{'mean': 0.3, 'sd': 0.37}",-0.7,0,0.5302848815917969,1,"(0, 2)",125,0,True,0.0,1,0,0,0.0,True,True,0.7,0.7,-1.0,-0.6,-0.634340904406682,0.015402536070810824,0,False,True,0.9691949278583784,0.01446424217667984,0,False,True,0.9710715156466403,0.05660214579677927,0,False,True,059
119,"{'mean': 0.3, 'sd': 0.37}",-0.1,1,0.5484778881072998,1,"(1, 3)",126,0,False,0.0,1,0,0,0.0,True,True,0.1,0.1,-1.0,0.6,-0.6006083134663321,0.08454809309440939,0,False,True,0.8309038138111813,0.08734942883168303,0,False,True,0.8253011423366339,0.3916866350666369,0,False,True,059
120,"{'mean': 0.3, 'sd': 0.37}",-0.1,0,0.888775110244751,1,"(0, 3)",127,0,False,0.0,1,0,0,0.0,True,True,0.1,0.1,-1.0,0.0,-0.1179110448238625,0.13186992024318897,0,False,True,0.736260159513622,0.1275488304816417,0,False,True,0.7449023390367167,0.3916866350666369,0,False,True,059
121,"{'mean': 0.3, 'sd': 0.37}",-1.0,1,0.6918671131134033,1,"(0, 2)",128,0,False,0.0,0,0,0,0.0,False,False,1.0,1.0,-1.0,-0.9,-0.3683613748782955,0.005983672575729426,0,False,True,0.9880326548485412,0.005369310749712473,0,False,True,0.989261378500575,0.01924837303298191,0,False,True,059
122,"{'mean': 0.3, 'sd': 0.37}",0.1,1,0.5886218547821045,1,"(1, 3)",129,0,True,0.0,1,0,0,0.0,True,True,-0.1,0.1,1.0,1.1,-0.52997131376316,0.16312565352516598,0,False,True,0.6737486929496681,0.17115514215679972,0,False,True,0.6576897156864006,0.5967216676049257,1,True,False,059
123,"{'mean': 0.3, 'sd': 0.37}",-0.3,1,0.6529979705810547,1,"(1, 2)",130,0,True,0.0,1,0,0,0.0,True,True,0.3,0.3,-1.0,-0.4,-0.42618125754965525,0.09272467313483268,0,False,True,0.8145506537303346,0.08661217650030209,0,False,True,0.8267756469993959,0.22239052460816902,0,True,True,059
124,"{'mean': 0.3, 'sd': 0.37}",-0.5,1,0.4996469020843506,1,"(1, 3)",131,0,True,0.0,1,0,0,0.0,True,True,0.5,0.5,-1.0,-0.2,-0.6938536258649787,0.031113893795531724,0,False,True,0.9377722124089366,0.02849339129397536,0,False,True,0.9430132174120492,0.11477577437543884,0,False,True,059
125,"{'mean': 0.3, 'sd': 0.37}",0.3,3,0.7822179794311523,1,"(1, 3)",132,0,False,0.0,0,1,1,1.0,False,True,-0.3,0.3,1.0,0.8,-0.24562183120365297,0.361899717031752,0,False,False,0.276200565936496,0.36124465289482655,0,False,False,0.2775106942103469,0.7763230739176619,1,True,True,059
126,"{'mean': 0.3, 'sd': 0.37}",-0.1,2,0.6507570743560791,1,"(0, 2)",133,0,False,0.0,0,1,1,0.0,False,True,0.1,0.1,-1.0,-0.4,-0.4296188640853702,0.33378271995985276,0,False,False,0.3324345600802945,0.29517768971235253,0,False,False,0.40964462057529494,0.3916866350666369,0,True,False,059
127,"{'mean': 0.3, 'sd': 0.37}",-0.7,3,0.7224729061126709,1,"(0, 3)",134,0,False,0.0,0,1,1,0.0,False,True,0.7,0.7,-1.0,-0.6,-0.3250753598887744,0.040612075499423514,0,False,False,0.9187758490011529,0.03045904563481416,0,False,False,0.9390819087303717,0.05660214579677927,0,False,False,059
128,"{'mean': 0.3, 'sd': 0.37}",-0.1,3,0.725043773651123,1,"(1, 3)",135,0,True,0.0,0,1,1,0.0,False,True,0.1,0.1,-1.0,0.6,-0.32152324850028224,0.10166933132830776,0,False,False,0.7966613373433845,0.09602761122240573,0,False,False,0.8079447775551886,0.3916866350666369,0,False,False,059
129,"{'mean': 0.3, 'sd': 0.37}",-0.5,1,0.9478960037231445,1,"(1, 3)",136,0,False,0.0,1,0,0,1.0,True,True,0.5,0.5,-1.0,-0.4,-0.053510483458661225,0.03270426008565249,0,False,True,0.9345914798286951,0.029825618475377378,0,False,True,0.9403487630492452,0.11477577437543884,0,False,True,059
130,"{'mean': 0.3, 'sd': 0.37}",-0.5,0,0.6463348865509033,1,"(0, 2)",137,0,False,0.0,1,0,0,0.0,True,True,0.5,0.5,-1.0,0.0,-0.4364375092889198,0.02100302665650478,0,False,True,0.9579939466869904,0.02086128134808095,0,False,True,0.9582774373038381,0.11477577437543884,0,False,True,059
131,"{'mean': 0.3, 'sd': 0.37}",0.1,3,0.634911060333252,1,"(0, 3)",138,0,False,0.0,0,1,1,1.0,False,True,-0.1,0.1,1.0,0.6,-0.45427035236642854,0.18212187580297345,0,False,False,0.6357562483940531,0.186680687053112,0,False,False,0.626638625893776,0.5967216676049257,1,True,True,059
132,"{'mean': 0.3, 'sd': 0.37}",-0.3,3,0.6265499591827393,1,"(0, 3)",139,0,True,0.0,0,1,1,0.0,False,True,0.3,0.3,-1.0,-0.4,-0.4675267645169001,0.10029749212724677,0,False,False,0.7994050157455065,0.09167747183589589,0,False,False,0.8166450563282082,0.22239052460816902,0,True,False,059
133,"{'mean': -0.3, 'sd': 0.37}",0.1,3,0.4347379207611084,0,"(0, 3)",140,1,True,1.0,0,1,1,0.0,True,True,-0.1,0.1,1.0,0.4,-0.8330119104670121,0.2768581568971835,0,False,False,0.44628368620563297,0.25559358037422464,0,False,False,0.4888128392515507,0.5967216676049257,1,True,True,059
134,"{'mean': -0.3, 'sd': 0.37}",0.5,2,0.469714879989624,0,"(1, 2)",141,1,False,0.0,0,1,1,0.0,True,True,-0.5,0.5,1.0,0.4,-0.7556294066774575,0.8265772960649687,1,True,True,0.6531545921299373,0.7913981366548102,1,True,True,0.5827962733096204,0.8925827728657627,1,False,True,059
135,"{'mean': -0.3, 'sd': 0.37}",0.5,2,0.3874778747558594,0,"(1, 2)",142,1,True,0.0,0,1,1,0.0,True,True,-0.5,0.5,1.0,0.0,-0.9480965292230881,0.9711069394780133,1,False,True,0.9422138789560266,0.9558018085128414,1,False,True,0.9116036170256827,0.8925827728657627,1,False,True,059
136,"{'mean': -0.3, 'sd': 0.37}",-0.1,3,0.521481990814209,0,"(0, 3)",143,1,False,0.0,0,1,1,0.0,True,True,0.1,0.1,-1.0,-0.6,-0.651080538571526,0.8587476335474579,1,False,True,0.7174952670949157,0.7821055086857992,1,False,True,0.5642110173715984,0.3916866350666369,0,True,False,059
137,"{'mean': -0.3, 'sd': 0.37}",0.7,2,0.6750450134277344,0,"(1, 2)",144,1,False,0.0,0,1,1,0.0,True,True,-0.7,0.7,1.0,0.7999999999999999,-0.39297590377345054,0.9896611549701299,1,False,True,0.9793223099402597,0.9807780357932999,1,False,True,0.9615560715865998,0.953065101352218,1,True,True,059
138,"{'mean': -0.3, 'sd': 0.37}",-0.1,3,0.7181358337402344,0,"(1, 3)",145,1,False,0.0,0,1,1,0.0,True,True,0.1,0.1,-1.0,-0.7999999999999999,-0.3310965443446306,0.8768235831028465,1,False,True,0.7536471662056929,0.8075432763219342,1,False,True,0.6150865526438685,0.3916866350666369,0,True,False,059
139,"{'mean': -0.3, 'sd': 0.37}",0.3,2,0.4640390872955322,0,"(1, 2)",146,1,False,0.0,0,1,1,0.0,True,True,-0.3,0.3,1.0,0.4,-0.7677864904427988,0.9472136182486002,1,False,True,0.8944272364972004,0.9057794432806013,1,False,True,0.8115588865612027,0.7763230739176619,1,True,True,059
140,"{'mean': -0.3, 'sd': 0.37}",0.5,2,0.4704761505126953,0,"(1, 2)",147,1,True,0.0,0,1,1,0.0,True,True,-0.5,0.5,1.0,0.2,-0.7540100109063018,0.9849914408393711,1,False,True,0.9699828816787421,0.9724970415721714,1,False,True,0.9449940831443429,0.8925827728657627,1,False,True,059
141,"{'mean': -0.3, 'sd': 0.37}",0.5,2,0.48952603340148926,0,"(0, 2)",148,1,True,0.0,0,1,1,0.0,True,True,-0.5,0.5,1.0,0.0,-0.7143176347659376,0.9887794824812658,1,False,True,0.9775589649625316,0.98088570503453,1,False,True,0.96177141006906,0.8925827728657627,1,False,True,059
142,"{'mean': -0.3, 'sd': 0.37}",0.1,3,0.7238950729370117,0,"(1, 3)",149,1,False,0.0,0,1,1,0.0,True,True,-0.1,0.1,1.0,-0.4,-0.3231088239819166,0.9419573441643324,1,False,True,0.8839146883286648,0.9060974967112292,1,False,True,0.8121949934224584,0.5967216676049257,1,False,True,059
143,"{'mean': -0.3, 'sd': 0.37}",-0.3,2,0.5287959575653076,0,"(1, 2)",150,1,False,0.0,0,1,1,0.0,True,True,0.3,0.3,-1.0,-0.4,-0.6371526350175496,0.6853623295515345,1,False,True,0.37072465910306907,0.5493294209987556,1,False,True,0.09865884199751118,0.22239052460816902,0,True,False,059
144,"{'mean': -0.3, 'sd': 0.37}",-0.3,0,0.8095541000366211,0,"(0, 2)",151,1,False,0.0,1,0,0,1.0,False,True,0.3,0.3,-1.0,0.0,-0.21127167667493466,0.39679437676281454,0,True,True,0.20641124647437092,0.24957165605669826,0,True,True,0.5008566878866034,0.22239052460816902,0,False,True,059
145,"{'mean': -0.3, 'sd': 0.37}",0.1,1,0.7884697914123535,0,"(0, 2)",152,1,False,0.0,0,0,0,0.0,False,False,-0.1,0.1,1.0,0.4,-0.23766118477476858,0.5645203420737599,1,True,False,0.1290406841475198,0.39803824984652286,0,False,True,0.20392350030695428,0.5967216676049257,1,True,False,059
146,"{'mean': -0.3, 'sd': 0.37}",0.5,2,1.2617740631103516,0,"(0, 2)",153,1,False,0.0,0,1,1,1.0,True,True,-0.5,0.5,1.0,0.4,0.23251871727520562,0.9266888049977332,1,False,True,0.8533776099954664,0.8585807913887454,1,True,True,0.7171615827774909,0.8925827728657627,1,False,True,059
147,"{'mean': -0.3, 'sd': 0.37}",-0.1,2,0.5351948738098145,0,"(0, 2)",154,1,True,0.0,0,1,1,0.0,True,True,0.1,0.1,-1.0,-0.6,-0.6251243482972948,0.8160338611465023,1,False,True,0.6320677222930047,0.6876274205109735,1,False,True,0.37525484102194695,0.3916866350666369,0,True,False,059
148,"{'mean': -0.3, 'sd': 0.37}",0.5,3,0.5601468086242676,0,"(1, 3)",155,1,False,0.0,0,1,1,0.0,True,True,-0.5,0.5,1.0,0.6,-0.5795563713527929,0.9697434382806968,1,False,True,0.9394868765613935,0.9374220364148153,1,False,True,0.8748440728296305,0.8925827728657627,1,True,True,059
149,"{'mean': -0.3, 'sd': 0.37}",0.7,3,0.36827802658081055,0,"(0, 3)",156,1,True,0.0,0,1,1,0.0,True,True,-0.7,0.7,1.0,0.19999999999999996,-0.9989171190518933,0.994754958607409,1,False,True,0.9895099172148181,0.990284039401871,1,False,True,0.9805680788037421,0.953065101352218,1,False,True,059
150,"{'mean': -0.3, 'sd': 0.37}",-0.1,2,0.5663630962371826,0,"(0, 2)",157,1,False,0.0,0,1,1,0.0,True,True,0.1,0.1,-1.0,-0.7999999999999999,-0.56851989367378,0.881810517965576,1,False,True,0.7636210359311519,0.8173567041117468,1,False,True,0.6347134082234935,0.3916866350666369,0,True,False,059
151,"{'mean': -0.3, 'sd': 0.37}",-0.1,3,0.4554331302642822,0,"(1, 2)",158,1,False,0.0,0,0,1,0.0,False,False,0.1,0.1,-1.0,0.0,-0.7865063781868623,0.7736614858639177,1,False,True,0.5473229717278354,0.6496155242362069,1,False,True,0.2992310484724139,0.3916866350666369,0,False,False,059
152,"{'mean': -0.3, 'sd': 0.37}",-0.3,3,0.6311790943145752,0,"(1, 3)",159,1,True,0.0,0,1,1,0.0,True,True,0.3,0.3,-1.0,-0.19999999999999998,-0.46016563053988363,0.4794572287138864,0,True,False,0.041085542572227185,0.3128554478201985,0,True,False,0.37428910435960305,0.22239052460816902,0,False,False,059
153,"{'mean': -0.3, 'sd': 0.37}",0.7,2,0.6219699382781982,0,"(1, 2)",160,1,False,0.0,0,1,1,0.0,True,True,-0.7,0.7,1.0,1.0,-0.47486351815337213,0.9589801003163295,1,True,True,0.917960200632659,0.9185798160486724,1,True,True,0.8371596320973449,0.953065101352218,1,True,True,059
154,"{'mean': -0.3, 'sd': 0.37}",0.1,3,0.5392429828643799,0,"(0, 3)",161,1,False,0.0,0,1,1,0.0,True,True,-0.1,0.1,1.0,-0.6,-0.617589006566421,0.927127421919469,1,False,True,0.8542548438389379,0.8704228420245061,1,False,True,0.7408456840490123,0.5967216676049257,1,False,True,059
155,"{'mean': -0.3, 'sd': 0.37}",0.5,3,0.5283479690551758,0,"(0, 3)",162,1,True,0.0,0,1,1,0.0,True,True,-0.5,0.5,1.0,0.4,-0.6380001800408295,0.9828779450711799,1,False,True,0.9657558901423597,0.9676748630905664,1,False,True,0.9353497261811328,0.8925827728657627,1,False,True,059
156,"{'mean': -0.3, 'sd': 0.37}",1.0,3,0.37677597999572754,0,"(0, 3)",163,1,True,0.0,0,1,1,0.0,True,True,-1.0,1.0,1.0,0.5,-0.9761044856692892,0.9988099554355787,1,False,True,0.9976199108711574,0.9979336285965967,1,False,True,0.9958672571931935,0.9877466362688535,1,False,True,059
157,"{'mean': -0.3, 'sd': 0.37}",-0.1,2,0.7069799900054932,0,"(1, 3)",164,1,False,0.0,0,0,1,0.0,False,False,0.1,0.1,-1.0,-1.1,-0.3467529161657346,0.8857880084287163,1,False,True,0.7715760168574326,0.8253073126788021,1,False,True,0.6506146253576042,0.3916866350666369,0,True,False,059
158,"{'mean': -0.3, 'sd': 0.37}",0.1,2,0.8720030784606934,0,"(1, 2)",165,1,True,0.0,0,1,1,0.0,True,True,-0.1,0.1,1.0,0.2,-0.13696232473455724,0.8891952584035866,1,False,True,0.7783905168071732,0.814779044795292,1,False,True,0.6295580895905839,0.5967216676049257,1,True,True,059
159,"{'mean': 0.3, 'sd': 0.37}",0.3,3,0.4071309566497803,1,"(1, 3)",166,0,False,1.0,0,1,1,0.0,False,True,-0.3,0.3,1.0,0.19999999999999998,-0.8986203844831794,0.9504355844192809,1,False,True,0.9008711688385618,0.9081861323527693,1,False,True,0.8163722647055387,0.7763230739176619,1,False,True,059
160,"{'mean': 0.3, 'sd': 0.37}",-0.7,0,0.6550438404083252,1,"(1, 2)",167,0,False,0.0,0,0,0,1.0,False,False,0.7,0.7,-1.0,-1.0,-0.42305311366561904,0.3264922717516938,0,True,True,0.34701545649661236,0.20533143194783743,0,True,True,0.5893371361043251,0.05660214579677927,0,True,True,059
161,"{'mean': 0.3, 'sd': 0.37}",-0.9,0,0.6434998512268066,1,"(1, 3)",168,0,True,0.0,0,0,0,0.0,False,False,0.9,0.9,-1.0,-0.20000000000000007,-0.4408334831397561,0.019112506370832467,0,False,True,0.9617749872583351,0.010639533110640843,0,False,True,0.9787209337787183,0.02755762725460389,0,False,True,059
162,"{'mean': 0.3, 'sd': 0.37}",-0.1,1,0.9236569404602051,1,"(1, 3)",169,0,False,0.0,1,0,0,0.0,True,True,0.1,0.1,-1.0,0.8,-0.0794145528388783,0.0870583716780261,0,False,True,0.8258832566439478,0.08528599093386376,0,False,True,0.8294280181322725,0.3916866350666369,0,False,True,059
163,"{'mean': 0.3, 'sd': 0.37}",0.3,1,0.8095729351043701,1,"(1, 2)",170,0,True,0.0,1,0,0,0.0,True,True,-0.3,0.3,1.0,0.4,-0.21124841096774666,0.4539259216957271,0,False,True,0.0921481566085458,0.43814548570733947,0,False,True,0.12370902858532107,0.7763230739176619,1,True,False,059
164,"{'mean': -0.3, 'sd': 0.37}",0.5,3,0.8931231498718262,0,"(0, 3)",171,1,False,1.0,0,1,1,1.0,True,True,-0.5,0.5,1.0,0.2,-0.11303080182224887,0.8979497306679751,1,True,True,0.7958994613359502,0.8730266446794491,1,True,True,0.7460532893588983,0.8925827728657627,1,False,True,059
165,"{'mean': -0.3, 'sd': 0.37}",0.1,2,0.782973051071167,0,"(0, 2)",172,1,False,0.0,0,1,1,0.0,True,True,-0.1,0.1,1.0,-0.4,-0.24465700111726177,0.8956519543777492,1,False,True,0.7913039087554985,0.843592026108051,1,False,True,0.6871840522161019,0.5967216676049257,1,False,True,059
166,"{'mean': -0.3, 'sd': 0.37}",-0.5,2,1.0040760040283203,0,"(0, 2)",173,1,True,0.0,0,1,1,0.0,True,True,0.5,0.5,-1.0,-0.6,0.0040677196277710435,0.4260955886196746,0,True,False,0.14780882276065077,0.29363485129627676,0,True,False,0.4127302974074465,0.11477577437543884,0,True,False,059
167,"{'mean': -0.3, 'sd': 0.37}",0.5,3,0.4975419044494629,0,"(1, 3)",174,1,False,0.0,0,1,1,0.0,True,True,-0.5,0.5,1.0,1.0,-0.6980754958814693,0.8892261973689054,1,True,True,0.7784523947378108,0.8123229225444674,1,True,True,0.6246458450889347,0.8925827728657627,1,True,True,059
168,"{'mean': -0.3, 'sd': 0.37}",0.5,3,0.4486570358276367,0,"(1, 2)",175,1,True,0.0,0,0,1,0.0,False,False,-0.5,0.5,1.0,0.0,-0.8014965231418515,0.9786860555921753,1,False,True,0.9573721111843505,0.959104946683475,1,False,True,0.91820989336695,0.8925827728657627,1,False,True,059
169,"{'mean': -0.3, 'sd': 0.37}",0.3,2,0.5484349727630615,0,"(1, 2)",176,1,False,0.0,0,1,1,0.0,True,True,-0.3,0.3,1.0,-0.2,-0.6006865609658211,0.972121549583994,1,False,True,0.944243099167988,0.9517660534907894,1,False,True,0.9035321069815787,0.7763230739176619,1,False,True,059
170,"{'mean': -0.3, 'sd': 0.37}",-0.3,3,0.6415231227874756,0,"(0, 3)",177,1,False,0.0,0,1,1,0.0,True,True,0.3,0.3,-1.0,-0.6,-0.4439100507007926,0.7313550667346715,1,False,True,0.4627101334693431,0.6089089130542069,1,False,True,0.21781782610841383,0.22239052460816902,0,True,False,059
171,"{'mean': -0.3, 'sd': 0.37}",-0.3,1,0.8111038208007812,0,"(1, 2)",178,1,False,0.0,1,0,0,1.0,False,True,0.3,0.3,-1.0,0.0,-0.20935921727609808,0.438111013271415,0,True,True,0.12377797345717001,0.2857392134351999,0,True,True,0.42852157312960015,0.22239052460816902,0,False,True,059
172,"{'mean': -0.3, 'sd': 0.37}",0.5,0,0.7384710311889648,0,"(1, 3)",179,1,False,0.0,0,0,0,0.0,False,False,-0.5,0.5,1.0,0.8,-0.30317340433531104,0.8930796661445075,1,True,False,0.786159332289015,0.8081910349736384,1,True,False,0.6163820699472768,0.8925827728657627,1,True,False,059
173,"{'mean': -0.3, 'sd': 0.37}",0.5,0,0.8876340389251709,0,"(0, 3)",180,1,True,0.0,1,0,0,0.0,False,True,-0.5,0.5,1.0,0.0,-0.119195739261574,0.9791250001763013,1,False,False,0.9582500003526027,0.9584622834129326,1,False,False,0.9169245668258652,0.8925827728657627,1,False,False,059
174,"{'mean': -0.3, 'sd': 0.37}",0.3,2,0.7982840538024902,0,"(1, 2)",181,1,False,0.0,0,1,1,1.0,True,True,-0.3,0.3,1.0,-0.2,-0.22529078772406555,0.9722213910562723,1,False,True,0.9444427821125445,0.9515889602079757,1,False,True,0.9031779204159514,0.7763230739176619,1,False,True,059
175,"{'mean': 0.3, 'sd': 0.37}",-0.7,1,1.0298140048980713,1,"(1, 2)",182,0,False,1.0,1,0,0,1.0,True,True,0.7,0.7,-1.0,-1.0,0.029378208166553225,0.3637003846456678,0,True,True,0.27259923070866443,0.24601978171523195,0,True,True,0.507960436569536,0.05660214579677927,0,True,True,059
176,"{'mean': 0.3, 'sd': 0.37}",-0.3,1,1.0018630027770996,1,"(1, 3)",183,0,True,0.0,1,0,0,0.0,True,True,0.3,0.3,-1.0,0.39999999999999997,0.0018612695397759607,0.1829487800218616,0,False,True,0.6341024399562768,0.11204800419663373,0,False,True,0.7759039916067325,0.22239052460816902,0,False,True,059
177,"{'mean': -0.3, 'sd': 0.37}",0.3,1,0.7106189727783203,0,"(1, 2)",184,1,True,1.0,1,0,0,0.0,False,True,-0.3,0.3,1.0,0.6,-0.34161889609174645,0.5758903044810461,1,True,False,0.1517806089620921,0.4705858708836041,0,False,True,0.05882825823279181,0.7763230739176619,1,True,False,059
178,"{'mean': -0.3, 'sd': 0.37}",0.5,2,1.0769939422607422,0,"(1, 2)",185,1,False,0.0,0,1,1,1.0,True,True,-0.5,0.5,1.0,0.2,0.07417377351659675,0.9292044656253464,1,False,True,0.8584089312506928,0.8836579114018785,1,True,True,0.7673158228037571,0.8925827728657627,1,False,True,059
179,"{'mean': -0.3, 'sd': 0.37}",0.1,3,0.688809871673584,0,"(0, 3)",186,1,False,0.0,0,1,1,0.0,True,True,-0.1,0.1,1.0,-0.4,-0.3727899942733115,0.9119606594822912,1,False,True,0.8239213189645824,0.8499118444042385,1,False,True,0.699823688808477,0.5967216676049257,1,False,True,059
180,"{'mean': -0.3, 'sd': 0.37}",0.5,2,0.7168841361999512,0,"(0, 2)",188,1,False,0.0,0,1,1,0.0,True,True,-0.5,0.5,1.0,0.4,-0.33284104669852477,0.9812334553806692,1,False,True,0.9624669107613384,0.9647454588039345,1,False,True,0.929490917607869,0.8925827728657627,1,False,True,059
181,"{'mean': -0.3, 'sd': 0.37}",0.7,3,1.0494320392608643,0,"(1, 3)",189,1,False,0.0,0,1,1,0.0,True,True,-0.7,0.7,1.0,0.19999999999999996,0.048249102832489225,0.9952258325723989,1,False,True,0.9904516651447979,0.9916991808949128,1,False,True,0.9833983617898256,0.953065101352218,1,False,True,059
182,"{'mean': -0.3, 'sd': 0.37}",0.3,3,0.5464780330657959,0,"(0, 3)",190,1,True,0.0,0,1,1,0.0,True,True,-0.3,0.3,1.0,-0.39999999999999997,-0.6042611678444162,0.9758427768694189,1,False,True,0.9516855537388378,0.9605697654270685,1,False,True,0.921139530854137,0.7763230739176619,1,False,True,059
183,"{'mean': -0.3, 'sd': 0.37}",0.3,3,0.44402098655700684,0,"(0, 3)",191,1,True,0.0,0,1,1,0.0,True,True,-0.3,0.3,1.0,0.0,-0.811883450646677,0.9714733714973514,1,False,True,0.9429467429947027,0.9521691843635227,1,False,True,0.9043383687270454,0.7763230739176619,1,False,True,059
184,"{'mean': -0.3, 'sd': 0.37}",0.1,2,0.4718921184539795,0,"(0, 2)",192,1,False,0.0,0,1,1,0.0,True,True,-0.1,0.1,1.0,-0.19999999999999998,-0.751004882118494,0.9333866056547583,1,False,True,0.8667732113095166,0.8897990767467638,1,False,True,0.7795981534935277,0.5967216676049257,1,False,True,059
185,"{'mean': -0.3, 'sd': 0.37}",0.1,3,0.8765509128570557,0,"(1, 3)",193,1,False,0.0,0,1,1,0.0,True,True,-0.1,0.1,1.0,0.0,-0.13176048976239157,0.9141124061880874,1,False,True,0.8282248123761748,0.8535462811230905,1,False,True,0.707092562246181,0.5967216676049257,1,False,True,059
186,"{'mean': -0.3, 'sd': 0.37}",0.5,3,0.4138171672821045,0,"(0, 3)",194,1,True,0.0,0,1,1,0.0,True,True,-0.5,0.5,1.0,0.4,-0.8823310276242816,0.9814693827658594,1,False,True,0.9629387655317188,0.9652719079604811,1,False,True,0.9305438159209622,0.8925827728657627,1,False,True,059
187,"{'mean': -0.3, 'sd': 0.37}",-0.1,2,0.6145951747894287,0,"(0, 2)",195,1,False,0.0,0,1,1,0.0,True,True,0.1,0.1,-1.0,-0.6,-0.4867914802937461,0.8688257974618915,1,False,True,0.737651594923783,0.7916921577794513,1,False,True,0.5833843155589027,0.3916866350666369,0,True,False,059
188,"{'mean': -0.3, 'sd': 0.37}",-0.1,3,0.8082029819488525,0,"(1, 3)",196,1,False,0.0,0,1,1,0.0,True,True,0.1,0.1,-1.0,0.0,-0.21294203672708392,0.7615457230711787,1,False,True,0.5230914461423575,0.626530093033364,1,False,True,0.2530601860667281,0.3916866350666369,0,False,False,059
189,"{'mean': -0.3, 'sd': 0.37}",0.9,2,0.614962100982666,0,"(1, 2)",197,1,False,0.0,0,1,1,0.0,True,True,-0.9,0.9,1.0,1.0,-0.4861946374929109,0.9936035564700123,1,False,True,0.9872071129400246,0.9868247679623985,1,False,True,0.973649535924797,0.9806388378590251,1,True,True,059
190,"{'mean': -0.3, 'sd': 0.37}",-0.1,1,0.22667717933654785,0,"(0, 2)",198,1,False,0.0,0,0,0,1.0,False,False,0.1,0.1,-1.0,-1.0,-1.4842283911296403,0.8806823474060456,1,False,False,0.7613646948120911,0.8137770488975022,1,False,False,0.6275540977950045,0.3916866350666369,0,True,True,059
191,"{'mean': -0.3, 'sd': 0.37}",0.7,2,0.5653362274169922,0,"(0, 2)",199,1,False,0.0,0,1,1,1.0,True,True,-0.7,0.7,1.0,0.7999999999999999,-0.5703346320597467,0.9907536435290875,1,False,True,0.9815072870581749,0.9829476506017236,1,False,True,0.9658953012034472,0.953065101352218,1,True,True,059
192,"{'mean': -0.3, 'sd': 0.37}",0.3,2,0.3938751220703125,0,"(1, 2)",200,1,True,0.0,0,1,1,0.0,True,True,-0.3,0.3,1.0,-0.39999999999999997,-0.9317213689832929,0.9748448135050011,1,False,True,0.9496896270100021,0.9582397570035974,1,False,True,0.9164795140071949,0.7763230739176619,1,False,True,059
193,"{'mean': -0.3, 'sd': 0.37}",0.5,3,0.48044300079345703,0,"(1, 3)",201,1,False,0.0,0,1,1,0.0,True,True,-0.5,0.5,1.0,0.2,-0.7330466823877514,0.9877851086391668,1,False,True,0.9755702172783336,0.9791658371616455,1,False,True,0.958331674323291,0.8925827728657627,1,False,True,059
194,"{'mean': -0.3, 'sd': 0.37}",0.3,2,0.4629240036010742,0,"(0, 2)",202,1,False,0.0,0,1,1,0.0,True,True,-0.3,0.3,1.0,-0.2,-0.7701923774587501,0.974179045592613,1,False,True,0.9483580911852261,0.9572253051151836,1,False,True,0.9144506102303671,0.7763230739176619,1,False,True,059
195,"{'mean': -0.3, 'sd': 0.37}",0.3,3,0.506594181060791,0,"(0, 3)",203,1,False,0.0,0,1,1,0.0,True,True,-0.3,0.3,1.0,0.0,-0.6800450277403185,0.9710929228922737,1,False,True,0.9421858457845473,0.95124770650026,1,False,True,0.90249541300052,0.7763230739176619,1,False,True,059
196,"{'mean': -0.3, 'sd': 0.37}",0.3,2,1.0221469402313232,0,"(0, 2)",204,1,False,0.0,0,1,1,0.0,True,True,-0.3,0.3,1.0,0.0,0.02190525858093828,0.9703849137573524,1,False,True,0.9407698275147047,0.9495913556731242,1,False,True,0.8991827113462485,0.7763230739176619,1,False,True,059
197,"{'mean': -0.3, 'sd': 0.37}",0.3,3,0.5430641174316406,0,"(0, 3)",205,1,False,0.0,0,1,1,0.0,True,True,-0.3,0.3,1.0,0.0,-0.610527886034489,0.9702220614091835,1,False,True,0.9404441228183671,0.9491302494159127,1,False,True,0.8982604988318255,0.7763230739176619,1,False,True,059
198,"{'mean': 0.3, 'sd': 0.37}",-0.7,1,1.0471570491790771,1,"(1, 3)",206,0,False,1.0,1,0,0,1.0,True,True,0.7,0.7,-1.0,-1.0,0.04607891985557078,0.3600040433887293,0,True,True,0.27999191322254136,0.24338893765556469,0,True,True,0.5132221246888706,0.05660214579677927,0,True,True,059
199,"{'mean': 0.3, 'sd': 0.37}",0.3,0,1.1301910877227783,1,"(0, 3)",207,0,False,0.0,1,0,0,0.0,True,True,-0.3,0.3,1.0,1.0,0.122386722607199,0.7284832737441853,1,True,False,0.4569665474883706,0.6026920539089824,1,True,False,0.2053841078179648,0.7763230739176619,1,True,False,059
200,"{'mean': 0.3, 'sd': 0.37}",-0.5,1,0.47592782974243164,1,"(1, 2)",208,0,False,0.0,1,0,0,0.0,True,True,0.5,0.5,-1.0,-0.8,-0.7424890544340853,0.2590675001983666,0,True,True,0.4818649996032668,0.15100650313911293,0,True,True,0.6979869937217742,0.11477577437543884,0,True,True,059
201,"{'mean': 0.3, 'sd': 0.37}",-0.9,1,0.4534940719604492,1,"(0, 3)",209,0,True,0.0,0,0,0,0.0,False,False,0.9,0.9,-1.0,-0.4,-0.7907730812644232,0.014961218753860275,0,False,True,0.9700775624922795,0.008564877081734803,0,False,True,0.9828702458365304,0.02755762725460389,0,False,True,059
202,"{'mean': 0.3, 'sd': 0.37}",-0.5,0,0.44631505012512207,1,"(0, 3)",210,0,False,0.0,1,0,0,0.0,True,True,0.5,0.5,-1.0,0.4,-0.8067301859232793,0.018188831540123684,0,False,True,0.9636223369197526,0.018170058530033454,0,False,True,0.9636598829399331,0.11477577437543884,0,False,True,059
203,"{'mean': 0.3, 'sd': 0.37}",-0.1,0,0.4073641300201416,1,"(0, 3)",211,0,True,0.0,1,0,0,0.0,True,True,0.1,0.1,-1.0,0.4,-0.8980478251625709,0.08643308393980885,0,False,True,0.8271338321203823,0.08935301836407673,0,False,True,0.8212939632718466,0.3916866350666369,0,False,True,059
204,"{'mean': 0.3, 'sd': 0.37}",0.1,0,0.6673040390014648,1,"(0, 2)",212,0,True,0.0,1,0,0,0.0,True,True,-0.1,0.1,1.0,0.2,-0.4045095063388112,0.26093540618803207,0,False,True,0.47812918762393586,0.25338366303891746,0,False,True,0.4932326739221651,0.5967216676049257,1,True,False,059
205,"{'mean': 0.3, 'sd': 0.37}",-0.5,1,0.5210130214691162,1,"(1, 2)",213,0,False,0.0,1,0,0,0.0,True,True,0.5,0.5,-1.0,-0.6,-0.6519802443182238,0.06541558803057043,0,False,True,0.8691688239388591,0.05547576422877949,0,False,True,0.889048471542441,0.11477577437543884,0,True,True,059
206,"{'mean': 0.3, 'sd': 0.37}",-0.3,1,0.5219030380249023,1,"(0, 2)",214,0,True,0.0,0,0,0,0.0,False,False,0.3,0.3,-1.0,0.2,-0.650273459263484,0.056427017848901743,0,False,True,0.8871459643021965,0.05191956074844005,0,False,True,0.8961608785031199,0.22239052460816902,0,False,True,059
207,"{'mean': 0.3, 'sd': 0.37}",-0.3,1,0.5180408954620361,1,"(1, 2)",215,0,True,0.0,1,0,0,0.0,True,True,0.3,0.3,-1.0,0.0,-0.6577010910705344,0.053294855562969035,0,False,True,0.8934102888740619,0.05093115908986671,0,False,True,0.8981376818202665,0.22239052460816902,0,False,True,059
208,"{'mean': 0.3, 'sd': 0.37}",-0.9,1,0.7923109531402588,1,"(1, 3)",216,0,True,0.0,1,0,0,0.0,True,True,0.9,0.9,-1.0,-0.6000000000000001,-0.2328013466204969,0.005428879448935424,0,False,True,0.9891422411021291,0.005259581672056,0,False,True,0.989480836655888,0.02755762725460389,0,False,True,059
209,"{'mean': 0.3, 'sd': 0.37}",0.1,0,0.7715749740600586,1,"(0, 3)",217,0,False,0.0,1,0,0,0.0,True,True,-0.1,0.1,1.0,1.0,-0.2593214323022915,0.16241716525395103,0,False,True,0.675165669492098,0.17104458196068484,0,False,True,0.6579108360786303,0.5967216676049257,1,True,False,059
210,"{'mean': 0.3, 'sd': 0.37}",-0.3,0,0.40497303009033203,1,"(0, 3)",218,0,True,0.0,1,0,0,0.0,True,True,0.3,0.3,-1.0,-0.4,-0.9039348064625188,0.09244567987929622,0,False,True,0.8151086402414076,0.08657647943036807,0,False,True,0.8268470411392639,0.22239052460816902,0,True,True,059
211,"{'mean': 0.3, 'sd': 0.37}",0.3,3,0.7612168788909912,1,"(0, 2)",219,0,False,0.0,0,0,1,1.0,False,False,-0.3,0.3,1.0,0.6,-0.2728369697505561,0.4618491326750639,0,False,False,0.07630173464987222,0.43976140820611254,0,False,False,0.12047718358777493,0.7763230739176619,1,True,True,059
212,"{'mean': 0.3, 'sd': 0.37}",-0.3,2,0.7331769466400146,1,"(0, 2)",220,0,False,0.0,0,1,1,0.0,False,True,0.3,0.3,-1.0,-0.6,-0.31036820562762935,0.2371189566975785,0,False,False,0.525762086604843,0.1921309793224812,0,False,False,0.6157380413550376,0.22239052460816902,0,True,False,059
213,"{'mean': 0.3, 'sd': 0.37}",-0.1,3,1.2996940612792969,1,"(1, 3)",221,0,False,0.0,0,1,1,0.0,False,True,0.1,0.1,-1.0,0.19999999999999998,0.26212889929381755,0.24044957171098272,0,False,False,0.5191008565780346,0.18842213250802697,0,False,False,0.623155734983946,0.3916866350666369,0,False,False,059
214,"{'mean': 0.3, 'sd': 0.37}",-0.1,3,0.4621591567993164,1,"(0, 3)",222,0,True,0.0,0,1,1,0.0,False,True,0.1,0.1,-1.0,0.0,-0.7718459519886423,0.24288635339181497,0,False,False,0.5142272932163701,0.18620217218923807,0,False,False,0.6275956556215239,0.3916866350666369,0,False,False,059
215,"{'mean': 0.3, 'sd': 0.37}",-0.9,2,1.2912921905517578,1,"(0, 2)",223,0,False,0.0,0,1,1,0.0,False,True,0.9,0.9,-1.0,-0.8,0.2556434151109575,0.014056110410276944,0,False,False,0.9718877791794461,0.009883460337329092,0,False,False,0.9802330793253418,0.02755762725460389,0,False,False,059
216,"{'mean': -0.3, 'sd': 0.37}",0.5,1,1.233422040939331,0,"(1, 2)",225,1,False,1.0,1,0,0,1.0,False,True,-0.5,0.5,1.0,1.4,0.2097924534815282,0.5408366659373313,1,True,False,0.08167333187466252,0.5448273694462137,1,True,False,0.08965473889242737,0.8925827728657627,1,True,False,059
217,"{'mean': -0.3, 'sd': 0.37}",0.3,3,1.2637231349945068,0,"(0, 3)",226,1,False,0.0,0,1,1,1.0,True,True,-0.3,0.3,1.0,-0.2,0.23406223296200204,0.8300437761098312,1,False,True,0.6600875522196623,0.7992223284999048,1,False,True,0.5984446569998096,0.7763230739176619,1,False,True,059
218,"{'mean': -0.3, 'sd': 0.37}",-0.1,3,0.46648216247558594,0,"(0, 3)",227,1,True,0.0,0,1,1,0.0,True,True,0.1,0.1,-1.0,-0.4,-0.7625354963484337,0.7257361312062062,1,False,True,0.45147226241241234,0.6332584523991438,1,False,True,0.2665169047982876,0.3916866350666369,0,True,False,059
219,"{'mean': -0.3, 'sd': 0.37}",0.5,3,0.4312779903411865,0,"(1, 3)",228,1,True,0.0,0,1,1,0.0,True,True,-0.5,0.5,1.0,0.6,-0.8410024076038317,0.9568529565185185,1,False,True,0.9137059130370371,0.9262183794895894,1,False,True,0.8524367589791788,0.8925827728657627,1,True,True,059
220,"{'mean': -0.3, 'sd': 0.37}",1.0,3,0.44049501419067383,0,"(1, 3)",229,1,True,0.0,0,1,1,0.0,True,True,-1.0,1.0,1.0,0.5,-0.8198561521928323,0.9985364462831294,1,False,True,0.9970728925662589,0.9973812219629524,1,False,True,0.9947624439259048,0.9877466362688535,1,False,True,059
221,"{'mean': -0.3, 'sd': 0.37}",0.1,2,0.40225815773010254,0,"(1, 2)",230,1,False,0.0,0,1,1,0.0,True,True,-0.1,0.1,1.0,-0.9,-0.9106612130664294,0.9467391453375769,1,False,True,0.8934782906751537,0.9153507458396841,1,False,True,0.8307014916793682,0.5967216676049257,1,False,True,059
222,"{'mean': -0.3, 'sd': 0.37}",0.7,3,0.5806241035461426,0,"(1, 3)",231,1,False,0.0,0,1,1,0.0,True,True,-0.7,0.7,1.0,0.6,-0.5436517133615897,0.9937829242708865,1,False,True,0.9875658485417731,0.9890913133950927,1,False,True,0.9781826267901854,0.953065101352218,1,False,True,059
223,"{'mean': -0.3, 'sd': 0.37}",0.5,2,0.6547250747680664,0,"(1, 2)",232,1,False,0.0,0,1,1,0.0,True,True,-0.5,0.5,1.0,-0.19999999999999996,-0.423539864638037,0.989627881106161,1,False,True,0.9792557622123219,0.9828408198289145,1,False,True,0.9656816396578289,0.8925827728657627,1,False,True,059
224,"{'mean': -0.3, 'sd': 0.37}",-0.9,2,0.6927230358123779,0,"(1, 2)",233,1,True,0.0,0,1,1,0.0,True,True,0.9,0.9,-1.0,-1.4,-0.36712501939986436,0.2385007930443169,0,True,False,0.5229984139113661,0.15769776444674966,0,True,False,0.6846044711065007,0.02755762725460389,0,True,False,059
225,"{'mean': -0.3, 'sd': 0.37}",0.9,3,0.42328596115112305,0,"(0, 3)",235,1,False,0.0,0,1,1,0.0,True,True,-0.9,0.9,1.0,1.8,-0.8597072972518172,0.9615974707546828,1,True,True,0.9231949415093657,0.9407713326235092,1,True,True,0.8815426652470184,0.9806388378590251,1,True,True,059
226,"{'mean': -0.3, 'sd': 0.37}",0.1,3,0.873089075088501,0,"(0, 2)",236,1,True,0.0,0,0,1,0.0,False,False,-0.1,0.1,1.0,-0.8,-0.1357176950274185,0.9284437861718038,1,False,True,0.8568875723436076,0.8832622794345559,1,False,True,0.7665245588691119,0.5967216676049257,1,False,True,059
227,"{'mean': -0.3, 'sd': 0.37}",1.0,3,0.43781614303588867,0,"(0, 3)",237,1,True,0.0,0,1,1,0.0,True,True,-1.0,1.0,1.0,0.9,-0.8259562214898244,0.9982224509330052,1,False,True,0.9964449018660104,0.9967630263327162,1,False,True,0.9935260526654324,0.9877466362688535,1,False,True,059
228,"{'mean': -0.3, 'sd': 0.37}",0.3,3,1.1665370464324951,0,"(1, 3)",238,1,True,0.0,0,1,1,0.0,True,True,-0.3,0.3,1.0,-0.7,0.15403957059699505,0.9765081048558727,1,False,True,0.9530162097117454,0.9619068913250876,1,False,True,0.9238137826501751,0.7763230739176619,1,False,True,059
229,"{'mean': -0.3, 'sd': 0.37}",1.0,3,1.3498060703277588,0,"(0, 3)",239,1,True,0.0,0,1,1,0.0,True,True,-1.0,1.0,1.0,0.7,0.29996093052238987,0.9987442063973097,1,False,True,0.9974884127946193,0.9978591905270087,1,False,True,0.9957183810540173,0.9877466362688535,1,False,True,059
230,"{'mean': -0.3, 'sd': 0.37}",-0.1,3,1.0310289859771729,0,"(0, 3)",240,1,True,0.0,0,1,1,0.0,True,True,0.1,0.1,-1.0,-1.1,0.030557319069467275,0.8857234624954661,1,False,True,0.7714469249909321,0.8252297133917111,1,False,True,0.6504594267834223,0.3916866350666369,0,True,False,059
231,"{'mean': -0.3, 'sd': 0.37}",0.3,2,1.0109539031982422,0,"(0, 2)",241,1,False,0.0,0,1,1,0.0,True,True,-0.3,0.3,1.0,0.4,0.010894343744874968,0.949537285412802,1,False,True,0.899074570825604,0.9116214311773858,1,False,True,0.8232428623547716,0.7763230739176619,1,True,True,059
232,"{'mean': -0.3, 'sd': 0.37}",0.5,3,0.9281740188598633,0,"(1, 3)",242,1,False,0.0,0,1,1,0.0,True,True,-0.5,0.5,1.0,0.2,-0.07453604345254607,0.9852313535607599,1,False,True,0.9704627071215197,0.973267466211158,1,False,True,0.946534932422316,0.8925827728657627,1,False,True,059
233,"{'mean': -0.3, 'sd': 0.37}",0.7,2,0.5804181098937988,0,"(1, 2)",243,1,False,0.0,0,1,1,0.0,True,True,-0.7,0.7,1.0,0.19999999999999996,-0.5440065560229859,0.9953874618708538,1,False,True,0.9907749237417076,0.9921273286877558,1,False,True,0.9842546573755115,0.953065101352218,1,False,True,059
234,"{'mean': -0.3, 'sd': 0.37}",0.5,2,0.6346960067749023,0,"(1, 2)",244,1,True,0.0,0,1,1,0.0,True,True,-0.5,0.5,1.0,-0.19999999999999996,-0.45460912420533484,0.9897814250363577,1,False,True,0.9795628500727154,0.9831932254300607,1,False,True,0.9663864508601214,0.8925827728657627,1,False,True,059
235,"{'mean': -0.3, 'sd': 0.37}",0.7,3,0.6188111305236816,0,"(1, 3)",245,1,False,0.0,0,1,1,0.0,True,True,-0.7,0.7,1.0,0.19999999999999996,-0.4799551731733699,0.9955700512228843,1,False,True,0.9911401024457687,0.9926183741603002,1,False,True,0.9852367483206004,0.953065101352218,1,False,True,059
236,"{'mean': 0.3, 'sd': 0.37}",-0.1,3,0.8750760555267334,1,"(1, 3)",246,0,True,1.0,0,1,1,0.0,False,True,0.1,0.1,-1.0,-0.7999999999999999,-0.13344447579991822,0.8826094916785484,1,False,True,0.7652189833570968,0.819777803018962,1,False,True,0.6395556060379239,0.3916866350666369,0,True,False,059
237,"{'mean': 0.3, 'sd': 0.37}",-0.3,2,1.0029799938201904,1,"(0, 2)",247,0,False,0.0,0,1,1,0.0,False,True,0.3,0.3,-1.0,-0.19999999999999998,0.0029755624400803695,0.6039176132276304,1,False,True,0.20783522645526076,0.4539978405682624,0,True,False,0.09200431886347515,0.22239052460816902,0,False,False,059
238,"{'mean': 0.3, 'sd': 0.37}",-0.9,0,0.382443904876709,1,"(0, 2)",248,0,False,0.0,1,0,0,1.0,True,True,0.9,0.9,-1.0,-0.6000000000000001,-0.9611732903873844,0.04684963016544804,0,True,True,0.906300739669104,0.02402808563028624,0,False,True,0.9519438287394275,0.02755762725460389,0,False,True,059
239,"{'mean': 0.3, 'sd': 0.37}",-0.5,0,0.5968780517578125,1,"(0, 2)",249,0,True,0.0,1,0,0,0.0,True,True,0.5,0.5,-1.0,0.4,-0.516042454867543,0.02330171071651665,0,False,True,0.9533965785669667,0.0201188627511178,0,False,True,0.9597622744977644,0.11477577437543884,0,False,True,059
240,"{'mean': -0.3, 'sd': 0.37}",0.1,1,0.4461359977722168,0,"(1, 2)",250,1,False,1.0,1,0,0,0.0,False,True,-0.1,0.1,1.0,0.6,-0.8071314457026914,0.18499824802059148,0,False,True,0.630003503958817,0.18594043513288303,0,False,True,0.6281191297342339,0.5967216676049257,1,True,False,059
241,"{'mean': -0.3, 'sd': 0.37}",0.5,0,0.9381649494171143,0,"(0, 3)",251,1,False,0.0,1,0,0,0.0,False,True,-0.5,0.5,1.0,0.4,-0.06382949317905663,0.7663975782833231,1,True,False,0.5327951565666462,0.7451542642905279,1,True,False,0.4903085285810558,0.8925827728657627,1,False,False,059
242,"{'mean': -0.3, 'sd': 0.37}",0.5,0,0.49996185302734375,0,"(0, 3)",252,1,True,0.0,1,0,0,0.0,False,True,-0.5,0.5,1.0,0.0,-0.6932234774157889,0.96294244567723,1,False,False,0.92588489135446,0.9480476301449563,1,False,False,0.8960952602899126,0.8925827728657627,1,False,False,059
243,"{'mean': -0.3, 'sd': 0.37}",0.1,0,0.6504371166229248,0,"(0, 3)",253,1,True,0.0,1,0,0,0.0,False,True,-0.1,0.1,1.0,-0.4,-0.43011065499839646,0.9291191749663328,1,False,False,0.8582383499326656,0.8874398041079273,1,False,False,0.7748796082158547,0.5967216676049257,1,False,False,059
244,"{'mean': -0.3, 'sd': 0.37}",0.5,3,1.066828966140747,0,"(1, 3)",254,1,False,0.0,0,1,1,1.0,True,True,-0.5,0.5,1.0,0.4,0.06469066532000843,0.9830907494766218,1,False,True,0.9661814989532436,0.9700305928863204,1,False,True,0.9400611857726409,0.8925827728657627,1,False,True,059
245,"{'mean': -0.3, 'sd': 0.37}",0.3,3,0.43202996253967285,0,"(1, 3)",255,1,True,0.0,0,1,1,0.0,True,True,-0.3,0.3,1.0,-0.2,-0.8392603354124387,0.9731207291204022,1,False,True,0.9462414582408043,0.9547557018334655,1,False,True,0.909511403666931,0.7763230739176619,1,False,True,059
246,"{'mean': -0.3, 'sd': 0.37}",0.1,3,0.7027199268341064,0,"(0, 3)",256,1,True,0.0,0,1,1,0.0,True,True,-0.1,0.1,1.0,-0.19999999999999998,-0.3527968636592178,0.9342074082769892,1,False,True,0.8684148165539785,0.8912770733385983,1,False,True,0.7825541466771966,0.5967216676049257,1,False,True,059
247,"{'mean': -0.3, 'sd': 0.37}",0.3,3,0.5321578979492188,0,"(0, 3)",257,1,True,0.0,0,1,1,0.0,True,True,-0.3,0.3,1.0,0.19999999999999998,-0.6308150330206681,0.9616846781509215,1,False,True,0.923369356301843,0.9322788271971408,1,False,True,0.8645576543942817,0.7763230739176619,1,False,True,059
248,"{'mean': -0.3, 'sd': 0.37}",1.0,3,0.45369791984558105,0,"(0, 3)",258,1,True,0.0,0,1,1,0.0,True,True,-1.0,1.0,1.0,0.7,-0.7903236771903047,0.9985882156258804,1,False,True,0.9971764312517608,0.9974645668588855,1,False,True,0.994929133717771,0.9877466362688535,1,False,True,059
249,"{'mean': -0.3, 'sd': 0.37}",0.7,3,0.32625913619995117,0,"(1, 3)",259,1,True,0.0,0,1,1,0.0,True,True,-0.7,0.7,1.0,-0.30000000000000004,-1.1200633170593184,0.9959193957579476,1,False,True,0.9918387915158953,0.9933104050430271,1,False,True,0.9866208100860543,0.953065101352218,1,False,True,059
250,"{'mean': -0.3, 'sd': 0.37}",-0.3,3,0.4040839672088623,0,"(1, 3)",260,1,True,0.0,0,1,1,0.0,True,True,0.3,0.3,-1.0,-1.0,-0.9061325829907529,0.7701441596303981,1,False,True,0.5402883192607961,0.669992891039135,1,False,True,0.3399857820782699,0.22239052460816902,0,True,False,059
251,"{'mean': -0.3, 'sd': 0.37}",-0.1,2,0.7943160533905029,0,"(0, 2)",261,1,False,0.0,0,1,1,0.0,True,True,0.1,0.1,-1.0,0.19999999999999998,-0.23027384480763627,0.6715130524050794,1,False,True,0.3430261048101588,0.5227131175401409,1,False,True,0.045426235080281874,0.3916866350666369,0,False,False,059
252,"{'mean': -0.3, 'sd': 0.37}",0.5,2,0.5980839729309082,0,"(1, 2)",262,1,True,0.0,0,1,1,0.0,True,True,-0.5,0.5,1.0,0.6,-0.5140241119285015,0.9478918451394436,1,False,True,0.8957836902788872,0.8990552386854831,1,False,True,0.7981104773709662,0.8925827728657627,1,True,True,059
253,"{'mean': -0.3, 'sd': 0.37}",0.3,2,0.4466719627380371,0,"(0, 2)",263,1,True,0.0,0,1,1,0.0,True,True,-0.3,0.3,1.0,-0.2,-0.8059308178993794,0.9649646503337567,1,False,True,0.9299293006675133,0.934598222048802,1,False,True,0.8691964440976041,0.7763230739176619,1,False,True,059
254,"{'mean': -0.3, 'sd': 0.37}",0.3,3,0.5164408683776855,0,"(1, 3)",264,1,False,0.0,0,1,1,0.0,True,True,-0.3,0.3,1.0,0.0,-0.660794482208352,0.9689700587648128,1,False,True,0.9379401175296256,0.9449134601510806,1,False,True,0.8898269203021612,0.7763230739176619,1,False,True,059
255,"{'mean': -0.3, 'sd': 0.37}",0.1,2,0.6167030334472656,0,"(0, 2)",265,1,False,0.0,0,1,1,0.0,True,True,-0.1,0.1,1.0,-0.19999999999999998,-0.4833676781589965,0.9321373068514107,1,False,True,0.8642746137028214,0.8856423353721613,1,False,True,0.7712846707443226,0.5967216676049257,1,False,True,059
256,"{'mean': -0.3, 'sd': 0.37}",1.0,2,0.7074530124664307,0,"(1, 2)",266,1,True,0.0,0,1,1,0.0,True,True,-1.0,1.0,1.0,0.9,-0.3460840651452265,0.9982642285182542,1,False,True,0.9965284570365085,0.9967985931621676,1,False,True,0.9935971863243351,0.9877466362688535,1,False,True,059
257,"{'mean': -0.3, 'sd': 0.37}",0.3,2,0.7806901931762695,0,"(1, 2)",267,1,True,0.0,0,1,1,0.0,True,True,-0.3,0.3,1.0,-0.7,-0.2475768875125148,0.9765173615964764,1,False,True,0.9530347231929528,0.9619162543990756,1,False,True,0.9238325087981512,0.7763230739176619,1,False,True,059
258,"{'mean': -0.3, 'sd': 0.37}",0.5,3,0.6428341865539551,0,"(0, 3)",268,1,False,0.0,0,1,1,0.0,True,True,-0.5,0.5,1.0,0.2,-0.4418684627216083,0.9879501560984434,1,False,True,0.9759003121968868,0.9796129561878134,1,False,True,0.9592259123756268,0.8925827728657627,1,False,True,059
259,"{'mean': -0.3, 'sd': 0.37}",-0.1,3,0.5601859092712402,0,"(1, 3)",269,1,True,0.0,0,1,1,0.0,True,True,0.1,0.1,-1.0,-0.6,-0.5794865695048883,0.8751508510651276,1,False,True,0.7503017021302552,0.8063455623622944,1,False,True,0.6126911247245888,0.3916866350666369,0,True,False,059
260,"{'mean': -0.3, 'sd': 0.37}",0.3,2,0.6631100177764893,0,"(1, 2)",270,1,False,0.0,0,1,1,0.0,True,True,-0.3,0.3,1.0,0.4,-0.41081436323162773,0.9467734942399497,1,False,True,0.8935469884798994,0.9053788193809239,1,False,True,0.8107576387618478,0.7763230739176619,1,True,True,059
261,"{'mean': -0.3, 'sd': 0.37}",0.5,2,0.441957950592041,0,"(1, 2)",271,1,True,0.0,0,1,1,0.0,True,True,-0.5,0.5,1.0,0.2,-0.8165405358371507,0.9849458937807696,1,False,True,0.9698917875615392,0.9724439423935998,1,False,True,0.9448878847871995,0.8925827728657627,1,False,True,059
262,"{'mean': -0.3, 'sd': 0.37}",-0.1,2,0.4867100715637207,0,"(0, 2)",272,1,True,0.0,0,1,1,0.0,True,True,0.1,0.1,-1.0,-0.6,-0.7200866687802592,0.872216657125042,1,False,True,0.7444333142500841,0.7989998134190214,1,False,True,0.5979996268380428,0.3916866350666369,0,True,False,059
263,"{'mean': -0.3, 'sd': 0.37}",0.1,3,0.738476037979126,0,"(0, 3)",273,1,False,0.0,0,1,1,0.0,True,True,-0.1,0.1,1.0,0.2,-0.30316662441710585,0.8819152725534728,1,False,True,0.7638305451069456,0.7985754874659693,1,False,True,0.5971509749319386,0.5967216676049257,1,True,True,059
264,"{'mean': -0.3, 'sd': 0.37}",0.1,3,0.4517199993133545,0,"(0, 3)",274,1,True,0.0,0,1,1,0.0,True,True,-0.1,0.1,1.0,0.0,-0.7946927616467364,0.8871259425398283,1,False,True,0.7742518850796567,0.7983122367860621,1,False,True,0.5966244735721242,0.5967216676049257,1,False,True,059
265,"{'mean': -0.3, 'sd': 0.37}",-0.1,2,0.6342189311981201,0,"(1, 2)",275,1,False,0.0,0,1,1,0.0,True,True,0.1,0.1,-1.0,-0.2,-0.4553610668060315,0.7786396763962804,1,False,True,0.5572793527925608,0.6324432920632543,1,False,True,0.2648865841265087,0.3916866350666369,0,True,False,059
266,"{'mean': -0.3, 'sd': 0.37}",0.3,2,0.6201081275939941,0,"(1, 2)",276,1,True,0.0,0,1,1,0.0,True,True,-0.3,0.3,1.0,0.4,-0.47786141680364586,0.9194091648621555,1,False,True,0.838818329724311,0.8394810996553812,1,False,True,0.6789621993107624,0.7763230739176619,1,True,True,059
267,"{'mean': 0.3, 'sd': 0.37}",0.1,3,0.563823938369751,1,"(1, 3)",277,0,False,1.0,0,1,1,0.0,False,True,-0.1,0.1,1.0,-0.19999999999999998,-0.5730132422291095,0.9068929641209635,1,False,True,0.8137859282419271,0.8234142437257718,1,False,True,0.6468284874515435,0.5967216676049257,1,False,True,059
268,"{'mean': -0.3, 'sd': 0.37}",0.9,3,0.5668811798095703,0,"(1, 3)",278,1,True,1.0,0,1,1,0.0,True,True,-0.9,0.9,1.0,0.8,-0.5676055566337753,0.9967774112493523,1,False,True,0.9935548224987045,0.9933523491720706,1,False,True,0.9867046983441412,0.9806388378590251,1,False,True,059
269,"{'mean': -0.3, 'sd': 0.37}",0.7,2,0.6383910179138184,0,"(1, 2)",279,1,False,0.0,0,1,1,0.0,True,True,-0.7,0.7,1.0,-0.20000000000000007,-0.4488043026293855,0.9958479985693013,1,False,True,0.9916959971386026,0.993112665243062,1,False,True,0.9862253304861239,0.953065101352218,1,False,True,059
270,"{'mean': 0.3, 'sd': 0.37}",-0.5,0,0.9482200145721436,1,"(1, 3)",280,0,False,1.0,0,0,0,1.0,False,False,0.5,0.5,-1.0,-1.2,-0.05316872077217321,0.6028554477204943,1,False,False,0.20571089544098853,0.4789344870947077,0,True,True,0.04213102581058459,0.11477577437543884,0,True,True,059
271,"{'mean': 0.3, 'sd': 0.37}",-0.3,1,0.41471314430236816,1,"(1, 3)",281,0,False,0.0,1,0,0,0.0,True,True,0.3,0.3,-1.0,0.2,-0.8801682163016313,0.33078024827510055,0,True,True,0.3384395034497989,0.21146355396442137,0,False,True,0.5770728920711572,0.22239052460816902,0,False,True,059
272,"{'mean': 0.3, 'sd': 0.37}",-0.1,0,0.5420219898223877,1,"(0, 3)",282,0,False,0.0,1,0,0,0.0,True,True,0.1,0.1,-1.0,0.19999999999999998,-0.6124487067374755,0.31010730217243576,0,False,True,0.3797853956551285,0.2000742921265954,0,False,True,0.5998514157468092,0.3916866350666369,0,False,True,059
273,"{'mean': 0.3, 'sd': 0.37}",-0.7,1,0.6411480903625488,1,"(1, 3)",283,0,False,0.0,1,0,0,0.0,True,True,0.7,0.7,-1.0,-0.6,-0.4444948185380511,0.03744541667778332,0,False,True,0.9251091666444333,0.021825569386089677,0,False,True,0.9563488612278206,0.05660214579677927,0,False,True,059
274,"{'mean': 0.3, 'sd': 0.37}",-0.3,1,0.6153979301452637,1,"(1, 2)",284,0,True,0.0,1,0,0,0.0,True,True,0.3,0.3,-1.0,0.39999999999999997,-0.48548617952971274,0.0467868024391832,0,False,True,0.9064263951216336,0.04273667017580778,0,False,True,0.9145266596483844,0.22239052460816902,0,False,True,059
275,"{'mean': 0.3, 'sd': 0.37}",-0.1,1,0.3987300395965576,1,"(1, 3)",285,0,True,0.0,1,0,0,0.0,True,True,0.1,0.1,-1.0,0.19999999999999998,-0.9194706835740981,0.10588582589716389,0,False,True,0.7882283482056722,0.1027430903793446,0,False,True,0.7945138192413108,0.3916866350666369,0,False,True,059
276,"{'mean': -0.3, 'sd': 0.37}",0.1,1,0.41570591926574707,0,"(0, 3)",286,1,True,1.0,0,0,0,0.0,False,False,-0.1,0.1,1.0,0.2,-0.8777771935520167,0.28320307947299994,0,False,True,0.4335938410540001,0.2660668203892604,0,False,True,0.46786635922147923,0.5967216676049257,1,True,False,059
277,"{'mean': -0.3, 'sd': 0.37}",0.5,2,1.1305220127105713,0,"(0, 2)",287,1,False,0.0,0,1,1,1.0,True,True,-0.5,0.5,1.0,0.4,0.12267948420538069,0.8299613038995661,1,True,True,0.6599226077991323,0.7974235146204778,1,True,True,0.5948470292409556,0.8925827728657627,1,False,True,059
278,"{'mean': -0.3, 'sd': 0.37}",0.7,2,0.49570703506469727,0,"(1, 2)",288,1,True,0.0,0,1,1,0.0,True,True,-0.7,0.7,1.0,0.19999999999999996,-0.7017701818741557,0.9881542072563081,1,False,True,0.9763084145126162,0.9818441923628646,1,False,True,0.9636883847257292,0.953065101352218,1,False,True,059
279,"{'mean': -0.3, 'sd': 0.37}",0.5,2,0.4928297996520996,0,"(1, 2)",289,1,True,0.0,0,1,1,0.0,True,True,-0.5,0.5,1.0,-0.19999999999999996,-0.7075913985178142,0.9890860898618948,1,False,True,0.9781721797237897,0.9819930376219957,1,False,True,0.9639860752439915,0.8925827728657627,1,False,True,059
280,"{'mean': 0.3, 'sd': 0.37}",0.1,3,0.3631601333618164,1,"(0, 3)",290,0,False,1.0,0,1,1,0.0,False,True,-0.1,0.1,1.0,-0.4,-1.0129114032525868,0.9421081576117512,1,False,True,0.8842163152235023,0.906721131827887,1,False,True,0.8134422636557741,0.5967216676049257,1,False,True,059
281,"{'mean': 0.3, 'sd': 0.37}",-0.5,2,0.9865419864654541,1,"(0, 2)",291,0,False,0.0,0,1,1,0.0,False,True,0.5,0.5,-1.0,-0.6,-0.01354939338567518,0.4971208176174237,0,True,False,0.005758364765152568,0.3566316372010349,0,True,False,0.2867367255979302,0.11477577437543884,0,True,False,059
282,"{'mean': 0.3, 'sd': 0.37}",0.1,1,0.8543031215667725,1,"(1, 2)",292,0,False,0.0,1,0,0,1.0,True,True,-0.1,0.1,1.0,0.6,-0.1574692048844149,0.6434631326473335,1,True,False,0.2869262652946669,0.48673184610991865,0,False,True,0.026536307780162693,0.5967216676049257,1,True,False,059
283,"{'mean': 0.3, 'sd': 0.37}",-0.7,1,0.6945061683654785,1,"(1, 3)",293,0,True,0.0,1,0,0,0.0,True,True,0.7,0.7,-1.0,-0.7999999999999999,-0.36455423509143076,0.10640128296940933,0,True,True,0.7871974340611814,0.054477226241571884,0,False,True,0.8910455475168563,0.05660214579677927,0,True,True,059
284,"{'mean': 0.3, 'sd': 0.37}",-0.1,1,0.5734500885009766,1,"(1, 3)",294,0,True,0.0,1,0,0,0.0,True,True,0.1,0.1,-1.0,0.6,-0.5560843758408536,0.14706492555186507,0,False,True,0.7058701488962699,0.1092092648188304,0,False,True,0.7815814703623392,0.3916866350666369,0,False,True,059
285,"{'mean': 0.3, 'sd': 0.37}",-0.5,1,0.3749220371246338,1,"(1, 3)",295,0,True,0.0,1,0,0,0.0,True,True,0.5,0.5,-1.0,-0.4,-0.9810371756271117,0.041141739607499964,0,False,True,0.9177165207850001,0.03172470318052478,0,False,True,0.9365505936389504,0.11477577437543884,0,False,True,059
286,"{'mean': 0.3, 'sd': 0.37}",0.1,0,0.7032749652862549,1,"(0, 2)",296,0,False,0.0,1,0,0,0.0,True,True,-0.1,0.1,1.0,0.6,-0.35200733236846926,0.20704822455536795,0,False,True,0.585903550889264,0.1974693258799707,0,False,True,0.6050613482400586,0.5967216676049257,1,True,False,059
287,"{'mean': 0.3, 'sd': 0.37}",-0.7,1,0.37159299850463867,1,"(1, 3)",297,0,False,0.0,1,0,0,0.0,True,True,0.7,0.7,-1.0,-0.7999999999999999,-0.9899561137037062,0.02540262407463396,0,False,True,0.9491947518507321,0.021611281711317924,0,False,True,0.9567774365773641,0.05660214579677927,0,True,True,059
288,"{'mean': 0.3, 'sd': 0.37}",-0.3,1,0.5233950614929199,1,"(1, 2)",298,0,True,0.0,1,0,0,0.0,True,True,0.3,0.3,-1.0,0.39999999999999997,-0.6474187243663718,0.04273088578152995,0,False,True,0.9145382284369401,0.04267938686513533,0,False,True,0.9146412262697293,0.22239052460816902,0,False,True,059
289,"{'mean': 0.3, 'sd': 0.37}",-0.3,1,0.462507963180542,1,"(1, 2)",299,0,True,0.0,1,0,0,0.0,True,True,0.3,0.3,-1.0,0.0,-0.7710915044902215,0.048584681663771535,0,False,True,0.9028306366724569,0.04838304318839985,0,False,True,0.9032339136232003,0.22239052460816902,0,False,True,059
290,"{'mean': 0.3, 'sd': 0.37}",-0.3,1,0.44276905059814453,1,"(1, 2)",300,0,True,0.0,1,0,0,0.0,True,True,0.3,0.3,-1.0,0.0,-0.8147069753552127,0.050588705081562206,0,False,True,0.8988225898368756,0.049952502098904075,0,False,True,0.9000949958021919,0.22239052460816902,0,False,True,059
291,"{'mean': 0.3, 'sd': 0.37}",0.3,1,0.5906109809875488,1,"(1, 2)",301,0,True,0.0,1,0,0,0.0,True,True,-0.3,0.3,1.0,0.6,-0.5265977169099278,0.39610987629498523,0,False,True,0.20778024741002954,0.3916979420987604,0,False,True,0.21660411580247918,0.7763230739176619,1,True,False,059
292,"{'mean': -0.3, 'sd': 0.37}",0.3,2,0.7392761707305908,0,"(1, 2)",302,1,False,1.0,0,1,1,1.0,True,True,-0.3,0.3,1.0,0.0,-0.30208371914389315,0.7520860978517615,1,True,True,0.504172195703523,0.7131332132222366,1,True,True,0.4262664264444731,0.7763230739176619,1,False,True,059
293,"{'mean': -0.3, 'sd': 0.37}",-0.1,3,0.48874807357788086,0,"(0, 3)",303,1,False,0.0,0,1,1,0.0,True,True,0.1,0.1,-1.0,-0.4,-0.7159081092189619,0.655418864241607,1,False,True,0.310837728483214,0.5584859377584691,1,False,True,0.11697187551693822,0.3916866350666369,0,True,False,059
294,"{'mean': -0.3, 'sd': 0.37}",0.1,3,0.48841118812561035,0,"(0, 3)",304,1,True,0.0,0,1,1,0.0,True,True,-0.1,0.1,1.0,0.2,-0.7165976292978701,0.7537559889539459,1,False,True,0.5075119779078918,0.6389619796722777,1,False,True,0.2779239593445555,0.5967216676049257,1,True,True,059
295,"{'mean': -0.3, 'sd': 0.37}",0.5,3,0.782559871673584,0,"(1, 3)",305,1,True,0.0,0,1,1,0.0,True,True,-0.5,0.5,1.0,0.4,-0.2451848461739495,0.9611023410430917,1,False,True,0.9222046820861833,0.9274524559794901,1,False,True,0.8549049119589802,0.8925827728657627,1,False,True,059
296,"{'mean': -0.3, 'sd': 0.37}",0.9,2,0.6716680526733398,0,"(0, 2)",306,1,False,0.0,0,1,1,0.0,True,True,-0.9,0.9,1.0,0.4,-0.39799102973808403,0.9977451145305577,1,False,True,0.9954902290611154,0.9958656494835532,1,False,True,0.9917312989671063,0.9806388378590251,1,False,True,059
297,"{'mean': -0.3, 'sd': 0.37}",-0.1,3,0.6071670055389404,0,"(1, 3)",307,1,False,0.0,0,1,1,0.0,True,True,0.1,0.1,-1.0,-1.0,-0.49895139308110253,0.8847428700311868,1,False,True,0.7694857400623736,0.8231532110787628,1,False,True,0.6463064221575257,0.3916866350666369,0,True,False,059
298,"{'mean': -0.3, 'sd': 0.37}",-0.1,3,0.59055495262146,0,"(0, 3)",308,1,True,0.0,0,1,1,0.0,True,True,0.1,0.1,-1.0,0.0,-0.5266925865036685,0.7764064644827074,1,False,True,0.5528129289654149,0.6548902566521715,1,False,True,0.309780513304343,0.3916866350666369,0,False,False,059
299,"{'mean': -0.3, 'sd': 0.37}",0.3,2,0.4734659194946289,0,"(1, 2)",309,1,False,0.0,0,1,1,0.0,True,True,-0.3,0.3,1.0,0.4,-0.7476753446705015,0.91872646509653,1,False,True,0.83745293019306,0.848948270838488,1,False,True,0.697896541676976,0.7763230739176619,1,True,True,059
300,"{'mean': -0.3, 'sd': 0.37}",0.3,2,0.39972710609436035,0,"(1, 2)",310,1,True,0.0,0,1,1,0.0,True,True,-0.3,0.3,1.0,0.0,-0.9169731994662925,0.9578970996843565,1,False,True,0.9157941993687131,0.9192444598579781,1,False,True,0.8384889197159562,0.7763230739176619,1,False,True,059
301,"{'mean': -0.3, 'sd': 0.37}",-0.3,3,0.6873531341552734,0,"(1, 3)",311,1,False,0.0,0,1,1,0.0,True,True,0.3,0.3,-1.0,-0.6,-0.37490709530893884,0.7092448865101245,1,False,True,0.41848977302024903,0.5657476822313491,1,False,True,0.13149536446269816,0.22239052460816902,0,True,False,059
302,"{'mean': -0.3, 'sd': 0.37}",0.3,3,0.43705010414123535,0,"(0, 3)",312,1,True,0.0,0,1,1,0.0,True,True,-0.3,0.3,1.0,0.6,-0.8277074356734688,0.8970035010894137,1,False,True,0.7940070021788275,0.8093474836658998,1,False,True,0.6186949673317996,0.7763230739176619,1,True,True,059
303,"{'mean': -0.3, 'sd': 0.37}",0.5,3,0.355388879776001,0,"(0, 3)",313,1,True,0.0,0,1,1,0.0,True,True,-0.5,0.5,1.0,0.2,-1.0345426530701813,0.9795689164130651,1,False,True,0.9591378328261302,0.958642622461241,1,False,True,0.917285244922482,0.8925827728657627,1,False,True,059
304,"{'mean': -0.3, 'sd': 0.37}",1.0,2,0.46258115768432617,0,"(1, 2)",314,1,False,0.0,0,1,1,0.0,True,True,-1.0,1.0,1.0,0.5,-0.7709332613495639,0.9987758945352716,1,False,True,0.9975517890705432,0.9978167271114604,1,False,True,0.9956334542229208,0.9877466362688535,1,False,True,059
305,"{'mean': -0.3, 'sd': 0.37}",-0.3,2,0.5571520328521729,0,"(1, 2)",315,1,True,0.0,0,1,1,0.0,True,True,0.3,0.3,-1.0,-1.3,-0.58491712683348,0.7749593336254778,1,False,True,0.5499186672509555,0.6770660444191235,1,False,True,0.3541320888382471,0.22239052460816902,0,True,False,059
306,"{'mean': -0.3, 'sd': 0.37}",0.7,2,0.6012680530548096,0,"(1, 2)",316,1,True,0.0,0,1,1,0.0,True,True,-0.7,0.7,1.0,1.0,-0.5087144321421484,0.9850177916640555,1,False,True,0.9700355833281109,0.9724894470204298,1,False,True,0.9449788940408597,0.953065101352218,1,True,True,059
307,"{'mean': -0.3, 'sd': 0.37}",0.7,2,0.9565079212188721,0,"(0, 2)",317,1,True,0.0,0,1,1,0.0,True,True,-0.7,0.7,1.0,0.0,-0.04446620867363021,0.9953788563198367,1,False,True,0.9907577126396734,0.9920884940187674,1,False,True,0.9841769880375348,0.953065101352218,1,False,True,059
308,"{'mean': -0.3, 'sd': 0.37}",0.7,3,0.6136810779571533,0,"(0, 3)",318,1,False,0.0,0,1,1,0.0,True,True,-0.7,0.7,1.0,0.0,-0.4882799027866323,0.9957927030120972,1,False,True,0.9915854060241944,0.9930516226949079,1,False,True,0.9861032453898158,0.953065101352218,1,False,True,059
309,"{'mean': -0.3, 'sd': 0.37}",0.7,2,0.5996580123901367,0,"(1, 2)",319,1,False,0.0,0,1,1,0.0,True,True,-0.7,0.7,1.0,0.0,-0.5113957656157431,0.9958090794316963,1,False,True,0.9916181588633926,0.9930981520524798,1,False,True,0.9861963041049595,0.953065101352218,1,False,True,059
310,"{'mean': -0.3, 'sd': 0.37}",0.3,2,0.4793679714202881,0,"(0, 2)",320,1,True,0.0,0,1,1,0.0,True,True,-0.3,0.3,1.0,-0.39999999999999997,-0.7352867689336048,0.9759724838155138,1,False,True,0.9519449676310276,0.9609399751857656,1,False,True,0.9218799503715311,0.7763230739176619,1,False,True,059
311,"{'mean': -0.3, 'sd': 0.37}",0.3,2,0.39213085174560547,0,"(1, 2)",321,1,True,0.0,0,1,1,0.0,True,True,-0.3,0.3,1.0,0.0,-0.9361596894188431,0.9715029954614904,1,False,True,0.9430059909229809,0.9522709557472258,1,False,True,0.9045419114944515,0.7763230739176619,1,False,True,059
312,"{'mean': -0.3, 'sd': 0.37}",0.3,3,0.6396811008453369,0,"(0, 3)",322,1,False,0.0,0,1,1,0.0,True,True,-0.3,0.3,1.0,0.0,-0.446785506740278,0.9704791640551436,1,False,True,0.9409583281102871,0.9498757486803513,1,False,True,0.8997514973607026,0.7763230739176619,1,False,True,059
313,"{'mean': -0.3, 'sd': 0.37}",0.7,2,0.5616250038146973,0,"(0, 2)",323,1,False,0.0,0,1,1,0.0,True,True,-0.7,0.7,1.0,0.39999999999999997,-0.5769209047995633,0.9947853954460381,1,False,True,0.9895707908920761,0.9909372229450786,1,False,True,0.9818744458901572,0.953065101352218,1,False,True,059
314,"{'mean': -0.3, 'sd': 0.37}",0.3,3,0.4661850929260254,0,"(0, 3)",324,1,False,0.0,0,1,1,0.0,True,True,-0.3,0.3,1.0,-0.39999999999999997,-0.7631725285973653,0.9757447613699117,1,False,True,0.9514895227398235,0.9603678685500664,1,False,True,0.9207357371001328,0.7763230739176619,1,False,True,059
315,"{'mean': -0.3, 'sd': 0.37}",0.1,2,0.4455559253692627,0,"(1, 2)",325,1,False,0.0,0,1,1,0.0,True,True,-0.1,0.1,1.0,-0.19999999999999998,-0.8084325060122595,0.9355126771773727,1,False,True,0.8710253543547455,0.8944771617543461,1,False,True,0.7889543235086922,0.5967216676049257,1,False,True,059
316,"{'mean': -0.3, 'sd': 0.37}",0.7,3,0.48867106437683105,0,"(1, 3)",326,1,False,0.0,0,1,1,0.0,True,True,-0.7,0.7,1.0,0.6,-0.7160656858372595,0.993293779672672,1,False,True,0.9865875593453439,0.9879199595114152,1,False,True,0.9758399190228304,0.953065101352218,1,False,True,059
317,"{'mean': -0.3, 'sd': 0.37}",0.3,2,0.7162818908691406,0,"(0, 2)",327,1,False,0.0,0,1,1,0.0,True,True,-0.3,0.3,1.0,-0.39999999999999997,-0.3336814871707168,0.9754123817175699,1,False,True,0.9508247634351399,0.959566575068738,1,False,True,0.919133150137476,0.7763230739176619,1,False,True,059
318,"{'mean': -0.3, 'sd': 0.37}",0.9,3,0.349841833114624,0,"(1, 3)",328,1,False,0.0,0,1,1,0.0,True,True,-0.9,0.9,1.0,0.6000000000000001,-1.0502741320254785,0.9979847655623629,1,False,True,0.9959695311247259,0.9965488747181848,1,False,True,0.9930977494363695,0.9806388378590251,1,False,True,059
319,"{'mean': 0.3, 'sd': 0.37}",-0.5,1,0.9736208915710449,1,"(1, 3)",329,0,False,1.0,1,0,0,1.0,True,True,0.5,0.5,-1.0,-1.4,-0.026733279475107848,0.6077364355375212,1,False,False,0.21547287107504243,0.4850344670037577,0,True,True,0.02993106599248463,0.11477577437543884,0,True,True,059
320,"{'mean': 0.3, 'sd': 0.37}",-0.5,1,0.42618298530578613,1,"(0, 3)",330,0,True,0.0,0,0,0,0.0,False,False,0.5,0.5,-1.0,0.0,-0.8528864819686104,0.18553273044656757,0,True,True,0.6289345391068648,0.11021379170623402,0,False,True,0.779572416587532,0.11477577437543884,0,False,True,059
321,"{'mean': -0.3, 'sd': 0.37}",0.1,1,0.8014299869537354,0,"(1, 3)",331,1,True,1.0,1,0,0,0.0,False,True,-0.1,0.1,1.0,0.6,-0.22135766326983547,0.3693229821961883,0,False,True,0.2613540356076234,0.27309385301470707,0,False,True,0.45381229397058587,0.5967216676049257,1,True,False,059
322,"{'mean': -0.3, 'sd': 0.37}",0.9,1,0.5127420425415039,0,"(1, 3)",332,1,True,0.0,1,0,0,0.0,False,True,-0.9,0.9,1.0,0.8,-0.6679824013280251,0.9758613883156052,1,True,False,0.9517227766312104,0.9609203009548335,1,True,False,0.921840601909667,0.9806388378590251,1,False,False,059
323,"{'mean': -0.3, 'sd': 0.37}",-0.1,0,0.9602210521697998,0,"(0, 3)",333,1,False,0.0,1,0,0,0.0,False,True,0.1,0.1,-1.0,-1.0,-0.040591758349761635,0.8633662729419971,1,False,False,0.7267325458839942,0.7872781978934243,1,False,False,0.5745563957868487,0.3916866350666369,0,True,True,059
324,"{'mean': -0.3, 'sd': 0.37}",0.3,1,0.9198269844055176,0,"(1, 2)",334,1,False,0.0,1,0,0,0.0,False,True,-0.3,0.3,1.0,0.4,-0.08356968705341608,0.9436418625783123,1,False,False,0.8872837251566246,0.8989132012229898,1,False,False,0.7978264024459796,0.7763230739176619,1,True,False,059
325,"{'mean': -0.3, 'sd': 0.37}",0.7,3,1.2075440883636475,0,"(0, 2)",335,1,False,0.0,0,0,1,1.0,False,False,-0.7,0.7,1.0,0.39999999999999997,0.18858861798043966,0.993648964565867,1,False,True,0.9872979291317341,0.9881725422432472,1,False,True,0.9763450844864945,0.953065101352218,1,False,True,059
326,"{'mean': -0.3, 'sd': 0.37}",0.7,2,0.39771199226379395,0,"(1, 2)",336,1,False,0.0,0,1,1,0.0,True,True,-0.7,0.7,1.0,0.0,-0.9220271731778712,0.995724122254223,1,False,True,0.991448244508446,0.9928616784432693,1,False,True,0.9857233568865387,0.953065101352218,1,False,True,059
327,"{'mean': -0.3, 'sd': 0.37}",0.5,2,0.6633539199829102,0,"(0, 2)",337,1,True,0.0,0,1,1,0.0,True,True,-0.5,0.5,1.0,-0.19999999999999996,-0.41044661526317316,0.9898135908688902,1,False,True,0.9796271817377804,0.9832782229528569,1,False,True,0.9665564459057139,0.8925827728657627,1,False,True,059
328,"{'mean': -0.3, 'sd': 0.37}",0.3,3,0.6576080322265625,0,"(1, 3)",338,1,False,0.0,0,1,1,0.0,True,True,-0.3,0.3,1.0,-0.2,-0.41914622085831127,0.9746342729429976,1,False,True,0.9492685458859953,0.9583282127860805,1,False,True,0.916656425572161,0.7763230739176619,1,False,True,059
329,"{'mean': -0.3, 'sd': 0.37}",0.3,2,0.575908899307251,0,"(1, 2)",339,1,False,0.0,0,1,1,0.0,True,True,-0.3,0.3,1.0,0.0,-0.5518057917199154,0.9711971066935059,1,False,True,0.9423942133870118,0.9515519980405853,1,False,True,0.9031039960811706,0.7763230739176619,1,False,True,059
330,"{'mean': -0.3, 'sd': 0.37}",0.7,3,0.4322350025177002,0,"(0, 3)",340,1,False,0.0,0,1,1,0.0,True,True,-0.7,0.7,1.0,0.39999999999999997,-0.8387858513359946,0.9948150585467888,1,False,True,0.9896301170935775,0.9910240826787533,1,False,True,0.9820481653575066,0.953065101352218,1,False,True,059
331,"{'mean': -0.3, 'sd': 0.37}",-0.3,2,1.0639500617980957,0,"(1, 3)",341,1,False,0.0,0,0,1,0.0,False,False,0.3,0.3,-1.0,-1.0,0.061988455417713216,0.7682920022723901,1,False,True,0.5365840045447803,0.6664396517659059,1,False,True,0.33287930353181183,0.22239052460816902,0,True,False,059
332,"{'mean': -0.3, 'sd': 0.37}",0.5,2,0.36454105377197266,0,"(1, 2)",342,1,True,0.0,0,1,1,0.0,True,True,-0.5,0.5,1.0,0.8,-1.0091161034999665,0.9632142418333145,1,False,True,0.926428483666629,0.9332006962192925,1,False,True,0.8664013924385849,0.8925827728657627,1,True,True,059
333,"{'mean': -0.3, 'sd': 0.37}",0.3,2,0.4809858798980713,0,"(0, 2)",343,1,True,0.0,0,1,1,0.0,True,True,-0.3,0.3,1.0,-0.2,-0.731917365028529,0.9685637398960127,1,False,True,0.9371274797920255,0.9445164284390216,1,False,True,0.8890328568780432,0.7763230739176619,1,False,True,059
334,"{'mean': -0.3, 'sd': 0.37}",0.9,3,0.5678341388702393,0,"(1, 3)",344,1,False,0.0,0,1,1,0.0,True,True,-0.9,0.9,1.0,0.6000000000000001,-0.5659259119351934,0.9978708483178068,1,False,True,0.9957416966356136,0.9962335364865365,1,False,True,0.9924670729730729,0.9806388378590251,1,False,True,059
335,"{'mean': -0.3, 'sd': 0.37}",0.5,2,0.5963561534881592,0,"(1, 2)",345,1,False,0.0,0,1,1,0.0,True,True,-0.5,0.5,1.0,-0.4,-0.5169172174257046,0.9900182875656213,1,False,True,0.9800365751312425,0.9836672952000343,1,False,True,0.9673345904000685,0.8925827728657627,1,False,True,059
336,"{'mean': 0.3, 'sd': 0.37}",-0.3,2,0.4689497947692871,1,"(1, 2)",346,0,True,1.0,0,1,1,0.0,False,True,0.3,0.3,-1.0,-0.8,-0.7572595636660803,0.7603072618012997,1,False,True,0.5206145236025994,0.6551646234802649,1,False,True,0.3103292469605299,0.22239052460816902,0,True,False,059
337,"{'mean': 0.3, 'sd': 0.37}",-0.7,1,0.9044380187988281,1,"(1, 2)",347,0,False,0.0,1,0,0,1.0,True,True,0.7,0.7,-1.0,-0.39999999999999997,-0.10044150186918789,0.15476302565624997,0,True,True,0.6904739486875,0.08862471475149014,0,True,True,0.8227505704970197,0.05660214579677927,0,False,True,059
338,"{'mean': -0.3, 'sd': 0.37}",0.5,0,0.7460269927978516,0,"(1, 3)",348,1,False,1.0,0,0,0,0.0,False,False,-0.5,0.5,1.0,1.2,-0.2929934960578426,0.7405412612324401,1,True,False,0.48108252246488026,0.655038468142934,1,True,False,0.31007693628586797,0.8925827728657627,1,True,False,059
339,"{'mean': -0.3, 'sd': 0.37}",0.1,1,1.4032409191131592,0,"(0, 2)",349,1,False,0.0,0,0,0,0.0,False,False,-0.1,0.1,1.0,-0.4,0.3387845034942079,0.8069033968660626,1,False,False,0.6138067937321252,0.7056423468827908,1,False,False,0.41128469376558163,0.5967216676049257,1,False,False,059
340,"{'mean': -0.3, 'sd': 0.37}",0.3,1,0.8930528163909912,0,"(1, 2)",350,1,True,0.0,1,0,0,0.0,False,True,-0.3,0.3,1.0,0.19999999999999998,-0.11310955495990133,0.9278457554699661,1,False,False,0.8556915109399321,0.8692269249940332,1,False,False,0.7384538499880664,0.7763230739176619,1,False,False,059
341,"{'mean': -0.3, 'sd': 0.37}",-0.7,1,0.5207149982452393,0,"(1, 2)",351,1,True,0.0,1,0,0,0.0,False,True,0.7,0.7,-1.0,-1.0,-0.6525524152234264,0.2939769033274249,0,True,True,0.41204619334515025,0.1769502246853144,0,True,True,0.6460995506293712,0.05660214579677927,0,True,True,059
342,"{'mean': 0.3, 'sd': 0.37}",0.3,1,0.8779499530792236,1,"(1, 3)",352,0,True,1.0,1,0,0,0.0,True,True,-0.3,0.3,1.0,1.0,-0.13016568802036213,0.6796728316863486,1,True,False,0.35934566337269724,0.5408959658008913,1,True,False,0.08179193160178255,0.7763230739176619,1,True,False,059
343,"{'mean': -0.3, 'sd': 0.37}",1.0,1,0.4619898796081543,0,"(1, 2)",353,1,True,1.0,1,0,0,0.0,False,True,-1.0,1.0,1.0,0.7,-0.7722122937503852,0.9945255965929938,1,False,False,0.9890511931859876,0.9891710718755018,1,False,False,0.9783421437510036,0.9877466362688535,1,False,False,059
344,"{'mean': -0.3, 'sd': 0.37}",0.1,2,0.8823230266571045,0,"(0, 2)",354,1,False,0.0,0,1,1,1.0,True,True,-0.1,0.1,1.0,-0.9,-0.12519704665067807,0.9447778123713206,1,False,True,0.8895556247426413,0.9107550637493106,1,False,True,0.8215101274986212,0.5967216676049257,1,False,True,059
345,"{'mean': -0.3, 'sd': 0.37}",0.5,2,0.4338259696960449,0,"(1, 2)",355,1,True,0.0,0,1,1,0.0,True,True,-0.5,0.5,1.0,0.4,-0.8351118167840835,0.9847389441099013,1,False,True,0.9694778882198025,0.9731536687414055,1,False,True,0.946307337482811,0.8925827728657627,1,False,True,059
346,"{'mean': -0.3, 'sd': 0.37}",-0.1,2,0.46556687355041504,0,"(1, 2)",356,1,True,0.0,0,1,1,0.0,True,True,0.1,0.1,-1.0,-0.6,-0.7644995329688589,0.8720146689897509,1,False,True,0.7440293379795018,0.7997251949176785,1,False,True,0.5994503898353569,0.3916866350666369,0,True,False,059
347,"{'mean': -0.3, 'sd': 0.37}",0.5,3,0.6439530849456787,0,"(1, 3)",357,1,False,0.0,0,1,1,0.0,True,True,-0.5,0.5,1.0,0.6,-0.4401294049946663,0.9766885385412819,1,False,True,0.9533770770825638,0.9571309008325546,1,False,True,0.9142618016651092,0.8925827728657627,1,True,True,059
348,"{'mean': -0.3, 'sd': 0.37}",0.3,3,0.36261510848999023,0,"(0, 3)",358,1,True,0.0,0,1,1,0.0,True,True,-0.3,0.3,1.0,-0.2,-1.0144133144307315,0.9716664417494507,1,False,True,0.9433328834989014,0.9512216414307344,1,False,True,0.9024432828614688,0.7763230739176619,1,False,True,059
349,"{'mean': -0.3, 'sd': 0.37}",0.5,2,0.664963960647583,0,"(0, 2)",359,1,False,0.0,0,1,1,0.0,True,True,-0.5,0.5,1.0,0.2,-0.4080224343097715,0.9874702157002847,1,False,True,0.9749404314005694,0.9783052251251406,1,False,True,0.9566104502502812,0.8925827728657627,1,False,True,059
