,c_dis,context,response,rt,state,stim,trial_count,ts,rep_resp,switch,con_1dim,con_2dim,subj_ts,subj_switch,correct,stim_conform,true_context,abs_context,context_sign,context_diff,log_rt,fit_observer_posterior,fit_observer_choices,fit_observer_switch,conform_fit_observer,fit_certainty,opt_observer_posterior,opt_observer_choices,opt_observer_switch,conform_opt_observer,opt_certainty,ignore_observer_posterior,ignore_observer_choices,ignore_observer_switch,conform_ignore_observer,id
0,"{'sd': 0.37, 'mean': -0.3}",0.1,2,1.2251520156860352,0,"(1, 2)",1,0,False,,0,1,1,,False,True,0.1,0.1,1.0,,0.20306493073519225,0.574535196954604,1,,True,0.14907039390920795,0.6235710566026291,1,,True,0.24714211320525825,0.6235710566026291,1,,True,024
1,"{'sd': 0.37, 'mean': -0.3}",-0.1,0,1.2664008140563965,0,"(0, 2)",2,0,False,0.0,1,0,0,1.0,True,True,-0.1,0.1,-1.0,-0.2,0.23617887239588994,0.36871133584022475,0,True,True,0.2625773283195505,0.48969406167477886,0,True,True,0.020611876650442285,0.3916955986623289,0,True,True,024
2,"{'sd': 0.37, 'mean': -0.3}",-0.3,0,0.8333439826965332,0,"(1, 2)",3,0,True,0.0,0,0,0,0.0,False,False,-0.3,0.3,-1.0,-0.19999999999999998,-0.18230877763976852,0.14328431137620343,0,False,True,0.7134313772475931,0.19336796675117557,0,False,True,0.6132640664976489,0.19854223211145114,0,False,True,024
3,"{'sd': 0.37, 'mean': -0.3}",-0.5,1,0.5383718013763428,0,"(1, 2)",4,0,False,0.0,1,0,0,0.0,True,True,-0.5,0.5,-1.0,-0.2,-0.6192058768814341,0.04362518790401642,0,False,True,0.9127496241919671,0.03139378017129242,0,False,True,0.9372124396574152,0.08619644561471856,0,False,True,024
4,"{'sd': 0.37, 'mean': -0.3}",-0.7,1,0.4324791431427002,0,"(1, 2)",5,0,True,0.0,1,0,0,0.0,True,True,-0.7,0.7,-1.0,-0.19999999999999996,-0.838221177720529,0.01449514297629853,0,False,True,0.971009714047403,0.005131133501492403,0,False,True,0.9897377329970152,0.0343281253064721,0,False,True,024
5,"{'sd': 0.37, 'mean': -0.3}",-0.1,1,0.5722780227661133,0,"(1, 2)",6,0,True,0.0,1,0,0,0.0,True,True,-0.1,0.1,-1.0,0.6,-0.5581303519013072,0.20266543293196654,0,False,True,0.5946691341360669,0.07078091717078493,0,False,True,0.8584381656584301,0.3916955986623289,0,False,True,024
6,"{'sd': 0.37, 'mean': -0.3}",-0.7,1,0.740109920501709,0,"(1, 3)",7,0,True,0.0,1,0,0,0.0,True,True,-0.7,0.7,-1.0,-0.6,-0.3009565625965504,0.018461358027428706,0,False,True,0.9630772839451426,0.006630351566946478,0,False,True,0.9867392968661071,0.0343281253064721,0,False,True,024
7,"{'sd': 0.37, 'mean': -0.3}",-0.3,1,0.4866960048675537,0,"(1, 3)",8,0,True,0.0,1,0,0,0.0,True,True,-0.3,0.3,-1.0,0.39999999999999997,-0.720115570790445,0.08960169728938457,0,False,True,0.8207966054212309,0.028820290792455537,0,False,True,0.942359418415089,0.19854223211145114,0,False,True,024
8,"{'sd': 0.37, 'mean': -0.3}",-0.1,0,0.5492861270904541,0,"(0, 3)",9,0,False,0.0,1,0,0,0.0,True,True,-0.1,0.1,-1.0,0.19999999999999998,-0.5991357945679029,0.22272760046218246,0,False,True,0.5545447990756351,0.08399436736063016,0,False,True,0.8320112652787397,0.3916955986623289,0,False,True,024
9,"{'sd': 0.37, 'mean': -0.3}",-0.3,0,0.45793581008911133,0,"(0, 2)",10,0,True,0.0,1,0,0,0.0,True,True,-0.3,0.3,-1.0,-0.19999999999999998,-0.7810262573341133,0.118990351391032,0,False,True,0.762019297217936,0.0478354036049804,0,False,True,0.9043291927900392,0.19854223211145114,0,False,True,024
10,"{'sd': 0.37, 'mean': -0.3}",-0.3,1,0.5834600925445557,0,"(1, 3)",11,0,False,0.0,1,0,0,0.0,True,True,-0.3,0.3,-1.0,0.0,-0.5387792228342867,0.1034615099789731,0,False,True,0.7930769800420538,0.03870273129506391,0,False,True,0.9225945374098722,0.19854223211145114,0,False,True,024
11,"{'sd': 0.37, 'mean': -0.3}",-0.3,1,0.414247989654541,0,"(1, 3)",12,0,True,0.0,1,0,0,0.0,True,True,-0.3,0.3,-1.0,0.0,-0.881290475663605,0.10124779796076581,0,False,True,0.7975044040784683,0.03646563080873158,0,False,True,0.9270687383825369,0.19854223211145114,0,False,True,024
12,"{'sd': 0.37, 'mean': -0.3}",-0.5,1,0.45235300064086914,0,"(1, 3)",13,0,True,0.0,1,0,0,0.0,True,True,-0.5,0.5,-1.0,-0.2,-0.7932924290829146,0.04099521247866988,0,False,True,0.9180095750426602,0.013989156893342397,0,False,True,0.9720216862133152,0.08619644561471856,0,False,True,024
13,"{'sd': 0.37, 'mean': 0.3}",0.5,2,0.5911359786987305,1,"(0, 3)",14,1,False,1.0,0,0,1,1.0,False,False,0.5,0.5,1.0,1.0,-0.5257092056403759,0.8141090199606035,1,True,True,0.628218039921207,0.5748253546038425,1,True,True,0.14965070920768508,0.9140117289686287,1,True,True,024
14,"{'sd': 0.37, 'mean': 0.3}",0.3,2,0.5823700428009033,1,"(0, 2)",15,1,True,0.0,0,1,1,0.0,True,True,0.3,0.3,1.0,-0.2,-0.5406492209210633,0.8445440924269795,1,False,True,0.689088184853959,0.8427597237400452,1,False,True,0.6855194474800903,0.8083525901114329,1,False,True,024
15,"{'sd': 0.37, 'mean': 0.3}",0.5,3,0.47440290451049805,1,"(1, 3)",16,1,False,0.0,0,1,1,0.0,True,True,0.5,0.5,1.0,0.2,-0.7456983088247456,0.9347990841037807,1,False,True,0.8695981682075613,0.9731225669285465,1,False,True,0.946245133857093,0.9140117289686287,1,False,True,024
16,"{'sd': 0.37, 'mean': 0.3}",0.1,2,0.5311999320983887,1,"(0, 2)",17,1,False,0.0,0,1,1,0.0,True,True,0.1,0.1,1.0,-0.4,-0.6326168086467496,0.7199317952539536,1,False,True,0.43986359050790713,0.9218733100897566,1,False,True,0.8437466201795132,0.6235710566026291,1,False,True,024
17,"{'sd': 0.37, 'mean': 0.3}",0.7,3,0.583528995513916,1,"(0, 3)",18,1,False,0.0,0,1,1,0.0,True,True,0.7,0.7,1.0,0.6,-0.538661136092696,0.9674131431868762,1,False,True,0.9348262863737524,0.9926586939960151,1,False,True,0.9853173879920303,0.963652584628436,1,False,True,024
18,"{'sd': 0.37, 'mean': 0.3}",0.1,1,0.8178451061248779,1,"(1, 3)",19,1,False,0.0,1,0,0,1.0,False,True,0.1,0.1,1.0,-0.6,-0.20108231712520797,0.7303198649183333,1,False,False,0.4606397298366667,0.932189572340491,1,False,False,0.8643791446809821,0.6235710566026291,1,False,False,024
19,"{'sd': 0.37, 'mean': 0.3}",0.5,3,0.8837699890136719,1,"(0, 3)",20,1,False,0.0,0,1,1,1.0,True,True,0.5,0.5,1.0,0.4,-0.12355844362412342,0.9235796416304867,1,False,True,0.8471592832609733,0.9829449612010825,1,False,True,0.9658899224021651,0.9140117289686287,1,False,True,024
20,"{'sd': 0.37, 'mean': 0.3}",0.1,3,0.7378549575805664,1,"(0, 3)",21,1,True,0.0,0,1,1,0.0,True,True,0.1,0.1,1.0,-0.4,-0.3040080081407661,0.7163422435235209,1,False,True,0.4326844870470419,0.9270767999528641,1,False,True,0.8541535999057281,0.6235710566026291,1,False,True,024
21,"{'sd': 0.37, 'mean': 0.3}",-0.1,0,0.8299751281738281,1,"(1, 2)",22,1,False,0.0,0,0,0,1.0,False,False,-0.1,0.1,-1.0,-0.2,-0.18635954469611343,0.41766937210222066,0,True,True,0.16466125579555868,0.7719982040785612,1,False,False,0.5439964081571225,0.3916955986623289,0,True,True,024
22,"{'sd': 0.37, 'mean': 0.3}",0.1,2,0.7733950614929199,1,"(0, 2)",23,1,False,0.0,0,1,1,1.0,True,True,0.1,0.1,1.0,0.2,-0.25696528527939216,0.5454713814709395,1,True,True,0.09094276294187909,0.8073323597285086,1,False,True,0.6146647194570172,0.6235710566026291,1,True,True,024
23,"{'sd': 0.37, 'mean': 0.3}",0.5,3,0.9593379497528076,1,"(1, 3)",24,1,False,0.0,0,1,1,0.0,True,True,0.5,0.5,1.0,0.4,-0.041511868102481614,0.9024186061796375,1,False,True,0.8048372123592751,0.9687754250969169,1,False,True,0.9375508501938339,0.9140117289686287,1,False,True,024
24,"{'sd': 0.37, 'mean': 0.3}",-0.1,0,0.8907592296600342,1,"(0, 2)",25,1,False,0.0,1,0,0,1.0,False,True,-0.1,0.1,-1.0,-0.6,-0.11568111287708732,0.48707125659034717,0,True,True,0.025857486819305664,0.8162963433263918,1,False,False,0.6325926866527836,0.3916955986623289,0,True,True,024
25,"{'sd': 0.37, 'mean': 0.3}",0.7,3,0.8834011554718018,1,"(0, 3)",26,1,False,0.0,0,1,1,1.0,True,True,0.7,0.7,1.0,0.7999999999999999,-0.12397587183799703,0.9549869811045031,1,True,True,0.9099739622090062,0.9877115030189894,1,False,True,0.9754230060379787,0.963652584628436,1,True,True,024
26,"{'sd': 0.37, 'mean': 0.3}",-0.1,0,0.9747850894927979,1,"(0, 2)",27,1,False,0.0,1,0,0,1.0,False,True,-0.1,0.1,-1.0,-0.7999999999999999,-0.025538253313603963,0.5078391679777119,1,False,False,0.015678335955423783,0.8369190414206733,1,False,False,0.6738380828413466,0.3916955986623289,0,True,True,024
27,"{'sd': 0.37, 'mean': 0.3}",-0.7,0,0.6697080135345459,1,"(0, 2)",28,1,True,0.0,1,0,0,0.0,False,True,-0.7,0.7,-1.0,-0.6,-0.40091346228055413,0.02847081393464738,0,True,True,0.9430583721307052,0.10549574907615561,0,True,True,0.7890085018476888,0.0343281253064721,0,False,True,024
28,"{'sd': 0.37, 'mean': 0.3}",0.9,3,0.9316730499267578,1,"(1, 3)",29,1,False,0.0,0,1,1,1.0,True,True,0.9,0.9,1.0,1.6,-0.07077333064255993,0.9635401933389259,1,True,True,0.9270803866778519,0.9372207702985477,1,True,True,0.8744415405970953,0.9849507989697606,1,True,True,024
29,"{'sd': 0.37, 'mean': 0.3}",0.7,2,0.7547039985656738,1,"(1, 2)",30,1,False,0.0,0,1,1,0.0,True,True,0.7,0.7,1.0,-0.20000000000000007,-0.2814296614866221,0.9773101022950614,1,False,True,0.9546202045901229,0.9932997960206648,1,False,True,0.9865995920413295,0.963652584628436,1,False,True,024
30,"{'sd': 0.37, 'mean': 0.3}",0.3,3,1.3490869998931885,1,"(0, 3)",31,1,False,0.0,0,1,1,0.0,True,True,0.3,0.3,1.0,-0.39999999999999997,0.2994280672833687,0.8751026687068022,1,False,True,0.7502053374136044,0.972368008348202,1,False,True,0.9447360166964041,0.8083525901114329,1,False,True,024
31,"{'sd': 0.37, 'mean': 0.3}",0.7,3,0.8636670112609863,1,"(1, 3)",32,1,True,0.0,0,1,1,0.0,True,True,0.7,0.7,1.0,0.39999999999999997,-0.14656798809826693,0.974009416298178,1,False,True,0.9480188325963561,0.9947034756445035,1,False,True,0.9894069512890069,0.963652584628436,1,False,True,024
32,"{'sd': 0.37, 'mean': 0.3}",0.7,3,0.788532018661499,1,"(0, 3)",33,1,True,0.0,0,1,1,0.0,True,True,0.7,0.7,1.0,0.0,-0.2375822663502236,0.9776815789565771,1,False,True,0.9553631579131543,0.995551723496473,1,False,True,0.9911034469929461,0.963652584628436,1,False,True,024
33,"{'sd': 0.37, 'mean': 0.3}",0.5,2,0.6627559661865234,1,"(1, 2)",34,1,False,0.0,0,1,1,0.0,True,True,0.5,0.5,1.0,-0.19999999999999996,-0.41134843168600205,0.946431768352875,1,False,True,0.89286353670575,0.9890560147047991,1,False,True,0.9781120294095982,0.9140117289686287,1,False,True,024
34,"{'sd': 0.37, 'mean': 0.3}",0.1,3,0.9658229351043701,1,"(1, 3)",35,1,False,0.0,0,1,1,0.0,True,True,0.1,0.1,1.0,-0.4,-0.0347747585639717,0.72364489789414,1,False,True,0.44728979578828,0.9302971470233122,1,False,True,0.8605942940466245,0.6235710566026291,1,False,True,024
35,"{'sd': 0.37, 'mean': 0.3}",0.1,3,0.9800601005554199,1,"(1, 3)",36,1,True,0.0,0,1,1,0.0,True,True,0.1,0.1,1.0,0.0,-0.020141382100581737,0.6509675374522189,1,False,True,0.30193507490443783,0.8987840423026842,1,False,True,0.7975680846053683,0.6235710566026291,1,False,True,024
36,"{'sd': 0.37, 'mean': 0.3}",0.1,2,1.1828670501708984,1,"(0, 2)",37,1,False,0.0,0,1,1,0.0,True,True,0.1,0.1,1.0,0.0,0.16794119505512273,0.626523231181269,1,False,True,0.2530464623625379,0.8813639661394701,1,False,True,0.7627279322789402,0.6235710566026291,1,False,True,024
37,"{'sd': 0.37, 'mean': 0.3}",0.7,3,0.937593936920166,1,"(0, 3)",38,1,False,0.0,0,1,1,0.0,True,True,0.7,0.7,1.0,0.6,-0.06443832677568348,0.9628474968655957,1,False,True,0.9256949937311914,0.9908771980309867,1,False,True,0.9817543960619735,0.963652584628436,1,False,True,024
38,"{'sd': 0.37, 'mean': 0.3}",0.5,3,0.6951918601989746,1,"(1, 3)",39,1,True,0.0,0,1,1,0.0,True,True,0.5,0.5,1.0,-0.19999999999999996,-0.3635674136740481,0.9452045898864674,1,False,True,0.8904091797729348,0.9886263591054288,1,False,True,0.9772527182108577,0.9140117289686287,1,False,True,024
39,"{'sd': 0.37, 'mean': 0.3}",0.1,2,0.9050090312957764,1,"(1, 2)",40,1,False,0.0,0,1,1,0.0,True,True,0.1,0.1,1.0,-0.4,-0.09981035599965456,0.7232536029792271,1,False,True,0.4465072059584543,0.9300711558258695,1,False,True,0.860142311651739,0.6235710566026291,1,False,True,024
40,"{'sd': 0.37, 'mean': -0.3}",0.1,3,0.7543129920959473,0,"(1, 3)",41,0,False,1.0,0,1,1,0.0,False,True,0.1,0.1,1.0,0.0,-0.28194788822746986,0.6508369207175705,1,False,True,0.301673841435141,0.8986604331338331,1,False,True,0.7973208662676663,0.6235710566026291,1,False,True,024
41,"{'sd': 0.37, 'mean': -0.3}",0.3,2,0.780350923538208,0,"(1, 2)",42,0,False,0.0,0,1,1,0.0,False,True,0.3,0.3,1.0,0.19999999999999998,-0.2480115585019854,0.8102673853350909,1,False,True,0.6205347706701818,0.9497580857353028,1,False,True,0.8995161714706057,0.8083525901114329,1,False,True,024
42,"{'sd': 0.37, 'mean': -0.3}",-0.1,0,1.1129169464111328,0,"(0, 2)",43,0,False,0.0,1,0,0,1.0,True,True,-0.1,0.1,-1.0,-0.4,0.10698444813544929,0.4519277506961701,0,True,True,0.09614449860765983,0.7959062614550712,1,False,False,0.5918125229101423,0.3916955986623289,0,True,True,024
43,"{'sd': 0.37, 'mean': -0.3}",-0.1,0,0.9204061031341553,0,"(0, 3)",44,0,True,0.0,1,0,0,0.0,True,True,-0.1,0.1,-1.0,0.0,-0.08294028988446324,0.32885123057549825,0,False,True,0.3422975388490035,0.6419091400594792,1,False,False,0.2838182801189584,0.3916955986623289,0,False,True,024
44,"{'sd': 0.37, 'mean': -0.3}",-0.5,0,0.8493270874023438,0,"(0, 3)",45,0,True,0.0,1,0,0,0.0,True,True,-0.5,0.5,-1.0,-0.4,-0.16331090490712025,0.05670214296479734,0,False,True,0.8865957140704053,0.13001214170045064,0,True,True,0.7399757165990988,0.08619644561471856,0,False,True,024
45,"{'sd': 0.37, 'mean': -0.3}",-0.3,1,0.6640779972076416,0,"(1, 2)",46,0,False,0.0,1,0,0,0.0,True,True,-0.3,0.3,-1.0,0.2,-0.40935567073009627,0.09474500204327721,0,False,True,0.8105099959134456,0.06013501041179181,0,False,True,0.8797299791764164,0.19854223211145114,0,False,True,024
46,"{'sd': 0.37, 'mean': -0.3}",-0.1,1,0.5088269710540771,0,"(1, 3)",47,0,True,0.0,1,0,0,0.0,True,True,-0.1,0.1,-1.0,0.19999999999999998,-0.6756472592139956,0.224124007605007,0,False,True,0.551751984789986,0.10174910113244555,0,False,True,0.7965017977351089,0.3916955986623289,0,False,True,024
47,"{'sd': 0.37, 'mean': -0.3}",-0.1,1,0.4419100284576416,0,"(1, 2)",48,0,True,0.0,1,0,0,0.0,True,True,-0.1,0.1,-1.0,0.0,-0.8166489731503745,0.26024304441739815,0,False,True,0.4795139111652037,0.12586541456595488,0,False,True,0.7482691708680902,0.3916955986623289,0,False,True,024
48,"{'sd': 0.37, 'mean': -0.3}",-0.5,1,0.46175694465637207,0,"(1, 3)",49,0,True,0.0,1,0,0,0.0,True,True,-0.5,0.5,-1.0,-0.4,-0.7727166201536827,0.051564860912034965,0,False,True,0.8968702781759301,0.023314889354753624,0,False,True,0.9533702212904928,0.08619644561471856,0,False,True,024
49,"{'sd': 0.37, 'mean': -0.3}",-0.5,1,0.40640687942504883,0,"(1, 3)",50,0,True,0.0,1,0,0,0.0,True,True,-0.5,0.5,-1.0,0.0,-0.9004004551420209,0.03802401908862608,0,False,True,0.9239519618227479,0.012731241589606859,0,False,True,0.9745375168207863,0.08619644561471856,0,False,True,024
50,"{'sd': 0.37, 'mean': -0.3}",-0.3,0,0.6648209095001221,0,"(0, 2)",51,0,False,0.0,1,0,0,0.0,True,True,-0.3,0.3,-1.0,0.2,-0.4082375836188426,0.09221368331268323,0,False,True,0.8155726333746336,0.030249892828694027,0,False,True,0.939500214342612,0.19854223211145114,0,False,True,024
51,"{'sd': 0.37, 'mean': -0.3}",0.3,2,0.9382212162017822,0,"(0, 2)",52,0,False,0.0,0,1,1,1.0,False,True,0.3,0.3,1.0,0.6,-0.06376951961315021,0.6533459954284173,1,True,True,0.30669199085683463,0.37769462981612933,0,False,False,0.24461074036774133,0.8083525901114329,1,True,True,024
52,"{'sd': 0.37, 'mean': -0.3}",0.5,3,0.8039288520812988,0,"(0, 3)",53,0,False,0.0,0,1,1,0.0,False,True,0.5,0.5,1.0,0.2,-0.2182445061550528,0.9152642056948633,1,False,True,0.8305284113897267,0.8774892166841307,1,True,True,0.7549784333682614,0.9140117289686287,1,False,True,024
53,"{'sd': 0.37, 'mean': -0.3}",-0.3,0,0.8547120094299316,0,"(0, 2)",54,0,False,0.0,1,0,0,1.0,True,True,-0.3,0.3,-1.0,-0.8,-0.15699069786180872,0.27153343939612046,0,True,True,0.4569331212077591,0.49882957661572525,0,True,True,0.0023408467685495093,0.19854223211145114,0,True,True,024
54,"{'sd': 0.37, 'mean': -0.3}",-1.0,0,0.7274041175842285,0,"(0, 2)",55,0,True,0.0,1,0,0,0.0,True,True,-1.0,1.0,-1.0,-0.7,-0.3182730857575762,0.004705211823770516,0,False,True,0.9905895763524589,0.007972599673939595,0,False,True,0.9840548006521208,0.008002150533589058,0,False,True,024
55,"{'sd': 0.37, 'mean': -0.3}",-0.5,0,0.7172269821166992,0,"(0, 2)",56,0,True,0.0,1,0,0,0.0,True,True,-0.5,0.5,-1.0,0.5,-0.3323629164910386,0.035348968967101956,0,False,True,0.9293020620657961,0.011297137212795549,0,False,True,0.9774057255744089,0.08619644561471856,0,False,True,024
56,"{'sd': 0.37, 'mean': -0.3}",-0.7,0,0.6607670783996582,0,"(0, 3)",57,0,True,0.0,1,0,0,0.0,True,True,-0.7,0.7,-1.0,-0.19999999999999996,-0.414353878840229,0.014306500011021737,0,False,True,0.9713869999779565,0.004405319229209559,0,False,True,0.9911893615415809,0.0343281253064721,0,False,True,024
57,"{'sd': 0.37, 'mean': -0.3}",0.9,3,1.0481338500976562,0,"(0, 3)",58,0,False,0.0,0,1,1,1.0,False,True,0.9,0.9,1.0,1.6,0.047011297302234266,0.9627245425320969,1,True,True,0.9254490850641939,0.8849917921339837,1,True,True,0.7699835842679674,0.9849507989697606,1,True,True,024
58,"{'sd': 0.37, 'mean': -0.3}",-0.5,0,0.8550219535827637,0,"(0, 3)",59,0,False,0.0,1,0,0,1.0,True,True,-0.5,0.5,-1.0,-1.4,-0.15662813367003103,0.13273131861827162,0,True,True,0.7345373627634568,0.2824476369188465,0,True,True,0.435104726162307,0.08619644561471856,0,True,True,024
59,"{'sd': 0.37, 'mean': -0.3}",0.3,3,0.7344341278076172,0,"(0, 3)",60,0,False,0.0,0,1,1,1.0,False,True,0.3,0.3,1.0,0.8,-0.30865497042929235,0.6674377875674157,1,True,True,0.33487557513483135,0.6717635680280847,1,True,True,0.34352713605616936,0.8083525901114329,1,True,True,024
60,"{'sd': 0.37, 'mean': -0.3}",0.1,2,0.8501391410827637,0,"(0, 2)",61,0,False,0.0,0,1,1,0.0,False,True,0.1,0.1,1.0,-0.19999999999999998,-0.16235524750291688,0.6320954735281192,1,False,True,0.26419094705623847,0.7439038991826687,1,False,True,0.4878077983653375,0.6235710566026291,1,False,True,024
61,"{'sd': 0.37, 'mean': 0.3}",0.5,3,0.7776110172271729,1,"(0, 3)",62,1,False,1.0,0,1,1,0.0,True,True,0.5,0.5,1.0,0.4,-0.25152885769145533,0.9128494598035043,1,False,True,0.8256989196070086,0.9602244671939679,1,False,True,0.9204489343879358,0.9140117289686287,1,False,True,024
62,"{'sd': 0.37, 'mean': 0.3}",0.1,0,1.2889890670776367,1,"(1, 2)",63,1,False,0.0,0,0,0,1.0,False,False,0.1,0.1,1.0,-0.4,0.2538582422124976,0.7129015254173248,1,False,False,0.42580305083464953,0.9149886907772841,1,False,False,0.8299773815545681,0.6235710566026291,1,False,False,024
63,"{'sd': 0.37, 'mean': 0.3}",-0.3,1,1.0035009384155273,1,"(1, 3)",64,1,False,0.0,1,0,0,0.0,False,True,-0.3,0.3,-1.0,-0.4,0.0034948243963470287,0.21540755874515902,0,True,True,0.5691848825096819,0.5484333789697653,1,False,False,0.09686675793953059,0.19854223211145114,0,True,True,024
64,"{'sd': 0.37, 'mean': 0.3}",0.5,2,0.8886229991912842,1,"(1, 2)",65,1,False,0.0,0,1,1,1.0,True,True,0.5,0.5,1.0,0.8,-0.11808220631326727,0.8514623617792125,1,True,True,0.7029247235584251,0.925412731488333,1,False,True,0.8508254629766661,0.9140117289686287,1,True,True,024
65,"{'sd': 0.37, 'mean': 0.3}",1.0,3,0.7743690013885498,1,"(0, 3)",66,1,False,0.0,0,1,1,0.0,True,True,1.0,1.0,1.0,0.5,-0.25570677301962974,0.9928892515163789,1,False,True,0.9857785030327577,0.9981286199005576,1,False,True,0.9962572398011151,0.9903320857704108,1,False,True,024
66,"{'sd': 0.37, 'mean': 0.3}",0.5,2,0.6013140678405762,1,"(0, 2)",67,1,False,0.0,0,1,1,0.0,True,True,0.5,0.5,1.0,-0.5,-0.5086379055000347,0.9476730895087622,1,False,True,0.8953461790175243,0.989291500965806,1,False,True,0.978583001931612,0.9140117289686287,1,False,True,024
67,"{'sd': 0.37, 'mean': 0.3}",0.5,2,0.6229889392852783,1,"(0, 2)",68,1,True,0.0,0,1,1,0.0,True,True,0.5,0.5,1.0,0.0,-0.4732265143085018,0.9439322072872671,1,False,True,0.8878644145745342,0.9884798794106866,1,False,True,0.9769597588213732,0.9140117289686287,1,False,True,024
68,"{'sd': 0.37, 'mean': 0.3}",1.0,2,0.6699850559234619,1,"(1, 2)",69,1,True,0.0,0,1,1,0.0,True,True,1.0,1.0,1.0,0.5,-0.4004998714377243,0.9938377141717559,1,False,True,0.9876754283435119,0.9987841471980178,1,False,True,0.9975682943960356,0.9903320857704108,1,False,True,024
69,"{'sd': 0.37, 'mean': 0.3}",0.1,2,0.7075350284576416,1,"(1, 2)",70,1,True,0.0,0,1,1,0.0,True,True,0.1,0.1,1.0,-0.9,-0.34596814050285396,0.7386861259514799,1,False,True,0.47737225190295973,0.9353968656170716,1,False,True,0.8707937312341432,0.6235710566026291,1,False,True,024
70,"{'sd': 0.37, 'mean': 0.3}",0.1,2,0.5691430568695068,1,"(1, 2)",71,1,True,0.0,0,1,1,0.0,True,True,0.1,0.1,1.0,0.0,-0.5636234584076848,0.6559803333353779,1,False,True,0.3119606666707557,0.9015684141995541,1,False,True,0.8031368283991083,0.6235710566026291,1,False,True,024
71,"{'sd': 0.37, 'mean': 0.3}",0.5,3,0.718919038772583,1,"(0, 3)",72,1,False,0.0,0,1,1,0.0,True,True,0.5,0.5,1.0,0.4,-0.33000653014284165,0.9155598232984384,1,False,True,0.8311196465968769,0.9797522983186736,1,False,True,0.9595045966373472,0.9140117289686287,1,False,True,024
72,"{'sd': 0.37, 'mean': 0.3}",0.3,2,0.7421069145202637,1,"(1, 2)",73,1,False,0.0,0,1,1,0.0,True,True,0.3,0.3,1.0,-0.2,-0.2982619565447221,0.8639366996452872,1,False,True,0.7278733992905744,0.9693066921779784,1,False,True,0.9386133843559568,0.8083525901114329,1,False,True,024
73,"{'sd': 0.37, 'mean': 0.3}",0.3,2,0.8845841884613037,1,"(1, 2)",74,1,True,0.0,0,1,1,0.0,True,True,0.3,0.3,1.0,0.0,-0.12263758793182143,0.8542379286191123,1,False,True,0.7084758572382246,0.9669082241287907,1,False,True,0.9338164482575815,0.8083525901114329,1,False,True,024
74,"{'sd': 0.37, 'mean': 0.3}",-0.5,0,0.7916290760040283,1,"(0, 2)",75,1,False,0.0,1,0,0,1.0,False,True,-0.5,0.5,-1.0,-0.8,-0.23366233525113578,0.11436001672709707,0,True,True,0.7712799665458059,0.39109051947462703,0,True,True,0.21781896105074594,0.08619644561471856,0,True,True,024
75,"{'sd': 0.37, 'mean': 0.3}",0.5,2,0.7790780067443848,1,"(0, 2)",76,1,False,0.0,0,1,1,1.0,True,True,0.5,0.5,1.0,1.0,-0.2496441010973147,0.8309750888577958,1,True,True,0.6619501777155916,0.882160632781327,1,True,True,0.7643212655626539,0.9140117289686287,1,True,True,024
76,"{'sd': 0.37, 'mean': 0.3}",0.3,2,0.7418711185455322,1,"(1, 2)",77,1,True,0.0,0,1,1,0.0,True,True,0.3,0.3,1.0,-0.2,-0.29857974558399614,0.8478629693212936,1,False,True,0.6957259386425871,0.9455032369496276,1,False,True,0.8910064738992551,0.8083525901114329,1,False,True,024
77,"{'sd': 0.37, 'mean': -0.3}",-0.3,0,0.7706968784332275,0,"(0, 3)",78,0,False,1.0,1,0,0,1.0,True,True,-0.3,0.3,-1.0,-0.6,-0.26046013650712174,0.25140306388086864,0,True,True,0.4971938722382627,0.5934074549237287,1,False,False,0.1868149098474574,0.19854223211145114,0,True,True,024
78,"{'sd': 0.37, 'mean': -0.3}",-0.3,1,0.7181057929992676,0,"(1, 3)",79,0,False,0.0,1,0,0,0.0,True,True,-0.3,0.3,-1.0,0.0,-0.3311383767778534,0.12352446951714241,0,False,True,0.7529510609657152,0.2505715751576822,0,True,True,0.4988568496846356,0.19854223211145114,0,False,True,024
79,"{'sd': 0.37, 'mean': -0.3}",-0.7,0,0.6915409564971924,0,"(0, 3)",80,0,False,0.0,1,0,0,0.0,True,True,-0.7,0.7,-1.0,-0.39999999999999997,-0.3688329011465293,0.016402789725828957,0,False,True,0.967194420548342,0.015098281668651662,0,False,True,0.9698034366626966,0.0343281253064721,0,False,True,024
80,"{'sd': 0.37, 'mean': 0.3}",0.1,2,0.7524909973144531,1,"(1, 2)",81,1,False,1.0,0,1,1,1.0,True,True,0.1,0.1,1.0,0.7999999999999999,-0.2843662461323953,0.3961124260873941,0,False,False,0.20777514782521178,0.17529769970589487,0,False,False,0.6494046005882103,0.6235710566026291,1,True,True,024
81,"{'sd': 0.37, 'mean': 0.3}",0.3,3,0.5654118061065674,1,"(0, 3)",82,1,False,0.0,0,1,1,0.0,True,True,0.3,0.3,1.0,0.19999999999999998,-0.570200952959811,0.7476279208245917,1,True,True,0.49525584164918346,0.572972121940745,1,True,True,0.14594424388148997,0.8083525901114329,1,False,True,024
82,"{'sd': 0.37, 'mean': 0.3}",0.3,2,0.5169720649719238,1,"(1, 2)",83,1,False,0.0,0,1,1,0.0,True,True,0.3,0.3,1.0,0.0,-0.6597664388698572,0.8310713595176515,1,False,True,0.6621427190353031,0.8419645591890949,1,False,True,0.6839291183781897,0.8083525901114329,1,False,True,024
83,"{'sd': 0.37, 'mean': 0.3}",0.1,2,0.5724430084228516,1,"(1, 2)",84,1,True,0.0,0,1,1,0.0,True,True,0.1,0.1,1.0,-0.19999999999999998,-0.5578420971154066,0.6864287365535018,1,False,True,0.37285747310700357,0.8489920151793856,1,False,True,0.6979840303587712,0.6235710566026291,1,False,True,024
84,"{'sd': 0.37, 'mean': 0.3}",-0.3,1,0.7938690185546875,1,"(1, 3)",85,1,False,0.0,1,0,0,1.0,False,True,-0.3,0.3,-1.0,-0.4,-0.23083679537998217,0.20894133958364328,0,True,True,0.5821173208327135,0.4647286824671911,0,True,True,0.07054263506561775,0.19854223211145114,0,True,True,024
85,"{'sd': 0.37, 'mean': 0.3}",0.7,3,0.9012229442596436,1,"(0, 3)",86,1,False,0.0,0,1,1,1.0,True,True,0.7,0.7,1.0,1.0,-0.10400261107254767,0.9340372284247391,1,True,True,0.8680744568494783,0.9594995690935811,1,True,True,0.9189991381871623,0.963652584628436,1,True,True,024
86,"{'sd': 0.37, 'mean': 0.3}",0.3,2,0.7094018459320068,1,"(1, 2)",87,1,False,0.0,0,1,1,0.0,True,True,0.3,0.3,1.0,-0.39999999999999997,-0.3433331345428056,0.8673264316431013,1,False,True,0.7346528632862026,0.9646254891595184,1,False,True,0.9292509783190368,0.8083525901114329,1,False,True,024
87,"{'sd': 0.37, 'mean': -0.3}",-0.1,1,1.071338176727295,0,"(1, 2)",88,0,False,1.0,1,0,0,1.0,True,True,-0.1,0.1,-1.0,-0.4,0.06890849953988075,0.4735027572374171,0,True,True,0.052994485525165835,0.8118196603117522,1,False,False,0.6236393206235045,0.3916955986623289,0,True,True,024
88,"{'sd': 0.37, 'mean': -0.3}",0.1,2,1.0791609287261963,0,"(0, 2)",89,0,False,0.0,0,1,1,1.0,False,True,0.1,0.1,1.0,0.2,0.07618382133293661,0.5652371949402458,1,True,True,0.13047438988049165,0.8312936755429583,1,False,True,0.6625873510859166,0.6235710566026291,1,True,True,024
89,"{'sd': 0.37, 'mean': -0.3}",-0.7,1,0.8384799957275391,0,"(1, 3)",90,0,False,0.0,1,0,0,1.0,True,True,-0.7,0.7,-1.0,-0.7999999999999999,-0.17616455521569857,0.0308357007269778,0,True,True,0.9383285985460444,0.10315858240346246,0,True,True,0.7936828351930751,0.0343281253064721,0,True,True,024
90,"{'sd': 0.37, 'mean': -0.3}",-0.1,0,0.6640698909759521,0,"(0, 3)",91,0,False,0.0,1,0,0,0.0,True,True,-0.1,0.1,-1.0,0.6,-0.4093678775509807,0.20697847741127687,0,False,True,0.5860430451774463,0.12669290815857973,0,False,True,0.7466141836828406,0.3916955986623289,0,False,True,024
91,"{'sd': 0.37, 'mean': -0.3}",-0.5,1,0.7501850128173828,0,"(1, 3)",92,0,False,0.0,1,0,0,0.0,True,True,-0.5,0.5,-1.0,-0.4,-0.2874354191167055,0.04782926078888926,0,False,True,0.9043414784222215,0.02340809128057261,0,False,True,0.9531838174388548,0.08619644561471856,0,False,True,024
92,"{'sd': 0.37, 'mean': -0.3}",0.5,2,1.0284559726715088,0,"(0, 3)",93,0,False,0.0,0,0,1,1.0,False,False,0.5,0.5,1.0,1.0,0.02805862187474056,0.8157599385988954,1,True,True,0.6315198771977908,0.592530764486721,1,True,True,0.18506152897344208,0.9140117289686287,1,True,True,024
93,"{'sd': 0.37, 'mean': -0.3}",-0.9,0,0.8513360023498535,0,"(0, 2)",94,0,False,0.0,1,0,0,1.0,True,True,-0.9,0.9,-1.0,-1.4,-0.16094839596104754,0.016832561258148415,0,True,True,0.9663348774837032,0.017532005392014924,0,True,True,0.9649359892159701,0.013085899476143139,0,True,True,024
94,"{'sd': 0.37, 'mean': -0.3}",-0.5,0,1.0646212100982666,0,"(0, 3)",95,0,True,0.0,1,0,0,0.0,True,True,-0.5,0.5,-1.0,0.4,0.0626190646261276,0.036029896883102805,0,False,True,0.9279402062337944,0.012186528324133566,0,False,True,0.9756269433517328,0.08619644561471856,0,False,True,024
95,"{'sd': 0.37, 'mean': -0.3}",-0.3,0,0.7905869483947754,0,"(0, 3)",96,0,True,0.0,1,0,0,0.0,True,True,-0.3,0.3,-1.0,0.2,-0.23497963673700306,0.09194560883654478,0,False,True,0.8161087823269104,0.03012178803838806,0,False,True,0.9397564239232239,0.19854223211145114,0,False,True,024
96,"{'sd': 0.37, 'mean': -0.3}",-0.1,0,0.7922029495239258,0,"(0, 3)",97,0,True,0.0,1,0,0,0.0,True,True,-0.1,0.1,-1.0,0.19999999999999998,-0.23293767059508455,0.22336360828316296,0,False,True,0.5532727834336741,0.08472570999035368,0,False,True,0.8305485800192927,0.3916955986623289,0,False,True,024
97,"{'sd': 0.37, 'mean': -0.3}",-0.3,1,0.6945779323577881,0,"(1, 3)",98,0,False,0.0,1,0,0,0.0,True,True,-0.3,0.3,-1.0,-0.19999999999999998,-0.3644509094650903,0.11908973158769236,0,False,True,0.7618205368246153,0.04802479794251583,0,False,True,0.9039504041149683,0.19854223211145114,0,False,True,024
98,"{'sd': 0.37, 'mean': -0.3}",-0.5,0,0.6459028720855713,0,"(0, 3)",99,0,False,0.0,1,0,0,0.0,True,True,-0.5,0.5,-1.0,-0.2,-0.437106139312365,0.04209804557535019,0,False,True,0.9158039088492996,0.015117404842992293,0,False,True,0.9697651903140154,0.08619644561471856,0,False,True,024
99,"{'sd': 0.37, 'mean': -0.3}",-0.3,1,0.7289688587188721,0,"(1, 2)",100,0,False,0.0,1,0,0,0.0,True,True,-0.3,0.3,-1.0,0.2,-0.31612426569267027,0.09276266126281786,0,False,True,0.8144746774743643,0.030812144727691157,0,False,True,0.9383757105446177,0.19854223211145114,0,False,True,024
100,"{'sd': 0.37, 'mean': -0.3}",-0.5,0,0.771406888961792,0,"(0, 3)",101,0,False,0.0,1,0,0,0.0,True,True,-0.5,0.5,-1.0,-0.2,-0.2595393027814717,0.04047751314158897,0,False,True,0.919044973716822,0.013445078116663334,0,False,True,0.9731098437666733,0.08619644561471856,0,False,True,024
101,"{'sd': 0.37, 'mean': -0.3}",-0.1,0,0.7227749824523926,0,"(0, 2)",102,0,True,0.0,1,0,0,0.0,True,True,-0.1,0.1,-1.0,0.4,-0.32465733285478166,0.20953678134385526,0,False,True,0.5809264373122895,0.07539723988322282,0,False,True,0.8492055202335543,0.3916955986623289,0,False,True,024
102,"{'sd': 0.37, 'mean': -0.3}",-0.3,1,0.8312687873840332,0,"(1, 3)",103,0,False,0.0,1,0,0,0.0,True,True,-0.3,0.3,-1.0,-0.19999999999999998,-0.18480208590322966,0.11694110430710206,0,False,True,0.7661177913857959,0.04562319308602998,0,False,True,0.9087536138279401,0.19854223211145114,0,False,True,024
103,"{'sd': 0.37, 'mean': -0.3}",-0.5,0,0.6273541450500488,0,"(0, 3)",104,0,False,0.0,1,0,0,0.0,True,True,-0.5,0.5,-1.0,-0.2,-0.4662440731613885,0.041964200750966796,0,False,True,0.9160715984980664,0.014881222975294992,0,False,True,0.97023755404941,0.08619644561471856,0,False,True,024
104,"{'sd': 0.37, 'mean': 0.3}",0.1,0,0.5916948318481445,1,"(0, 3)",105,1,True,1.0,1,0,0,0.0,False,True,0.1,0.1,1.0,0.6,-0.5247642637500988,0.4060278506437228,0,False,True,0.18794429871255436,0.17504965687609933,0,False,True,0.6499006862478014,0.6235710566026291,1,True,False,024
105,"{'sd': 0.37, 'mean': 0.3}",0.3,2,0.7578649520874023,1,"(0, 3)",106,1,False,0.0,0,0,1,1.0,False,False,0.3,0.3,1.0,0.19999999999999998,-0.2772500726858463,0.7503099485274987,1,True,True,0.5006198970549973,0.5727079768004577,1,True,True,0.14541595360091542,0.8083525901114329,1,False,True,024
106,"{'sd': 0.37, 'mean': 0.3}",0.3,2,1.0968101024627686,1,"(1, 2)",107,1,True,0.0,0,1,1,0.0,True,True,0.3,0.3,1.0,0.0,0.09240606007581686,0.8316272993799749,1,False,True,0.6632545987599499,0.8418510026505329,1,False,True,0.6837020053010658,0.8083525901114329,1,False,True,024
107,"{'sd': 0.37, 'mean': -0.3}",-0.9,0,0.90236496925354,0,"(0, 3)",108,0,False,1.0,1,0,0,1.0,True,True,-0.9,0.9,-1.0,-1.2,-0.10273621852470803,0.01723441852000223,0,True,True,0.9655311629599955,0.043042186057511755,0,True,True,0.9139156278849765,0.013085899476143139,0,True,True,024
108,"{'sd': 0.37, 'mean': -0.3}",0.1,0,0.7371721267700195,0,"(0, 3)",109,0,True,0.0,1,0,0,0.0,True,True,0.1,0.1,1.0,1.0,-0.30493386349158474,0.39643591727584987,0,False,True,0.20712816544830026,0.20679869652233254,0,False,True,0.586402606955335,0.6235710566026291,1,True,False,024
109,"{'sd': 0.37, 'mean': -0.3}",-0.1,1,0.5163609981536865,0,"(1, 2)",110,0,False,0.0,1,0,0,0.0,True,True,-0.1,0.1,-1.0,-0.2,-0.6609491492877725,0.3115109501586371,0,False,True,0.3769780996827258,0.18954224938415734,0,False,True,0.6209155012316854,0.3916955986623289,0,True,True,024
110,"{'sd': 0.37, 'mean': -0.3}",-0.1,0,0.6572117805480957,0,"(0, 3)",111,0,False,0.0,1,0,0,0.0,True,True,-0.1,0.1,-1.0,0.0,-0.4197489676173934,0.2857707303508935,0,False,True,0.428458539298213,0.17879583417633121,0,False,True,0.6424083316473376,0.3916955986623289,0,False,True,024
111,"{'sd': 0.37, 'mean': -0.3}",-0.7,1,0.6072201728820801,0,"(1, 3)",112,0,False,0.0,1,0,0,0.0,True,True,-0.7,0.7,-1.0,-0.6,-0.4988638306560072,0.02082998686339422,0,False,True,0.9583400262732116,0.011350792030952014,0,False,True,0.977298415938096,0.0343281253064721,0,False,True,024
112,"{'sd': 0.37, 'mean': -0.3}",-0.3,0,0.5565440654754639,0,"(0, 3)",113,0,False,0.0,1,0,0,0.0,True,True,-0.3,0.3,-1.0,0.39999999999999997,-0.5860089281570455,0.0899158492773835,0,False,True,0.820168301445233,0.02992541829166044,0,False,True,0.9401491634166791,0.19854223211145114,0,False,True,024
113,"{'sd': 0.37, 'mean': 0.3}",0.5,2,0.7348558902740479,1,"(0, 2)",114,1,False,1.0,0,1,1,1.0,True,True,0.5,0.5,1.0,0.8,-0.3080808666474324,0.8255589300790854,1,True,True,0.6511178601581709,0.6041037979666222,1,True,True,0.20820759593324434,0.9140117289686287,1,True,True,024
114,"{'sd': 0.37, 'mean': 0.3}",0.1,2,1.3070628643035889,1,"(1, 2)",115,1,True,0.0,0,1,1,0.0,True,True,0.1,0.1,1.0,-0.4,0.2677825316518848,0.6846282196275603,1,False,True,0.3692564392551205,0.6983698114758727,1,False,True,0.3967396229517455,0.6235710566026291,1,False,True,024
115,"{'sd': 0.37, 'mean': 0.3}",0.1,3,1.1604688167572021,1,"(0, 3)",116,1,False,0.0,0,1,1,0.0,True,True,0.1,0.1,1.0,0.0,0.14882407584759777,0.6378908853369121,1,False,True,0.27578177067382414,0.7611930722640634,1,False,True,0.5223861445281268,0.6235710566026291,1,False,True,024
116,"{'sd': 0.37, 'mean': 0.3}",0.3,2,0.7318911552429199,1,"(1, 2)",117,1,False,0.0,0,1,1,0.0,True,True,0.3,0.3,1.0,0.19999999999999998,-0.31212347110035993,0.8073709105928931,1,False,True,0.6147418211857862,0.9109561171675006,1,False,True,0.8219122343350012,0.8083525901114329,1,False,True,024
117,"{'sd': 0.37, 'mean': 0.3}",0.3,3,0.8824338912963867,1,"(1, 3)",118,1,False,0.0,0,1,1,0.0,True,True,0.3,0.3,1.0,0.0,-0.12507140369294242,0.8432071992037544,1,False,True,0.6864143984075088,0.9528649023793627,1,False,True,0.9057298047587254,0.8083525901114329,1,False,True,024
118,"{'sd': 0.37, 'mean': 0.3}",-0.1,1,1.1567280292510986,1,"(1, 2)",119,1,False,0.0,1,0,0,1.0,False,True,-0.1,0.1,-1.0,-0.4,0.1455953551092253,0.46431032021114743,0,True,True,0.07137935957770514,0.7992156613738112,1,False,False,0.5984313227476223,0.3916955986623289,0,True,True,024
119,"{'sd': 0.37, 'mean': 0.3}",0.5,3,0.7918767929077148,1,"(1, 3)",120,1,False,0.0,0,1,1,1.0,True,True,0.5,0.5,1.0,0.6,-0.23334946377958576,0.8916955728718424,1,True,True,0.7833911457436848,0.9677384389137342,1,False,True,0.9354768778274685,0.9140117289686287,1,True,True,024
120,"{'sd': 0.37, 'mean': 0.3}",0.1,3,1.0554649829864502,1,"(1, 3)",121,1,True,0.0,0,1,1,0.0,True,True,0.1,0.1,1.0,-0.4,0.05398141199698135,0.7060962138164779,1,False,True,0.4121924276329558,0.9190066041883634,1,False,True,0.8380132083767269,0.6235710566026291,1,False,True,024
121,"{'sd': 0.37, 'mean': 0.3}",0.3,3,0.9318490028381348,1,"(1, 3)",122,1,True,0.0,0,1,1,0.0,True,True,0.3,0.3,1.0,0.19999999999999998,-0.07058449154442448,0.8223240787493057,1,False,True,0.6446481574986114,0.9548702564010237,1,False,True,0.9097405128020475,0.8083525901114329,1,False,True,024
122,"{'sd': 0.37, 'mean': 0.3}",0.7,2,0.870837926864624,1,"(1, 2)",123,1,False,0.0,0,1,1,0.0,True,True,0.7,0.7,1.0,0.39999999999999997,-0.1382993965226246,0.9718896502179986,1,False,True,0.9437793004359971,0.9940155637407739,1,False,True,0.9880311274815479,0.963652584628436,1,False,True,024
123,"{'sd': 0.37, 'mean': 0.3}",-0.1,0,0.9403250217437744,1,"(0, 3)",124,1,False,0.0,1,0,0,1.0,False,True,-0.1,0.1,-1.0,-0.7999999999999999,-0.06152969566947569,0.5146324293996706,1,False,False,0.029264858799341154,0.8438566929882415,1,False,False,0.687713385976483,0.3916955986623289,0,True,True,024
124,"{'sd': 0.37, 'mean': 0.3}",0.3,2,1.028198003768921,1,"(0, 2)",125,1,False,0.0,0,1,1,1.0,True,True,0.3,0.3,1.0,0.4,0.02780775915607629,0.778325248962899,1,False,True,0.556650497925798,0.9352281343079362,1,False,True,0.8704562686158723,0.8083525901114329,1,True,True,024
125,"{'sd': 0.37, 'mean': 0.3}",-0.3,0,0.9808039665222168,1,"(0, 2)",126,1,False,0.0,1,0,0,1.0,False,True,-0.3,0.3,-1.0,-0.6,-0.01938266963808144,0.23219216643082943,0,True,True,0.5356156671383412,0.5777574801967367,1,False,False,0.15551496039347334,0.19854223211145114,0,True,True,024
126,"{'sd': 0.37, 'mean': 0.3}",-0.3,1,0.9398910999298096,1,"(1, 2)",127,1,False,0.0,1,0,0,0.0,False,True,-0.3,0.3,-1.0,0.0,-0.06199126156784942,0.12047475326900722,0,False,True,0.7590504934619855,0.24115063685472626,0,True,True,0.5176987262905475,0.19854223211145114,0,False,True,024
127,"{'sd': 0.37, 'mean': 0.3}",0.5,2,1.0717809200286865,1,"(0, 2)",128,1,False,0.0,0,1,1,1.0,True,True,0.5,0.5,1.0,0.8,0.0693216761182243,0.8322999931135295,1,True,True,0.6645999862270591,0.815570933273687,1,True,True,0.631141866547374,0.9140117289686287,1,True,True,024
128,"{'sd': 0.37, 'mean': 0.3}",0.1,3,0.9922769069671631,1,"(0, 3)",129,1,False,0.0,0,1,1,0.0,True,True,0.1,0.1,1.0,-0.4,-0.007753070561743966,0.6868297646340404,1,False,True,0.3736595292680809,0.8335164403012275,1,False,True,0.667032880602455,0.6235710566026291,1,False,True,024
129,"{'sd': 0.37, 'mean': 0.3}",0.7,3,0.8382000923156738,1,"(0, 3)",130,1,True,0.0,0,1,1,0.0,True,True,0.7,0.7,1.0,0.6,-0.1764984333555554,0.9658519173566736,1,False,True,0.9317038347133473,0.9885889765540036,1,False,True,0.9771779531080071,0.963652584628436,1,False,True,024
130,"{'sd': 0.37, 'mean': 0.3}",0.3,2,1.0688440799713135,1,"(1, 2)",131,1,False,0.0,0,1,1,0.0,True,True,0.3,0.3,1.0,-0.39999999999999997,0.06657776543792632,0.873065376540288,1,False,True,0.7461307530805761,0.9713097532577102,1,False,True,0.9426195065154204,0.8083525901114329,1,False,True,024
131,"{'sd': 0.37, 'mean': 0.3}",1.0,2,0.6935329437255859,1,"(0, 2)",132,1,True,0.0,0,1,1,0.0,True,True,1.0,1.0,1.0,0.7,-0.3659565367858111,0.9931195374191772,1,False,True,0.9862390748383545,0.9986130493983213,1,False,True,0.9972260987966426,0.9903320857704108,1,False,True,024
132,"{'sd': 0.37, 'mean': 0.3}",0.5,2,0.5313661098480225,1,"(1, 2)",133,1,True,0.0,0,1,1,0.0,True,True,0.5,0.5,1.0,-0.5,-0.6323040229102806,0.9476917578238796,1,False,True,0.8953835156477592,0.9893356620681824,1,False,True,0.9786713241363647,0.9140117289686287,1,False,True,024
133,"{'sd': 0.37, 'mean': -0.3}",-0.3,0,0.7369449138641357,0,"(0, 3)",134,0,False,1.0,1,0,0,1.0,True,True,-0.3,0.3,-1.0,-0.8,-0.30524213332555317,0.28180204886361787,0,True,True,0.43639590227276426,0.6667159497965551,1,False,False,0.33343189959311026,0.19854223211145114,0,True,True,024
134,"{'sd': 0.37, 'mean': -0.3}",-0.5,0,0.5299210548400879,0,"(0, 3)",135,0,True,0.0,1,0,0,0.0,True,True,-0.5,0.5,-1.0,-0.2,-0.6350272366624986,0.053138071646803044,0,False,True,0.8937238567063939,0.13982958198120926,0,True,True,0.7203408360375815,0.08619644561471856,0,False,True,024
135,"{'sd': 0.37, 'mean': -0.3}",-0.7,1,0.5679960250854492,0,"(1, 3)",136,0,False,0.0,1,0,0,0.0,True,True,-0.7,0.7,-1.0,-0.19999999999999996,-0.5656408583744703,0.014713974934676048,0,False,True,0.970572050130648,0.009534193553994846,0,False,True,0.9809316128920103,0.0343281253064721,0,False,True,024
136,"{'sd': 0.37, 'mean': -0.3}",-0.7,0,0.5765759944915771,0,"(0, 3)",137,0,False,0.0,1,0,0,0.0,True,True,-0.7,0.7,-1.0,0.0,-0.5506481275068428,0.013843076013027032,0,False,True,0.9723138479739459,0.004342843726833256,0,False,True,0.9913143125463335,0.0343281253064721,0,False,True,024
137,"{'sd': 0.37, 'mean': -0.3}",-0.1,1,0.6928560733795166,0,"(1, 2)",138,0,False,0.0,1,0,0,0.0,True,True,-0.1,0.1,-1.0,0.6,-0.3669329876830682,0.2024939100657494,0,False,True,0.5950121798685012,0.070344392883365,0,False,True,0.85931121423327,0.3916955986623289,0,False,True,024
138,"{'sd': 0.37, 'mean': 0.3}",0.1,1,0.8103899955749512,1,"(1, 2)",139,1,True,1.0,1,0,0,0.0,False,True,0.1,0.1,1.0,0.2,-0.21023967116958084,0.467021386564062,0,False,True,0.065957226871876,0.23677046723283446,0,False,True,0.5264590655343311,0.6235710566026291,1,True,False,024
139,"{'sd': 0.37, 'mean': 0.3}",0.3,2,0.5332520008087158,1,"(1, 2)",140,1,False,0.0,0,1,1,1.0,True,True,0.3,0.3,1.0,0.19999999999999998,-0.6287611695351081,0.7663420730135708,1,True,True,0.5326841460271416,0.6330806381141818,1,True,True,0.2661612762283636,0.8083525901114329,1,False,True,024
140,"{'sd': 0.37, 'mean': 0.3}",0.3,3,0.8385119438171387,1,"(1, 3)",141,1,False,0.0,0,1,1,0.0,True,True,0.3,0.3,1.0,0.0,-0.17612645355420561,0.8349283572232554,1,False,True,0.6698567144465108,0.8664497398779502,1,False,True,0.7328994797559003,0.8083525901114329,1,False,True,024
141,"{'sd': 0.37, 'mean': 0.3}",0.1,2,1.0324101448059082,1,"(0, 3)",142,1,False,0.0,0,0,1,0.0,False,False,0.1,0.1,1.0,-0.19999999999999998,0.03189601524363221,0.6876873262555673,1,False,True,0.37537465251113455,0.8630972495139622,1,False,True,0.7261944990279243,0.6235710566026291,1,False,True,024
142,"{'sd': 0.37, 'mean': 0.3}",0.3,2,0.698477029800415,1,"(0, 2)",143,1,True,0.0,0,1,1,0.0,True,True,0.3,0.3,1.0,0.19999999999999998,-0.35885298586462117,0.8183617531215688,1,False,True,0.6367235062431376,0.9404607033897302,1,False,True,0.8809214067794604,0.8083525901114329,1,False,True,024
143,"{'sd': 0.37, 'mean': 0.3}",0.9,2,0.6769061088562012,1,"(0, 3)",144,1,True,0.0,0,0,1,0.0,False,False,0.9,0.9,1.0,0.6000000000000001,-0.3902227027539751,0.9883505314349263,1,False,True,0.9767010628698527,0.997329327943383,1,False,True,0.994658655886766,0.9849507989697606,1,False,True,024
144,"{'sd': 0.37, 'mean': 0.3}",0.7,3,0.4757659435272217,1,"(0, 3)",145,1,False,0.0,0,1,1,0.0,True,True,0.7,0.7,1.0,-0.20000000000000007,-0.7428292609612651,0.9781841943059733,1,False,True,0.9563683886119465,0.995649327161386,1,False,True,0.991298654322772,0.963652584628436,1,False,True,024
145,"{'sd': 0.37, 'mean': 0.3}",-0.1,1,0.8249740600585938,1,"(1, 3)",146,1,False,0.0,1,0,0,1.0,False,True,-0.1,0.1,-1.0,-0.7999999999999999,-0.1924033354949969,0.5171768841570215,1,False,False,0.03435376831404291,0.8456605997680908,1,False,False,0.6913211995361817,0.3916955986623289,0,True,True,024
146,"{'sd': 0.37, 'mean': 0.3}",0.3,2,0.9159719944000244,1,"(1, 2)",147,1,False,0.0,0,1,1,1.0,True,True,0.3,0.3,1.0,0.4,-0.08776948857449489,0.7789531150808363,1,False,True,0.5579062301616726,0.9357249900962066,1,False,True,0.8714499801924132,0.8083525901114329,1,True,True,024
147,"{'sd': 0.37, 'mean': 0.3}",0.7,2,1.1139750480651855,1,"(1, 2)",148,1,True,0.0,0,1,1,0.0,True,True,0.7,0.7,1.0,0.39999999999999997,0.10793474274902258,0.9700552795077392,1,False,True,0.9401105590154784,0.9932380914225853,1,False,True,0.9864761828451707,0.963652584628436,1,False,True,024
148,"{'sd': 0.37, 'mean': 0.3}",0.5,3,0.7126998901367188,1,"(1, 3)",149,1,False,0.0,0,1,1,0.0,True,True,0.5,0.5,1.0,-0.19999999999999996,-0.33869485862513243,0.9458029053580987,1,False,True,0.8916058107161975,0.988843760141721,1,False,True,0.9776875202834421,0.9140117289686287,1,False,True,024
149,"{'sd': 0.37, 'mean': 0.3}",-0.3,1,1.030555009841919,1,"(1, 2)",150,1,False,0.0,1,0,0,1.0,False,True,-0.3,0.3,-1.0,-0.8,0.030097501623691326,0.2811929050102441,0,True,True,0.43761418997951185,0.6658286866944014,1,False,False,0.33165737338880286,0.19854223211145114,0,True,True,024
150,"{'sd': 0.37, 'mean': 0.3}",-0.1,1,0.7720291614532471,1,"(1, 2)",151,1,True,0.0,1,0,0,0.0,False,True,-0.1,0.1,-1.0,0.19999999999999998,-0.258732955767607,0.2768066843466596,0,False,True,0.44638663130668077,0.5252409140027502,1,False,False,0.050481828005500384,0.3916955986623289,0,False,True,024
151,"{'sd': 0.37, 'mean': 0.3}",0.3,2,0.8125109672546387,1,"(1, 2)",152,1,False,0.0,0,1,1,1.0,True,True,0.3,0.3,1.0,0.4,-0.20762586670978855,0.7135593900423247,1,True,True,0.42711878008464943,0.8205109619433387,1,False,True,0.6410219238866774,0.8083525901114329,1,True,True,024
152,"{'sd': 0.37, 'mean': 0.3}",0.5,3,1.0763449668884277,1,"(0, 3)",153,1,False,0.0,0,1,1,0.0,True,True,0.5,0.5,1.0,0.2,0.07357101155543402,0.9218242121941052,1,False,True,0.8436484243882103,0.9704258741074185,1,False,True,0.9408517482148371,0.9140117289686287,1,False,True,024
153,"{'sd': 0.37, 'mean': 0.3}",1.0,2,0.875248908996582,1,"(0, 2)",154,1,False,0.0,0,1,1,0.0,True,True,1.0,1.0,1.0,0.5,-0.13324696565304373,0.9936195637626593,1,False,True,0.9872391275253185,0.9986040984746185,1,False,True,0.997208196949237,0.9903320857704108,1,False,True,024
154,"{'sd': 0.37, 'mean': 0.3}",0.5,3,0.765739917755127,1,"(0, 3)",155,1,False,0.0,0,1,1,0.0,True,True,0.5,0.5,1.0,-0.5,-0.2669126998526642,0.9477322797427814,1,False,True,0.8954645594855628,0.9893348464013128,1,False,True,0.9786696928026255,0.9140117289686287,1,False,True,024
155,"{'sd': 0.37, 'mean': 0.3}",0.5,3,0.8222939968109131,1,"(1, 3)",156,1,True,0.0,0,1,1,0.0,True,True,0.5,0.5,1.0,0.0,-0.195657287517266,0.9439372043749928,1,False,True,0.8878744087499857,0.9884838884216739,1,False,True,0.9769677768433478,0.9140117289686287,1,False,True,024
156,"{'sd': 0.37, 'mean': 0.3}",0.3,2,0.9264068603515625,1,"(0, 2)",157,1,False,0.0,0,1,1,0.0,True,True,0.3,0.3,1.0,-0.2,-0.07644176680269722,0.8691253565736657,1,False,True,0.7382507131473315,0.9712860704096247,1,False,True,0.9425721408192493,0.8083525901114329,1,False,True,024
157,"{'sd': 0.37, 'mean': 0.3}",0.1,3,0.8178839683532715,1,"(0, 3)",158,1,False,0.0,0,1,1,0.0,True,True,0.1,0.1,1.0,-0.19999999999999998,-0.20103480041965174,0.6988026723376186,1,False,True,0.3976053446752372,0.9208966445431187,1,False,True,0.8417932890862374,0.6235710566026291,1,False,True,024
158,"{'sd': 0.37, 'mean': 0.3}",0.7,3,0.9307849407196045,1,"(0, 3)",159,1,True,0.0,0,1,1,0.0,True,True,0.7,0.7,1.0,0.6,-0.07172702654220171,0.966423498792104,1,False,True,0.932846997584208,0.9926172895403141,1,False,True,0.9852345790806283,0.963652584628436,1,False,True,024
159,"{'sd': 0.37, 'mean': 0.3}",0.1,2,0.9603300094604492,1,"(1, 3)",160,1,False,0.0,0,0,1,0.0,False,False,0.1,0.1,1.0,-0.6,-0.04047829373750205,0.7300056614191598,1,False,True,0.4600113228383196,0.932167848836972,1,False,True,0.864335697673944,0.6235710566026291,1,False,True,024
160,"{'sd': 0.37, 'mean': 0.3}",-0.1,0,0.9058430194854736,1,"(0, 2)",161,1,False,0.0,1,0,0,1.0,False,True,-0.1,0.1,-1.0,-0.2,-0.09888925562781334,0.4225589671272987,0,True,True,0.15488206574540264,0.7773263275305152,1,False,False,0.5546526550610305,0.3916955986623289,0,True,True,024
161,"{'sd': 0.37, 'mean': 0.3}",0.3,3,0.9874000549316406,1,"(0, 3)",162,1,False,0.0,0,1,1,1.0,True,True,0.3,0.3,1.0,0.4,-0.012679997524764557,0.7547334981830006,1,True,True,0.5094669963660012,0.9159365782972544,1,False,True,0.8318731565945088,0.8083525901114329,1,True,True,024
162,"{'sd': 0.37, 'mean': -0.3}",-1.0,0,1.3003709316253662,0,"(0, 2)",163,0,False,1.0,1,0,0,1.0,True,True,-1.0,1.0,-1.0,-1.3,0.26264955578756455,0.009418639961287417,0,True,True,0.9811627200774251,0.038240783455386146,0,True,True,0.9235184330892277,0.008002150533589058,0,True,True,024
163,"{'sd': 0.37, 'mean': -0.3}",-0.5,0,0.599186897277832,0,"(0, 3)",164,0,True,0.0,1,0,0,0.0,True,True,-0.5,0.5,-1.0,0.5,-0.5121817140445293,0.03561269382354559,0,False,True,0.9287746123529088,0.014161033683601335,0,False,True,0.9716779326327973,0.08619644561471856,0,False,True,024
164,"{'sd': 0.37, 'mean': -0.3}",0.1,0,0.8791441917419434,0,"(0, 2)",165,0,True,0.0,1,0,0,0.0,True,True,0.1,0.1,1.0,0.6,-0.12880635408810662,0.4035693760189573,0,False,True,0.19286124796208537,0.17422628828893694,0,False,True,0.6515474234221261,0.6235710566026291,1,True,False,024
165,"{'sd': 0.37, 'mean': 0.3}",0.1,0,0.9660639762878418,1,"(0, 3)",166,1,True,1.0,1,0,0,0.0,False,True,0.1,0.1,1.0,0.0,-0.03452521892135486,0.540442150151395,1,True,False,0.08088430030278992,0.344052380081096,0,False,True,0.311895239837808,0.6235710566026291,1,False,False,024
166,"{'sd': 0.37, 'mean': 0.3}",-0.1,1,1.1789250373840332,1,"(1, 2)",167,1,False,0.0,1,0,0,0.0,False,True,-0.1,0.1,-1.0,-0.2,0.16460303801054646,0.3574068050542389,0,True,True,0.28518638989152223,0.27934161742874714,0,False,True,0.44131676514250573,0.3916955986623289,0,True,True,024
167,"{'sd': 0.37, 'mean': 0.3}",0.3,3,1.0160210132598877,1,"(1, 3)",168,1,False,0.0,0,1,1,1.0,True,True,0.3,0.3,1.0,0.4,0.015894031284822602,0.7369463727310316,1,True,True,0.47389274546206317,0.6692736357939799,1,True,True,0.33854727158795983,0.8083525901114329,1,True,True,024
168,"{'sd': 0.37, 'mean': 0.3}",-0.3,1,0.9061050415039062,1,"(1, 3)",169,1,False,0.0,1,0,0,1.0,False,True,-0.3,0.3,-1.0,-0.6,-0.09860003980987651,0.221439622377826,0,True,True,0.557120755244348,0.3010356460763939,0,True,True,0.39792870784721224,0.19854223211145114,0,True,True,024
169,"{'sd': 0.37, 'mean': 0.3}",0.1,0,0.9020540714263916,1,"(0, 2)",170,1,False,0.0,1,0,0,0.0,False,True,0.1,0.1,1.0,0.4,-0.10308081456721907,0.4740777768269197,0,False,True,0.05184444634616059,0.462105256932953,0,False,True,0.07578948613409398,0.6235710566026291,1,True,False,024
170,"{'sd': 0.37, 'mean': 0.3}",0.3,2,0.8270680904388428,1,"(0, 2)",171,1,False,0.0,0,1,1,1.0,True,True,0.3,0.3,1.0,0.19999999999999998,-0.18986825308068464,0.768146701574236,1,True,True,0.5362934031484721,0.788922824297403,1,True,True,0.577845648594806,0.8083525901114329,1,False,True,024
171,"{'sd': 0.37, 'mean': 0.3}",0.3,2,0.6618130207061768,1,"(0, 2)",172,1,True,0.0,0,1,1,0.0,True,True,0.3,0.3,1.0,0.0,-0.41277220900370765,0.8352975776190242,1,False,True,0.6705951552380485,0.9194405356183027,1,False,True,0.8388810712366055,0.8083525901114329,1,False,True,024
172,"{'sd': 0.37, 'mean': 0.3}",0.1,3,1.0568020343780518,1,"(0, 3)",173,1,False,0.0,0,1,1,0.0,True,True,0.1,0.1,1.0,-0.19999999999999998,0.05524739926013222,0.6878077553360997,1,False,True,0.37561551067219945,0.8928245280167747,1,False,True,0.7856490560335494,0.6235710566026291,1,False,True,024
173,"{'sd': 0.37, 'mean': 0.3}",0.7,2,1.4177830219268799,1,"(1, 2)",174,1,False,0.0,0,1,1,0.0,True,True,0.7,0.7,1.0,0.6,0.3490943994248313,0.9658989045676928,1,False,True,0.9317978091353856,0.9913948907732991,1,False,True,0.9827897815465982,0.963652584628436,1,False,True,024
174,"{'sd': 0.37, 'mean': -0.3}",-0.1,1,1.1409862041473389,0,"(1, 2)",175,0,False,1.0,1,0,0,1.0,True,True,-0.1,0.1,-1.0,-0.7999999999999999,0.1318929797878573,0.5122181829620039,1,False,False,0.024436365924007886,0.8409682140052757,1,False,False,0.6819364280105513,0.3916955986623289,0,True,True,024
175,"{'sd': 0.37, 'mean': -0.3}",-0.5,0,0.829369068145752,0,"(0, 2)",176,0,False,0.0,1,0,0,0.0,True,True,-0.5,0.5,-1.0,-0.4,-0.18709002611928052,0.07257101131480163,0,True,True,0.8548579773703967,0.2416760464640701,0,True,True,0.5166479070718598,0.08619644561471856,0,False,True,024
176,"{'sd': 0.37, 'mean': -0.3}",-0.5,0,0.6089248657226562,0,"(0, 2)",177,0,True,0.0,1,0,0,0.0,True,True,-0.5,0.5,-1.0,0.0,-0.49606039208094777,0.03926274178965648,0,False,True,0.921474516420687,0.03783398402028658,0,False,True,0.9243320319594268,0.08619644561471856,0,False,True,024
177,"{'sd': 0.37, 'mean': -0.3}",-0.5,0,0.7351710796356201,0,"(0, 3)",178,0,True,0.0,1,0,0,0.0,True,True,-0.5,0.5,-1.0,0.0,-0.3076520454450274,0.03731012671174696,0,False,True,0.9253797465765061,0.014121601713390282,0,False,True,0.9717567965732195,0.08619644561471856,0,False,True,024
178,"{'sd': 0.37, 'mean': -0.3}",-0.3,0,0.48487091064453125,0,"(0, 3)",179,0,True,0.0,1,0,0,0.0,True,True,-0.3,0.3,-1.0,0.2,-0.7238725870919998,0.09211766523972646,0,False,True,0.815764669520547,0.030577289875034868,0,False,True,0.9388454202499302,0.19854223211145114,0,False,True,024
179,"{'sd': 0.37, 'mean': -0.3}",-0.3,0,0.4339408874511719,0,"(0, 3)",180,0,True,0.0,1,0,0,0.0,True,True,-0.3,0.3,-1.0,0.0,-0.8348469581879012,0.09964797618559258,0,False,True,0.8007040476288149,0.034497998735614786,0,False,True,0.9310040025287705,0.19854223211145114,0,False,True,024
180,"{'sd': 0.37, 'mean': -0.3}",-0.1,0,0.44501495361328125,0,"(0, 3)",181,0,True,0.0,1,0,0,0.0,True,True,-0.1,0.1,-1.0,0.19999999999999998,-0.8096473937551348,0.22545790270411595,0,False,True,0.5490841945917682,0.08718895957449163,0,False,True,0.8256220808510167,0.3916955986623289,0,False,True,024
181,"{'sd': 0.37, 'mean': 0.3}",0.7,3,0.8788669109344482,1,"(1, 3)",182,1,False,1.0,0,1,1,1.0,True,True,0.7,0.7,1.0,0.7999999999999999,-0.12912180239144475,0.9355399944308096,1,True,True,0.8710799888616192,0.8455494439061221,1,True,True,0.6910988878122442,0.963652584628436,1,True,True,024
182,"{'sd': 0.37, 'mean': -0.3}",-1.0,2,1.2003381252288818,0,"(0, 2)",183,0,False,1.0,0,1,1,0.0,False,True,-1.0,1.0,-1.0,-1.7,0.18260328812802332,0.012377182564132092,0,True,False,0.9752456348717358,0.027074655896389722,0,True,False,0.9458506882072205,0.008002150533589058,0,True,False,024
183,"{'sd': 0.37, 'mean': 0.3}",0.1,3,1.1363651752471924,1,"(1, 3)",184,1,False,1.0,0,1,1,0.0,True,True,0.1,0.1,1.0,1.1,0.12783472572649723,0.39454566893818094,0,False,False,0.21090866212363812,0.1889029019448828,0,False,False,0.6221941961102344,0.6235710566026291,1,True,True,024
184,"{'sd': 0.37, 'mean': 0.3}",0.7,2,0.7296099662780762,1,"(1, 2)",185,1,False,0.0,0,1,1,0.0,True,True,0.7,0.7,1.0,0.6,-0.3152451803947025,0.9489239128322539,1,True,True,0.8978478256645077,0.8993996774475598,1,True,True,0.7987993548951196,0.963652584628436,1,False,True,024
185,"{'sd': 0.37, 'mean': 0.3}",-0.1,0,0.9328229427337646,1,"(1, 2)",186,1,False,0.0,0,0,0,1.0,False,False,-0.1,0.1,-1.0,-0.7999999999999999,-0.06953986813330981,0.5054162600372373,1,False,False,0.01083252007447455,0.7434121710475138,1,False,False,0.48682434209502756,0.3916955986623289,0,True,True,024
186,"{'sd': 0.37, 'mean': 0.3}",0.1,2,0.8757410049438477,1,"(1, 3)",187,1,False,0.0,0,0,1,1.0,False,False,0.1,0.1,1.0,0.2,-0.13268488821752739,0.5764293192940372,1,False,True,0.15285863858807436,0.7897088181993568,1,False,True,0.5794176363987136,0.6235710566026291,1,True,True,024
187,"{'sd': 0.37, 'mean': -0.3}",-0.9,0,0.8461399078369141,0,"(0, 2)",188,0,False,1.0,1,0,0,1.0,True,True,-0.9,0.9,-1.0,-1.0,-0.16707055735521453,0.011915982109165044,0,True,True,0.9761680357816699,0.034742244750983406,0,True,True,0.9305155104980332,0.013085899476143139,0,True,True,024
188,"{'sd': 0.37, 'mean': -0.3}",-0.3,1,0.4748189449310303,0,"(1, 2)",189,0,False,0.0,1,0,0,0.0,True,True,-0.3,0.3,-1.0,0.6000000000000001,-0.744821716176951,0.08873656711995302,0,False,True,0.8225268657600939,0.03550391966111645,0,False,True,0.9289921606777671,0.19854223211145114,0,False,True,024
189,"{'sd': 0.37, 'mean': -0.3}",-0.7,0,0.8207359313964844,0,"(0, 2)",190,0,False,0.0,1,0,0,0.0,True,True,-0.7,0.7,-1.0,-0.39999999999999997,-0.19755386390301566,0.015552400609526005,0,False,True,0.968895198780948,0.0052827324936443295,0,False,True,0.9894345350127114,0.0343281253064721,0,False,True,024
190,"{'sd': 0.37, 'mean': -0.3}",-0.5,1,0.6175141334533691,0,"(1, 2)",191,0,False,0.0,1,0,0,0.0,True,True,-0.5,0.5,-1.0,0.19999999999999996,-0.4820533225583415,0.03595764951423544,0,False,True,0.9280847009715292,0.011049322775079242,0,False,True,0.9779013544498415,0.08619644561471856,0,False,True,024
191,"{'sd': 0.37, 'mean': -0.3}",-0.7,0,0.6953611373901367,0,"(0, 2)",192,0,False,0.0,1,0,0,0.0,True,True,-0.7,0.7,-1.0,-0.19999999999999996,-0.3633239462301006,0.014320319190912435,0,False,True,0.9713593616181752,0.0043965256960064765,0,False,True,0.9912069486079871,0.0343281253064721,0,False,True,024
192,"{'sd': 0.37, 'mean': -0.3}",-0.3,1,1.08760404586792,0,"(1, 3)",193,0,False,0.0,1,0,0,0.0,True,True,-0.3,0.3,-1.0,0.39999999999999997,0.08397715376550798,0.08905385046044889,0,False,True,0.8218922990791022,0.02829968467723673,0,False,True,0.9434006306455265,0.19854223211145114,0,False,True,024
193,"{'sd': 0.37, 'mean': -0.3}",-0.5,1,0.5463311672210693,0,"(1, 3)",194,0,True,0.0,1,0,0,0.0,True,True,-0.5,0.5,-1.0,-0.2,-0.6045299537323319,0.04025258135909156,0,False,True,0.9194948372818169,0.013204889743715729,0,False,True,0.9735902205125685,0.08619644561471856,0,False,True,024
194,"{'sd': 0.37, 'mean': -0.3}",-0.5,0,0.501370906829834,0,"(0, 3)",195,0,False,0.0,1,0,0,0.0,True,True,-0.5,0.5,-1.0,0.0,-0.6904091188148803,0.037367256187282004,0,False,True,0.925265487625436,0.011782249062345967,0,False,True,0.976435501875308,0.08619644561471856,0,False,True,024
195,"{'sd': 0.37, 'mean': -0.3}",-0.7,1,0.6914768218994141,0,"(1, 3)",196,0,False,0.0,1,0,0,0.0,True,True,-0.7,0.7,-1.0,-0.19999999999999996,-0.3689256470227228,0.014352355438180054,0,False,True,0.9712952891236399,0.004422543962036774,0,False,True,0.9911549120759264,0.0343281253064721,0,False,True,024
196,"{'sd': 0.37, 'mean': 0.3}",0.3,2,1.3516061305999756,1,"(0, 2)",197,1,False,1.0,0,1,1,1.0,True,True,0.3,0.3,1.0,1.0,0.30129361165710405,0.624708276668923,1,True,True,0.24941655333784607,0.33154509522421305,0,False,False,0.3369098095515739,0.8083525901114329,1,True,True,024
197,"{'sd': 0.37, 'mean': 0.3}",-0.1,1,1.3770661354064941,1,"(1, 2)",198,1,False,0.0,1,0,0,1.0,False,True,-0.1,0.1,-1.0,-0.4,0.31995524721082347,0.38566921537638216,0,True,True,0.22866156924723569,0.2708256931645893,0,False,True,0.45834861367082136,0.3916955986623289,0,True,True,024
198,"{'sd': 0.37, 'mean': 0.3}",0.1,3,0.9013090133666992,1,"(1, 3)",199,1,False,0.0,0,1,1,1.0,True,True,0.1,0.1,1.0,0.2,-0.1039071130629208,0.5340353961100807,1,True,True,0.06807079222016132,0.4351572013509287,0,False,False,0.12968559729814255,0.6235710566026291,1,True,True,024
199,"{'sd': 0.37, 'mean': 0.3}",0.7,2,0.8286011219024658,1,"(0, 2)",200,1,False,0.0,0,1,1,0.0,True,True,0.7,0.7,1.0,0.6,-0.1880163953662236,0.9577904854614607,1,False,True,0.9155809709229215,0.9556487785851147,1,True,True,0.9112975571702293,0.963652584628436,1,False,True,024
200,"{'sd': 0.37, 'mean': 0.3}",0.3,2,0.6085431575775146,1,"(0, 3)",201,1,True,0.0,0,0,1,0.0,False,False,0.3,0.3,1.0,-0.39999999999999997,-0.49668744453792163,0.8716227119696031,1,False,True,0.7432454239392061,0.9637208592465334,1,False,True,0.9274417184930668,0.8083525901114329,1,False,True,024
201,"{'sd': 0.37, 'mean': 0.3}",0.3,3,0.5645310878753662,1,"(0, 3)",202,1,False,0.0,0,1,1,0.0,True,True,0.3,0.3,1.0,0.0,-0.5717598253846802,0.8557037164353501,1,False,True,0.7114074328707003,0.9656117538134272,1,False,True,0.9312235076268545,0.8083525901114329,1,False,True,024
202,"{'sd': 0.37, 'mean': 0.3}",0.5,2,0.5380830764770508,1,"(0, 2)",203,1,False,0.0,0,1,1,0.0,True,True,0.5,0.5,1.0,0.2,-0.6197423134978792,0.9358303083753823,1,False,True,0.8716606167507646,0.9862472830803785,1,False,True,0.9724945661607569,0.9140117289686287,1,False,True,024
203,"{'sd': 0.37, 'mean': 0.3}",0.9,3,0.5826969146728516,1,"(1, 3)",204,1,False,0.0,0,1,1,0.0,True,True,0.9,0.9,1.0,0.4,-0.5400880997281089,0.9902654491828766,1,False,True,0.9805308983657532,0.9980640434829375,1,False,True,0.9961280869658751,0.9849507989697606,1,False,True,024
204,"{'sd': 0.37, 'mean': 0.3}",0.1,2,1.3636350631713867,1,"(1, 2)",205,1,False,0.0,0,1,1,0.0,True,True,0.1,0.1,1.0,-0.8,0.31015397462906835,0.7375577347229789,1,False,True,0.47511546944595784,0.9350204895268363,1,False,True,0.8700409790536725,0.6235710566026291,1,False,True,024
205,"{'sd': 0.37, 'mean': 0.3}",-0.5,0,0.673267126083374,1,"(0, 2)",206,1,False,0.0,1,0,0,1.0,False,True,-0.5,0.5,-1.0,-0.6,-0.39561310968842106,0.09779646745534971,0,True,True,0.8044070650893006,0.3422562415707291,0,True,True,0.3154875168585418,0.08619644561471856,0,True,True,024
206,"{'sd': 0.37, 'mean': 0.3}",0.3,3,0.9668779373168945,1,"(1, 3)",207,1,False,0.0,0,1,1,1.0,True,True,0.3,0.3,1.0,0.8,-0.03368301971046742,0.6553193369740263,1,True,True,0.31063867394805267,0.7162015337003493,1,True,True,0.43240306740069867,0.8083525901114329,1,True,True,024
207,"{'sd': 0.37, 'mean': -0.3}",-0.1,0,0.7620358467102051,0,"(0, 2)",208,0,False,1.0,1,0,0,1.0,True,True,-0.1,0.1,-1.0,-0.4,-0.27176168147519625,0.3962084401924884,0,True,True,0.20758311961502318,0.5690780118069453,1,False,False,0.13815602361389057,0.3916955986623289,0,True,True,024
208,"{'sd': 0.37, 'mean': -0.3}",0.1,1,0.7102479934692383,0,"(1, 2)",209,0,False,0.0,1,0,0,0.0,True,True,0.1,0.1,1.0,0.2,-0.3421410833567395,0.5378105490930871,1,True,False,0.07562109818617424,0.6738701069189106,1,False,False,0.34774021383782117,0.6235710566026291,1,True,False,024
209,"{'sd': 0.37, 'mean': -0.3}",-0.1,1,1.0549259185791016,0,"(1, 3)",210,0,True,0.0,1,0,0,0.0,True,True,-0.1,0.1,-1.0,-0.2,0.053470545106233565,0.3565414286304258,0,True,True,0.28691714273914837,0.5321302209676023,1,False,False,0.06426044193520464,0.3916955986623289,0,True,True,024
210,"{'sd': 0.37, 'mean': -0.3}",-0.5,1,0.7226839065551758,0,"(1, 2)",211,0,True,0.0,1,0,0,0.0,True,True,-0.5,0.5,-1.0,-0.4,-0.32478334944097437,0.0588881341938865,0,False,True,0.882223731612227,0.09461741386999875,0,True,True,0.8107651722600024,0.08619644561471856,0,False,True,024
211,"{'sd': 0.37, 'mean': -0.3}",-0.7,1,0.7083451747894287,0,"(1, 3)",212,0,True,0.0,1,0,0,0.0,True,True,-0.7,0.7,-1.0,-0.19999999999999996,-0.34482376908168116,0.014847298490254936,0,False,True,0.9703054030194901,0.00759080337138493,0,False,True,0.9848183932572301,0.0343281253064721,0,False,True,024
212,"{'sd': 0.37, 'mean': -0.3}",-0.1,0,0.7208259105682373,0,"(0, 2)",213,0,False,0.0,1,0,0,0.0,True,True,-0.1,0.1,-1.0,0.6,-0.32735762637482163,0.20275808435011153,0,False,True,0.5944838312997769,0.07214429186761981,0,False,True,0.8557114162647603,0.3916955986623289,0,False,True,024
213,"{'sd': 0.37, 'mean': -0.3}",-0.7,1,0.5665719509124756,0,"(1, 2)",214,0,False,0.0,1,0,0,0.0,True,True,-0.7,0.7,-1.0,-0.6,-0.568151197024869,0.0184638754306992,0,False,True,0.9630722491386016,0.006684165963986776,0,False,True,0.9866316680720264,0.0343281253064721,0,False,True,024
214,"{'sd': 0.37, 'mean': 0.3}",0.9,2,0.7322368621826172,1,"(0, 2)",215,1,False,1.0,0,1,1,1.0,True,True,0.9,0.9,1.0,1.6,-0.31165123514556997,0.9629664169258831,1,True,True,0.9259328338517663,0.8869254949862002,1,True,True,0.7738509899724004,0.9849507989697606,1,True,True,024
215,"{'sd': 0.37, 'mean': 0.3}",-0.3,0,0.7093198299407959,1,"(0, 3)",216,1,False,0.0,1,0,0,1.0,False,True,-0.3,0.3,-1.0,-1.2,-0.3434487541075125,0.2867795497007261,0,True,True,0.4264409005985478,0.510776242000016,1,False,False,0.02155248400003207,0.19854223211145114,0,True,True,024
216,"{'sd': 0.37, 'mean': 0.3}",0.7,2,1.331157922744751,1,"(0, 2)",217,1,False,0.0,0,1,1,1.0,True,True,0.7,0.7,1.0,1.0,0.2860491820701866,0.9407902433128308,1,True,True,0.8815804866256616,0.9648364636653507,1,False,True,0.9296729273307014,0.963652584628436,1,True,True,024
217,"{'sd': 0.37, 'mean': 0.3}",0.5,3,0.8416979312896729,1,"(1, 3)",218,1,False,0.0,0,1,1,0.0,True,True,0.5,0.5,1.0,-0.19999999999999996,-0.1723340805439453,0.9433492970830389,1,False,True,0.8866985941660779,0.9861727246349827,1,False,True,0.9723454492699655,0.9140117289686287,1,False,True,024
218,"{'sd': 0.37, 'mean': 0.3}",0.5,2,0.6578159332275391,1,"(0, 2)",219,1,False,0.0,0,1,1,0.0,True,True,0.5,0.5,1.0,0.0,-0.41883012352670174,0.9435664490389553,1,False,True,0.8871328980779105,0.9881906912791776,1,False,True,0.9763813825583552,0.9140117289686287,1,False,True,024
219,"{'sd': 0.37, 'mean': 0.3}",-0.1,1,0.8483271598815918,1,"(1, 3)",220,1,False,0.0,1,0,0,1.0,False,True,-0.1,0.1,-1.0,-0.6,-0.16448891584543213,0.5032813747822527,1,False,False,0.00656274956450531,0.837445115729808,1,False,False,0.6748902314596159,0.3916955986623289,0,True,True,024
220,"{'sd': 0.37, 'mean': 0.3}",0.3,2,0.7039358615875244,1,"(1, 2)",221,1,False,0.0,0,1,1,1.0,True,True,0.3,0.3,1.0,0.4,-0.35106803267401016,0.7755089942181578,1,False,True,0.5510179884363156,0.9334514676332191,1,False,True,0.8669029352664381,0.8083525901114329,1,True,True,024
221,"{'sd': 0.37, 'mean': 0.3}",0.1,3,0.9861390590667725,1,"(1, 3)",222,1,False,0.0,0,1,1,0.0,True,True,0.1,0.1,1.0,-0.19999999999999998,-0.013957900787515451,0.6681863359140385,1,False,True,0.33637267182807706,0.9005073821956889,1,False,True,0.8010147643913779,0.6235710566026291,1,False,True,024
222,"{'sd': 0.37, 'mean': 0.3}",0.5,2,0.8501369953155518,1,"(0, 2)",223,1,False,0.0,0,1,1,0.0,True,True,0.5,0.5,1.0,0.4,-0.162357771524946,0.9169190121915984,1,False,True,0.8338380243831969,0.9796386463257749,1,False,True,0.9592772926515498,0.9140117289686287,1,False,True,024
223,"{'sd': 0.37, 'mean': 0.3}",1.0,2,0.6255040168762207,1,"(0, 2)",224,1,True,0.0,0,1,1,0.0,True,True,1.0,1.0,1.0,0.5,-0.46919752723132974,0.9935704542216808,1,False,True,0.9871409084433616,0.9986967009608512,1,False,True,0.9973934019217023,0.9903320857704108,1,False,True,024
224,"{'sd': 0.37, 'mean': -0.3}",0.1,3,1.0128660202026367,0,"(0, 3)",225,0,False,1.0,0,1,1,0.0,False,True,0.1,0.1,1.0,-0.9,0.01278395610735957,0.7386017333428881,1,False,True,0.4772034666857763,0.9353511696721802,1,False,True,0.8707023393443605,0.6235710566026291,1,False,True,024
225,"{'sd': 0.37, 'mean': 0.3}",0.7,2,0.7422330379486084,1,"(0, 2)",226,1,False,1.0,0,1,1,0.0,True,True,0.7,0.7,1.0,0.6,-0.2980920178073884,0.9682679568232244,1,False,True,0.9365359136464488,0.9932226444919623,1,False,True,0.9864452889839246,0.963652584628436,1,False,True,024
226,"{'sd': 0.37, 'mean': 0.3}",0.5,2,1.0056278705596924,1,"(1, 2)",227,1,True,0.0,0,1,1,0.0,True,True,0.5,0.5,1.0,-0.19999999999999996,0.005612093263548893,0.9456549009676365,1,False,True,0.891309801935273,0.9888423403894105,1,False,True,0.9776846807788211,0.9140117289686287,1,False,True,024
227,"{'sd': 0.37, 'mean': -0.3}",-0.3,1,0.8853850364685059,0,"(1, 3)",228,0,False,1.0,1,0,0,1.0,True,True,-0.3,0.3,-1.0,-0.8,-0.12173265913354264,0.2811452330774049,0,True,True,0.4377095338451902,0.6658261281184147,1,False,False,0.33165225623682937,0.19854223211145114,0,True,True,024
228,"{'sd': 0.37, 'mean': -0.3}",-0.5,0,0.7192411422729492,0,"(0, 2)",229,0,False,0.0,1,0,0,0.0,True,True,-0.5,0.5,-1.0,-0.2,-0.32955859185335595,0.05308960038762867,0,False,True,0.8938207992247427,0.13946321662673472,0,True,True,0.7210735667465306,0.08619644561471856,0,False,True,024
229,"{'sd': 0.37, 'mean': -0.3}",0.9,3,1.2259490489959717,0,"(0, 3)",230,0,False,0.0,0,1,1,1.0,False,True,0.9,0.9,1.0,1.4,0.2037152779195766,0.9649030818434712,1,True,True,0.9298061636869424,0.9465002275892118,1,True,True,0.8930004551784236,0.9849507989697606,1,True,True,024
230,"{'sd': 0.37, 'mean': -0.3}",-0.1,0,1.3880510330200195,0,"(0, 3)",231,0,False,0.0,1,0,0,1.0,True,True,-0.1,0.1,-1.0,-1.0,0.3279006287142015,0.5118175679445851,1,False,False,0.02363513588917021,0.7924449821436768,1,False,False,0.5848899642873535,0.3916955986623289,0,True,True,024
231,"{'sd': 0.37, 'mean': -0.3}",-0.1,0,0.8164730072021484,0,"(0, 2)",232,0,True,0.0,1,0,0,0.0,True,True,-0.1,0.1,-1.0,0.0,-0.20276142627038138,0.34804859325363224,0,True,True,0.3039028134927355,0.6386537945987046,1,False,False,0.2773075891974093,0.3916955986623289,0,False,True,024
232,"{'sd': 0.37, 'mean': -0.3}",-0.1,0,0.7020869255065918,0,"(0, 2)",233,0,True,0.0,1,0,0,0.0,True,True,-0.1,0.1,-1.0,0.0,-0.3536980571141058,0.29672948248397313,0,False,True,0.40654103503205374,0.5022566002374994,1,False,False,0.004513200474998813,0.3916955986623289,0,False,True,024
233,"{'sd': 0.37, 'mean': 0.3}",-0.3,1,0.9033989906311035,1,"(1, 2)",234,1,False,1.0,1,0,0,0.0,False,True,-0.3,0.3,-1.0,-0.19999999999999998,-0.1015909730623421,0.13092125236003477,0,False,True,0.7381574952799305,0.19968889676450063,0,True,True,0.6006222064709987,0.19854223211145114,0,False,True,024
234,"{'sd': 0.37, 'mean': 0.3}",0.9,3,0.9341108798980713,1,"(0, 3)",235,1,False,0.0,0,1,1,1.0,True,True,0.9,0.9,1.0,1.2,-0.06816013270507885,0.9688036415976019,1,True,True,0.9376072831952038,0.9584847139820726,1,True,True,0.9169694279641452,0.9849507989697606,1,True,True,024
235,"{'sd': 0.37, 'mean': 0.3}",0.5,3,1.2828640937805176,1,"(1, 2)",236,1,True,0.0,0,0,1,0.0,False,False,0.5,0.5,1.0,-0.4,0.24909515155855055,0.9456992847759496,1,False,True,0.8913985695518991,0.9855583081028849,1,False,True,0.9711166162057698,0.9140117289686287,1,False,True,024
236,"{'sd': 0.37, 'mean': 0.3}",-0.1,0,1.25996994972229,1,"(0, 3)",237,1,False,0.0,1,0,0,1.0,False,True,-0.1,0.1,-1.0,-0.6,0.2310878712522306,0.5041306057311616,1,False,False,0.008261211462323281,0.8345577474621858,1,False,False,0.6691154949243716,0.3916955986623289,0,True,True,024
237,"{'sd': 0.37, 'mean': -0.3}",-0.1,1,0.9255828857421875,0,"(1, 3)",238,0,False,1.0,1,0,0,0.0,True,True,-0.1,0.1,-1.0,0.0,-0.07733159318049539,0.34555586865082044,0,True,True,0.3088882626983591,0.678858273837175,1,False,False,0.35771654767435,0.3916955986623289,0,False,True,024
238,"{'sd': 0.37, 'mean': 0.3}",0.3,3,0.719635009765625,1,"(0, 3)",239,1,False,1.0,0,1,1,1.0,True,True,0.3,0.3,1.0,0.4,-0.3290111263860116,0.7336066643191874,1,True,True,0.46721332863837484,0.8834471688544644,1,False,True,0.7668943377089288,0.8083525901114329,1,True,True,024
239,"{'sd': 0.37, 'mean': 0.3}",0.1,2,0.8972799777984619,1,"(0, 2)",240,1,False,0.0,0,1,1,0.0,True,True,0.1,0.1,1.0,-0.19999999999999998,-0.10838733875917643,0.654289254690045,1,False,True,0.3085785093800899,0.8727500406494314,1,False,True,0.7455000812988628,0.6235710566026291,1,False,True,024
240,"{'sd': 0.37, 'mean': 0.3}",0.5,3,0.8796029090881348,1,"(1, 3)",241,1,False,0.0,0,1,1,0.0,True,True,0.5,0.5,1.0,0.4,-0.12828471302171718,0.9153701488801096,1,False,True,0.8307402977602192,0.9765896563189006,1,False,True,0.9531793126378012,0.9140117289686287,1,False,True,024
241,"{'sd': 0.37, 'mean': 0.3}",0.1,3,1.1806199550628662,1,"(1, 3)",242,1,True,0.0,0,1,1,0.0,True,True,0.1,0.1,1.0,-0.4,0.16603968615735312,0.7137104823399798,1,False,True,0.4274209646799596,0.923713897687166,1,False,True,0.8474277953743321,0.6235710566026291,1,False,True,024
242,"{'sd': 0.37, 'mean': 0.3}",0.7,2,0.661592960357666,1,"(0, 2)",243,1,False,0.0,0,1,1,0.0,True,True,0.7,0.7,1.0,0.6,-0.4131047756592732,0.9671242371110748,1,False,True,0.9342484742221495,0.9927365235557419,1,False,True,0.9854730471114839,0.963652584628436,1,False,True,024
243,"{'sd': 0.37, 'mean': -0.3}",-0.5,1,1.0317161083221436,0,"(1, 3)",244,0,False,1.0,1,0,0,1.0,True,True,-0.5,0.5,-1.0,-1.2,0.031223540380364727,0.13354869991350893,0,True,True,0.7329026001729821,0.4392383516206261,0,True,True,0.12152329675874785,0.08619644561471856,0,True,True,024
244,"{'sd': 0.37, 'mean': 0.3}",-0.1,0,1.0332770347595215,1,"(0, 2)",245,1,False,1.0,1,0,0,0.0,False,True,-0.1,0.1,-1.0,0.4,0.0327353388479804,0.23475465512818264,0,False,True,0.5304906897436348,0.3465107947413102,0,False,True,0.3069784105173796,0.3916955986623289,0,False,True,024
245,"{'sd': 0.37, 'mean': -0.3}",0.3,3,1.1941158771514893,0,"(1, 2)",246,0,False,1.0,0,0,1,1.0,False,False,0.3,0.3,1.0,0.4,0.17740605980201912,0.7007005564221723,1,True,True,0.40140111284434465,0.7191283631758499,1,True,True,0.4382567263516999,0.8083525901114329,1,True,True,024
246,"{'sd': 0.37, 'mean': -0.3}",0.1,1,1.3107149600982666,0,"(1, 2)",247,0,False,0.0,1,0,0,1.0,True,True,0.1,0.1,1.0,-0.19999999999999998,0.270572759401577,0.6432905269098625,1,False,False,0.2865810538197251,0.774450727530565,1,False,False,0.54890145506113,0.6235710566026291,1,False,False,024
247,"{'sd': 0.37, 'mean': -0.3}",-0.7,1,0.8104360103607178,0,"(1, 3)",248,0,True,0.0,1,0,0,0.0,True,True,-0.7,0.7,-1.0,-0.7999999999999999,-0.21018289174278185,0.034377354768598115,0,True,True,0.9312452904628038,0.08323510793153487,0,True,True,0.8335297841369302,0.0343281253064721,0,True,True,024
248,"{'sd': 0.37, 'mean': -0.3}",-0.3,1,0.7124769687652588,0,"(1, 2)",249,0,True,0.0,1,0,0,0.0,True,True,-0.3,0.3,-1.0,0.39999999999999997,-0.3390076919017683,0.09172376900369754,0,False,True,0.8165524619926049,0.047638980757148466,0,False,True,0.9047220384857031,0.19854223211145114,0,False,True,024
249,"{'sd': 0.37, 'mean': -0.3}",-1.0,1,0.5472099781036377,0,"(1, 3)",250,0,True,0.0,1,0,0,0.0,True,True,-1.0,1.0,-1.0,-0.7,-0.6029226780015298,0.0035888123271505825,0,False,True,0.9928223753456988,0.0013075973520307723,0,False,True,0.9973848052959384,0.008002150533589058,0,False,True,024
250,"{'sd': 0.37, 'mean': -0.3}",-0.3,0,0.6819920539855957,0,"(0, 3)",251,0,False,0.0,1,0,0,0.0,True,True,-0.3,0.3,-1.0,0.7,-0.38273727225406257,0.08764222394616832,0,False,True,0.8247155521076633,0.027582280576868224,0,False,True,0.9448354388462635,0.19854223211145114,0,False,True,024
251,"{'sd': 0.37, 'mean': -0.3}",-0.5,0,0.36127495765686035,0,"(0, 3)",252,0,True,0.0,1,0,0,0.0,True,True,-0.5,0.5,-1.0,-0.2,-1.018115955002482,0.040167183747556436,0,False,True,0.9196656325048871,0.013136486685992751,0,False,True,0.9737270266280145,0.08619644561471856,0,False,True,024
252,"{'sd': 0.37, 'mean': -0.3}",-0.1,1,0.687877893447876,0,"(1, 3)",253,0,False,0.0,1,0,0,0.0,True,True,-0.1,0.1,-1.0,0.4,-0.3741439372539815,0.2094542848943072,0,False,True,0.5810914302113857,0.07522548902692479,0,False,True,0.8495490219461505,0.3916955986623289,0,False,True,024
253,"{'sd': 0.37, 'mean': -0.3}",-0.5,1,0.8330910205841064,0,"(1, 2)",254,0,True,0.0,1,0,0,0.0,True,True,-0.5,0.5,-1.0,-0.4,-0.182612374376361,0.04799830448674982,0,False,True,0.9040033910265004,0.017859338800981717,0,False,True,0.9642813223980365,0.08619644561471856,0,False,True,024
254,"{'sd': 0.37, 'mean': -0.3}",-0.3,0,0.6197900772094727,0,"(0, 3)",255,0,False,0.0,1,0,0,0.0,True,True,-0.3,0.3,-1.0,0.2,-0.47837444342190394,0.09356082759428164,0,False,True,0.8128783448114367,0.031460402081385924,0,False,True,0.9370791958372282,0.19854223211145114,0,False,True,024
255,"{'sd': 0.37, 'mean': -0.3}",-0.3,1,0.6126739978790283,0,"(1, 3)",256,0,False,0.0,1,0,0,0.0,True,True,-0.3,0.3,-1.0,0.0,-0.48992229873597604,0.09985070269196826,0,False,True,0.8002985946160635,0.034710824519310464,0,False,True,0.9305783509613791,0.19854223211145114,0,False,True,024
256,"{'sd': 0.37, 'mean': -0.3}",-0.3,0,0.8606798648834229,0,"(0, 3)",257,0,False,0.0,1,0,0,0.0,True,True,-0.3,0.3,-1.0,0.0,-0.15003266148506786,0.10073699362084558,0,False,True,0.7985260127583088,0.03549631021502541,0,False,True,0.9290073795699492,0.19854223211145114,0,False,True,024
257,"{'sd': 0.37, 'mean': 0.3}",0.7,3,1.0217418670654297,1,"(0, 3)",258,1,False,1.0,0,1,1,1.0,True,True,0.7,0.7,1.0,1.0,0.021508883621839767,0.9231089312487352,1,True,True,0.8462178624974703,0.7984119091369951,1,True,True,0.5968238182739902,0.963652584628436,1,True,True,024
258,"{'sd': 0.37, 'mean': 0.3}",0.7,2,0.8597691059112549,1,"(1, 2)",259,1,False,0.0,0,1,1,0.0,True,True,0.7,0.7,1.0,0.0,-0.15109140728073422,0.975838155198121,1,False,True,0.951676310396242,0.9867673745986343,1,False,True,0.9735347491972686,0.963652584628436,1,False,True,024
259,"{'sd': 0.37, 'mean': 0.3}",0.9,2,0.7554328441619873,1,"(0, 2)",260,1,True,0.0,0,1,1,0.0,True,True,0.9,0.9,1.0,0.20000000000000007,-0.28046439048298416,0.9908643240257285,1,False,True,0.9817286480514571,0.9980720483228592,1,False,True,0.9961440966457185,0.9849507989697606,1,False,True,024
260,"{'sd': 0.37, 'mean': -0.3}",0.3,2,0.7018182277679443,0,"(0, 2)",261,0,True,1.0,0,1,1,0.0,False,True,0.3,0.3,1.0,-0.6000000000000001,-0.35408084328922834,0.8774927735463522,1,False,True,0.7549855470927045,0.9734333571412594,1,False,True,0.9468667142825189,0.8083525901114329,1,False,True,024
261,"{'sd': 0.37, 'mean': -0.3}",-1.0,0,1.1739580631256104,0,"(0, 3)",262,0,False,0.0,1,0,0,1.0,True,True,-1.0,1.0,-1.0,-1.3,0.16038099940979864,0.01131504169659983,0,True,True,0.9773699166068004,0.054455734381429054,0,True,True,0.8910885312371419,0.008002150533589058,0,True,True,024
262,"{'sd': 0.37, 'mean': -0.3}",0.3,3,1.4324331283569336,0,"(1, 3)",263,0,False,0.0,0,1,1,1.0,False,True,0.3,0.3,1.0,1.3,0.35937448674186506,0.6235471513481756,1,True,True,0.24709430269635124,0.41716493085007134,0,False,False,0.16567013829985733,0.8083525901114329,1,True,True,024
263,"{'sd': 0.37, 'mean': -0.3}",0.1,3,0.9835848808288574,0,"(1, 3)",264,0,True,0.0,0,1,1,0.0,False,True,0.1,0.1,1.0,-0.19999999999999998,-0.01655134001804193,0.6172034432594997,1,False,True,0.23440688651899944,0.5595253028465735,1,True,True,0.11905060569314707,0.6235710566026291,1,False,True,024
264,"{'sd': 0.37, 'mean': -0.3}",0.1,3,0.7202229499816895,0,"(1, 3)",265,0,True,0.0,0,1,1,0.0,False,True,0.1,0.1,1.0,0.0,-0.32819446215220843,0.6150396383326943,1,False,True,0.23007927666538852,0.6670736138171428,1,False,True,0.3341472276342856,0.6235710566026291,1,False,True,024
265,"{'sd': 0.37, 'mean': -0.3}",-0.3,0,0.6414260864257812,0,"(0, 2)",266,0,False,0.0,1,0,0,1.0,True,True,-0.3,0.3,-1.0,-0.4,-0.44406132147781563,0.19236176044410627,0,True,True,0.6152764791117875,0.2994489041674129,0,True,True,0.40110219166517425,0.19854223211145114,0,True,True,024
266,"{'sd': 0.37, 'mean': -0.3}",-0.7,1,0.7549648284912109,0,"(1, 3)",267,0,False,0.0,1,0,0,0.0,True,True,-0.7,0.7,-1.0,-0.39999999999999997,-0.28108411559806995,0.018183027730323525,0,False,True,0.9636339445393529,0.01800231429977575,0,False,True,0.9639953714004486,0.0343281253064721,0,False,True,024
267,"{'sd': 0.37, 'mean': -0.3}",-0.1,0,0.5973429679870605,0,"(0, 3)",268,0,False,0.0,1,0,0,0.0,True,True,-0.1,0.1,-1.0,0.6,-0.5152638448028254,0.20363635981770817,0,False,True,0.5927272803645837,0.07793728485884518,0,False,True,0.8441254302823096,0.3916955986623289,0,False,True,024
268,"{'sd': 0.37, 'mean': -0.3}",-0.3,0,0.5725948810577393,0,"(0, 3)",269,0,True,0.0,1,0,0,0.0,True,True,-0.3,0.3,-1.0,-0.19999999999999998,-0.5575768261804034,0.11603173978641527,0,False,True,0.7679365204271694,0.046274090927280076,0,False,True,0.9074518181454398,0.19854223211145114,0,False,True,024
269,"{'sd': 0.37, 'mean': -0.3}",-0.5,1,0.6533381938934326,0,"(1, 2)",270,0,False,0.0,1,0,0,0.0,True,True,-0.5,0.5,-1.0,-0.2,-0.4256603758205527,0.04190763955908689,0,False,True,0.9161847208818262,0.014945141996381209,0,False,True,0.9701097160072376,0.08619644561471856,0,False,True,024
270,"{'sd': 0.37, 'mean': -0.3}",-0.1,1,0.5180149078369141,0,"(1, 2)",271,0,True,0.0,1,0,0,0.0,True,True,-0.1,0.1,-1.0,0.4,-0.6577512575288368,0.20991709303676898,0,False,True,0.580165813926462,0.07623256770643057,0,False,True,0.8475348645871389,0.3916955986623289,0,False,True,024
271,"{'sd': 0.37, 'mean': -0.3}",-0.3,0,0.5811748504638672,0,"(0, 3)",272,0,False,0.0,1,0,0,0.0,True,True,-0.3,0.3,-1.0,-0.19999999999999998,-0.5427036199637116,0.1169998711525512,0,False,True,0.7660002576948977,0.04583700044716907,0,False,True,0.9083259991056618,0.19854223211145114,0,False,True,024
272,"{'sd': 0.37, 'mean': -0.3}",0.1,2,0.9377999305725098,0,"(1, 2)",273,0,False,0.0,0,1,1,1.0,False,True,0.1,0.1,1.0,0.4,-0.06421864635895311,0.4348089203415864,0,False,False,0.13038215931682717,0.20990283712142246,0,False,False,0.5801943257571551,0.6235710566026291,1,True,True,024
273,"{'sd': 0.37, 'mean': -0.3}",-0.3,1,0.9018170833587646,0,"(1, 3)",274,0,False,0.0,1,0,0,1.0,True,True,-0.3,0.3,-1.0,-0.4,-0.10334356955208789,0.15535928455826667,0,False,True,0.6892814308834667,0.0835078859697184,0,False,True,0.8329842280605632,0.19854223211145114,0,True,True,024
274,"{'sd': 0.37, 'mean': -0.3}",0.1,2,0.886836051940918,0,"(0, 3)",275,0,False,0.0,0,0,1,1.0,False,False,0.1,0.1,1.0,0.4,-0.12009514809596784,0.4493374491336247,0,False,False,0.10132510173275056,0.25094565033747296,0,False,False,0.4981086993250541,0.6235710566026291,1,True,True,024
275,"{'sd': 0.37, 'mean': 0.3}",-0.1,1,1.1674659252166748,1,"(1, 3)",276,1,False,1.0,1,0,0,1.0,False,True,-0.1,0.1,-1.0,-0.2,0.15483552402507803,0.32803236230169425,0,False,True,0.3439352753966115,0.21757114212399553,0,False,True,0.5648577157520089,0.3916955986623289,0,True,True,024
276,"{'sd': 0.37, 'mean': -0.3}",-0.3,0,0.959568977355957,0,"(0, 2)",277,0,False,1.0,1,0,0,0.0,True,True,-0.3,0.3,-1.0,-0.19999999999999998,-0.041271077263695326,0.13620151622503873,0,False,True,0.7275969675499225,0.08589975377008933,0,False,True,0.8282004924598213,0.19854223211145114,0,False,True,024
277,"{'sd': 0.37, 'mean': -0.3}",-0.5,0,0.6966099739074707,0,"(0, 2)",278,0,True,0.0,1,0,0,0.0,True,True,-0.5,0.5,-1.0,-0.2,-0.3615296031690013,0.04317429058180175,0,False,True,0.9136514188363964,0.018970103486734155,0,False,True,0.9620597930265317,0.08619644561471856,0,False,True,024
278,"{'sd': 0.37, 'mean': -0.3}",-0.3,1,0.7386660575866699,0,"(1, 2)",279,0,False,0.0,1,0,0,0.0,True,True,-0.3,0.3,-1.0,0.2,-0.30290934435019484,0.09290797768000975,0,False,True,0.8141840446399805,0.0317236775731094,0,False,True,0.9365526448537812,0.19854223211145114,0,False,True,024
279,"{'sd': 0.37, 'mean': -0.3}",-0.5,1,0.6645050048828125,0,"(1, 3)",280,0,True,0.0,1,0,0,0.0,True,True,-0.5,0.5,-1.0,-0.2,-0.4087128690546238,0.04048634295954713,0,False,True,0.9190273140809058,0.013532462873500767,0,False,True,0.9729350742529985,0.08619644561471856,0,False,True,024
280,"{'sd': 0.37, 'mean': -0.3}",-0.3,0,0.823307991027832,0,"(0, 2)",281,0,False,0.0,1,0,0,0.0,True,True,-0.3,0.3,-1.0,0.2,-0.19442491863008096,0.09254527461084089,0,False,True,0.8149094507783182,0.030438488793934487,0,False,True,0.939123022412131,0.19854223211145114,0,False,True,024
281,"{'sd': 0.37, 'mean': -0.3}",-0.3,1,0.9032001495361328,0,"(1, 3)",282,0,False,0.0,1,0,0,0.0,True,True,-0.3,0.3,-1.0,0.0,-0.1018111005841068,0.09970801981365394,0,False,True,0.8005839603726921,0.034464570973305145,0,False,True,0.9310708580533897,0.19854223211145114,0,False,True,024
282,"{'sd': 0.37, 'mean': -0.3}",0.3,2,0.8055229187011719,0,"(0, 2)",283,0,False,0.0,0,1,1,1.0,False,True,0.3,0.3,1.0,0.6,-0.2162636240061659,0.6559926485800941,1,True,True,0.3119852971601882,0.38481591963160855,0,False,False,0.2303681607367829,0.8083525901114329,1,True,True,024
283,"{'sd': 0.37, 'mean': -0.3}",0.5,3,0.7607018947601318,0,"(1, 2)",284,0,False,0.0,0,0,1,0.0,False,False,0.5,0.5,1.0,0.2,-0.2735137261707153,0.9155612033714898,1,False,True,0.8311224067429797,0.8799967929685988,1,True,True,0.7599935859371976,0.9140117289686287,1,False,True,024
284,"{'sd': 0.37, 'mean': -0.3}",-0.5,0,1.15647292137146,0,"(0, 3)",285,0,False,0.0,1,0,0,1.0,True,True,-0.5,0.5,-1.0,-1.0,0.1453747881233746,0.12434129025899734,0,True,True,0.7513174194820054,0.27734448921225985,0,True,True,0.4453110215754803,0.08619644561471856,0,True,True,024
285,"{'sd': 0.37, 'mean': -0.3}",-0.7,1,0.8936200141906738,0,"(1, 3)",286,0,False,0.0,1,0,0,0.0,True,True,-0.7,0.7,-1.0,-0.19999999999999996,-0.11247463421892578,0.016423139876665147,0,False,True,0.9671537202466697,0.016649769479791226,0,False,True,0.9667004610404175,0.0343281253064721,0,False,True,024
286,"{'sd': 0.37, 'mean': -0.3}",-0.5,1,1.104858160018921,0,"(1, 3)",287,0,True,0.0,1,0,0,0.0,True,True,-0.5,0.5,-1.0,0.19999999999999996,0.09971696475678567,0.03600678118743183,0,False,True,0.9279864376251363,0.01210387299716009,0,False,True,0.9757922540056798,0.08619644561471856,0,False,True,024
287,"{'sd': 0.37, 'mean': -0.3}",-0.7,0,0.785228967666626,0,"(0, 2)",288,0,False,0.0,1,0,0,0.0,True,True,-0.7,0.7,-1.0,-0.19999999999999996,-0.2417799251734374,0.014321435029284606,0,False,True,0.9713571299414308,0.0044339717040729875,0,False,True,0.991132056591854,0.0343281253064721,0,False,True,024
288,"{'sd': 0.37, 'mean': -0.3}",-0.9,1,0.6424989700317383,0,"(1, 2)",289,0,False,0.0,1,0,0,0.0,True,True,-0.9,0.9,-1.0,-0.20000000000000007,-0.4423900652774895,0.0052053054016795676,0,False,True,0.9895893891966409,0.001556905126856446,0,False,True,0.9968861897462871,0.013085899476143139,0,False,True,024
289,"{'sd': 0.37, 'mean': -0.3}",-0.3,0,0.6314229965209961,0,"(0, 2)",290,0,False,0.0,1,0,0,0.0,True,True,-0.3,0.3,-1.0,0.6000000000000001,-0.4597792820438292,0.08785411234276523,0,False,True,0.8242917753144695,0.027640075545893414,0,False,True,0.9447198489082131,0.19854223211145114,0,False,True,024
290,"{'sd': 0.37, 'mean': -0.3}",-0.1,0,0.6493549346923828,0,"(0, 3)",291,0,True,0.0,1,0,0,0.0,True,True,-0.1,0.1,-1.0,0.19999999999999998,-0.4317758170210444,0.22225379889467275,0,False,True,0.5554924022106544,0.08333166438500128,0,False,True,0.8333366712299974,0.3916955986623289,0,False,True,024
291,"{'sd': 0.37, 'mean': 0.3}",0.3,2,0.8891150951385498,1,"(0, 2)",292,1,False,1.0,0,1,1,1.0,True,True,0.3,0.3,1.0,0.4,-0.11752858600057448,0.6967859466095856,1,True,True,0.3935718932191712,0.4600922848826269,0,False,False,0.07981543023474624,0.8083525901114329,1,True,True,024
292,"{'sd': 0.37, 'mean': -0.3}",-0.5,1,0.9920248985290527,0,"(1, 2)",293,0,False,1.0,1,0,0,1.0,True,True,-0.5,0.5,-1.0,-0.8,-0.008007072688605142,0.09264450885807209,0,True,True,0.8147109822838559,0.07668091566462479,0,False,True,0.8466381686707505,0.08619644561471856,0,True,True,024
293,"{'sd': 0.37, 'mean': -0.3}",-0.3,1,0.6763160228729248,0,"(1, 2)",294,0,True,0.0,1,0,0,0.0,True,True,-0.3,0.3,-1.0,0.2,-0.3910948227213357,0.09972195691252289,0,False,True,0.8005560861749542,0.04595185849844871,0,False,True,0.9080962830031025,0.19854223211145114,0,False,True,024
294,"{'sd': 0.37, 'mean': 0.3}",0.7,2,1.019953966140747,1,"(1, 2)",295,1,False,1.0,0,1,1,1.0,True,True,0.7,0.7,1.0,1.0,0.019757495043173208,0.9229965287534225,1,True,True,0.8459930575068451,0.8097106435231715,1,True,True,0.6194212870463429,0.963652584628436,1,True,True,024
295,"{'sd': 0.37, 'mean': 0.3}",0.5,2,0.5094161033630371,1,"(1, 2)",296,1,True,0.0,0,1,1,0.0,True,True,0.5,0.5,1.0,-0.19999999999999996,-0.674490104523727,0.9418253213069231,1,False,True,0.8836506426138462,0.9690762871002433,1,False,True,0.9381525742004866,0.9140117289686287,1,False,True,024
296,"{'sd': 0.37, 'mean': 0.3}",-0.1,0,1.3759949207305908,1,"(0, 2)",297,1,False,0.0,1,0,0,1.0,False,True,-0.1,0.1,-1.0,-0.6,0.31917704817482645,0.5025887745040817,1,False,False,0.005177549008163362,0.8166214886288851,1,False,False,0.6332429772577701,0.3916955986623289,0,True,True,024
297,"{'sd': 0.37, 'mean': 0.3}",0.5,3,0.9418439865112305,1,"(0, 3)",298,1,False,0.0,0,1,1,1.0,True,True,0.5,0.5,1.0,0.6,-0.05991563753701342,0.8968758591752702,1,False,True,0.7937517183505405,0.9699429785249353,1,False,True,0.9398859570498705,0.9140117289686287,1,True,True,024
298,"{'sd': 0.37, 'mean': 0.3}",0.5,2,0.7816548347473145,1,"(0, 2)",299,1,False,0.0,0,1,1,0.0,True,True,0.5,0.5,1.0,0.0,-0.24634202366824873,0.9395426558608396,1,False,True,0.8790853117216793,0.9866620780750547,1,False,True,0.9733241561501094,0.9140117289686287,1,False,True,024
299,"{'sd': 0.37, 'mean': 0.3}",0.5,3,1.1341290473937988,1,"(1, 3)",300,1,False,0.0,0,1,1,0.0,True,True,0.5,0.5,1.0,0.0,0.1258649972382428,0.9432432482969534,1,False,True,0.8864864965939068,0.9882361623697895,1,False,True,0.976472324739579,0.9140117289686287,1,False,True,024
300,"{'sd': 0.37, 'mean': 0.3}",0.3,2,1.0209097862243652,1,"(1, 2)",301,1,False,0.0,0,1,1,0.0,True,True,0.3,0.3,1.0,-0.2,0.02069417702637245,0.8689996465083,1,False,True,0.7379992930165999,0.9712302293477719,1,False,True,0.9424604586955438,0.8083525901114329,1,False,True,024
301,"{'sd': 0.37, 'mean': 0.3}",0.7,3,0.8052821159362793,1,"(1, 3)",302,1,False,0.0,0,1,1,0.0,True,True,0.7,0.7,1.0,0.39999999999999997,-0.21656260837920713,0.9737703144238157,1,False,True,0.9475406288476313,0.9946593820594192,1,False,True,0.9893187641188383,0.963652584628436,1,False,True,024
302,"{'sd': 0.37, 'mean': 0.3}",0.3,2,0.8840591907501221,1,"(0, 2)",303,1,False,0.0,0,1,1,0.0,True,True,0.3,0.3,1.0,-0.39999999999999997,-0.12323126072394217,0.874474938016203,1,False,True,0.748949876032406,0.9726722046760299,1,False,True,0.9453444093520598,0.8083525901114329,1,False,True,024
303,"{'sd': 0.37, 'mean': 0.3}",0.5,3,0.9455130100250244,1,"(0, 3)",304,1,False,0.0,0,1,1,0.0,True,True,0.5,0.5,1.0,0.2,-0.05602763103643646,0.9375405918590385,1,False,True,0.875081183718077,0.9869219525391351,1,False,True,0.9738439050782701,0.9140117289686287,1,False,True,024
304,"{'sd': 0.37, 'mean': 0.3}",0.3,3,0.7523119449615479,1,"(0, 3)",305,1,True,0.0,0,1,1,0.0,True,True,0.3,0.3,1.0,-0.2,-0.28460422061891444,0.8679643940501212,1,False,True,0.7359287881002423,0.9709336797881963,1,False,True,0.9418673595763927,0.8083525901114329,1,False,True,024
305,"{'sd': 0.37, 'mean': 0.3}",-0.1,0,1.1495192050933838,1,"(0, 2)",306,1,False,0.0,1,0,0,1.0,False,True,-0.1,0.1,-1.0,-0.4,0.1393437724267995,0.47374736281890834,0,True,True,0.05250527436218333,0.818630581201555,1,False,False,0.6372611624031099,0.3916955986623289,0,True,True,024
306,"{'sd': 0.37, 'mean': 0.3}",1.0,3,0.8845438957214355,1,"(0, 3)",307,1,False,0.0,0,1,1,1.0,True,True,1.0,1.0,1.0,1.1,-0.12268313889021204,0.9877183272398181,1,True,True,0.9754366544796362,0.9968220688192952,1,False,True,0.9936441376385905,0.9903320857704108,1,True,True,024
307,"{'sd': 0.37, 'mean': 0.3}",0.7,2,0.7653090953826904,1,"(1, 2)",308,1,False,0.0,0,1,1,0.0,True,True,0.7,0.7,1.0,-0.30000000000000004,-0.2674754805084245,0.978162187680545,1,False,True,0.9563243753610899,0.9956305062324138,1,False,True,0.9912610124648276,0.963652584628436,1,False,True,024
308,"{'sd': 0.37, 'mean': 0.3}",0.7,2,0.6162080764770508,1,"(1, 2)",309,1,True,0.0,0,1,1,0.0,True,True,0.7,0.7,1.0,0.0,-0.4841705859969106,0.9778278591968138,1,False,True,0.9556557183936276,0.9955862314089056,1,False,True,0.9911724628178111,0.963652584628436,1,False,True,024
309,"{'sd': 0.37, 'mean': 0.3}",0.7,2,0.5401489734649658,1,"(1, 2)",310,1,True,0.0,0,1,1,0.0,True,True,0.7,0.7,1.0,0.0,-0.6159103006838467,0.977816104933059,1,False,True,0.9556322098661181,0.9955845845577396,1,False,True,0.9911691691154791,0.963652584628436,1,False,True,024
310,"{'sd': 0.37, 'mean': 0.3}",0.3,2,0.55607008934021,1,"(1, 2)",311,1,True,0.0,0,1,1,0.0,True,True,0.3,0.3,1.0,-0.39999999999999997,-0.5868609327120379,0.8751922808573572,1,False,True,0.7503845617147145,0.9728788986867816,1,False,True,0.9457577973735631,0.8083525901114329,1,False,True,024
311,"{'sd': 0.37, 'mean': 0.3}",0.3,3,0.9267840385437012,1,"(0, 3)",312,1,False,0.0,0,1,1,0.0,True,True,0.3,0.3,1.0,0.0,-0.0760347086873443,0.8563818380304964,1,False,True,0.7127636760609928,0.9677322385120308,1,False,True,0.9354644770240617,0.8083525901114329,1,False,True,024
312,"{'sd': 0.37, 'mean': 0.3}",0.3,2,0.6209728717803955,1,"(0, 2)",313,1,False,0.0,0,1,1,0.0,True,True,0.3,0.3,1.0,0.0,-0.4764678827365267,0.852789579260244,1,False,True,0.705579158520488,0.9665437806532278,1,False,True,0.9330875613064555,0.8083525901114329,1,False,True,024
313,"{'sd': 0.37, 'mean': 0.3}",0.7,2,0.5173518657684326,1,"(0, 2)",314,1,True,0.0,0,1,1,0.0,True,True,0.7,0.7,1.0,0.39999999999999997,-0.6590320445427204,0.9731277272604532,1,False,True,0.9462554545209063,0.9944768379033027,1,False,True,0.9889536758066053,0.963652584628436,1,False,True,024
314,"{'sd': 0.37, 'mean': 0.3}",0.5,3,0.5661129951477051,1,"(0, 3)",315,1,False,0.0,0,1,1,0.0,True,True,0.5,0.5,1.0,-0.19999999999999996,-0.5689615826338316,0.9460567749742818,1,False,True,0.8921135499485635,0.9889575013196713,1,False,True,0.9779150026393426,0.9140117289686287,1,False,True,024
315,"{'sd': 0.37, 'mean': 0.3}",0.1,2,0.8553881645202637,1,"(0, 2)",316,1,False,0.0,0,1,1,0.0,True,True,0.1,0.1,1.0,-0.4,-0.1561999194783352,0.7235253388643377,1,False,True,0.44705067772867535,0.9302453364017194,1,False,True,0.8604906728034387,0.6235710566026291,1,False,True,024
316,"{'sd': 0.37, 'mean': 0.3}",0.3,2,0.8399608135223389,1,"(0, 3)",317,1,True,0.0,0,0,1,0.0,False,False,0.3,0.3,1.0,0.19999999999999998,-0.17440003880159358,0.8260269269191195,1,False,True,0.652053853838239,0.9576325002510094,1,False,True,0.9152650005020189,0.8083525901114329,1,False,True,024
317,"{'sd': 0.37, 'mean': 0.3}",0.3,3,1.3481950759887695,1,"(1, 3)",318,1,False,0.0,0,1,1,0.0,True,True,0.3,0.3,1.0,0.0,0.2987667171450916,0.8468933227149426,1,False,True,0.6937866454298851,0.9641874660077716,1,False,True,0.9283749320155432,0.8083525901114329,1,False,True,024
318,"{'sd': 0.37, 'mean': 0.3}",-0.1,1,1.0889959335327148,1,"(1, 2)",319,1,False,0.0,1,0,0,1.0,False,True,-0.1,0.1,-1.0,-0.4,0.0852561098141131,0.46570825530707505,0,True,True,0.0685834893858499,0.8113480400591753,1,False,False,0.6226960801183505,0.3916955986623289,0,True,True,024
319,"{'sd': 0.37, 'mean': 0.3}",0.3,3,1.0386359691619873,1,"(1, 3)",320,1,False,0.0,0,1,1,1.0,True,True,0.3,0.3,1.0,0.4,0.03790828418155092,0.7660051274487382,1,True,True,0.5320102548974763,0.926043015459126,1,False,True,0.8520860309182521,0.8083525901114329,1,True,True,024
320,"{'sd': 0.37, 'mean': 0.3}",0.3,2,0.6680231094360352,1,"(1, 2)",321,1,False,0.0,0,1,1,0.0,True,True,0.3,0.3,1.0,0.0,-0.4034325110797588,0.8348593668399489,1,False,True,0.6697187336798978,0.9566046917772166,1,False,True,0.9132093835544333,0.8083525901114329,1,False,True,024
321,"{'sd': 0.37, 'mean': -0.3}",-0.7,1,1.0223519802093506,0,"(1, 3)",322,0,False,1.0,1,0,0,1.0,True,True,-0.7,0.7,-1.0,-1.0,0.022105835824256723,0.045115355272359874,0,True,True,0.9097692894552802,0.18389371837024887,0,True,True,0.6322125632595023,0.0343281253064721,0,True,True,024
322,"{'sd': 0.37, 'mean': -0.3}",0.1,2,1.1027259826660156,0,"(0, 2)",323,0,False,0.0,0,1,1,1.0,False,True,0.1,0.1,1.0,0.7999999999999999,0.09778528027447785,0.40724626673227143,0,False,False,0.18550746653545713,0.3535263833170997,0,False,False,0.29294723336580064,0.6235710566026291,1,True,True,024
323,"{'sd': 0.37, 'mean': -0.3}",-0.5,0,0.7490689754486084,0,"(0, 3)",324,0,False,0.0,1,0,0,1.0,True,True,-0.5,0.5,-1.0,-0.6,-0.2889242096533995,0.06307316644965917,0,False,True,0.8738536671006817,0.05538457223262722,0,False,True,0.8892308555347456,0.08619644561471856,0,True,True,024
324,"{'sd': 0.37, 'mean': -0.3}",-0.5,1,1.117722988128662,0,"(1, 2)",325,0,False,0.0,1,0,0,0.0,True,True,-0.5,0.5,-1.0,0.0,0.11129356954932579,0.03869953985054891,0,False,True,0.9226009202989022,0.01584706254808109,0,False,True,0.9683058749038378,0.08619644561471856,0,False,True,024
325,"{'sd': 0.37, 'mean': -0.3}",-1.0,0,1.1070818901062012,0,"(0, 2)",326,0,False,0.0,1,0,0,0.0,True,True,-1.0,1.0,-1.0,-0.5,0.10172762579284882,0.003300434770570843,0,False,True,0.9933991304588583,0.0010401224296112351,0,False,True,0.9979197551407776,0.008002150533589058,0,False,True,024
326,"{'sd': 0.37, 'mean': -0.3}",-0.1,0,1.1580519676208496,0,"(0, 3)",327,0,True,0.0,1,0,0,0.0,True,True,-0.1,0.1,-1.0,0.9,0.14673925519122474,0.19972695493043469,0,False,True,0.6005460901391306,0.06851767680483278,0,False,True,0.8629646463903344,0.3916955986623289,0,False,True,024
327,"{'sd': 0.37, 'mean': 0.3}",0.1,2,1.080820083618164,1,"(0, 2)",328,1,False,1.0,0,1,1,1.0,True,True,0.1,0.1,1.0,0.2,0.07772008966937359,0.4659883589725181,0,False,False,0.06802328205496377,0.23478937046231688,0,False,False,0.5304212590753663,0.6235710566026291,1,True,True,024
328,"{'sd': 0.37, 'mean': 0.3}",0.7,3,0.7648751735687256,1,"(0, 3)",329,1,False,0.0,0,1,1,0.0,True,True,0.7,0.7,1.0,0.6,-0.26804263027515607,0.9536713051476907,1,True,True,0.9073426102953814,0.9149826806078176,1,True,True,0.8299653612156352,0.963652584628436,1,False,True,024
329,"{'sd': 0.37, 'mean': 0.3}",0.5,3,1.1445040702819824,1,"(1, 3)",330,1,True,0.0,0,1,1,0.0,True,True,0.5,0.5,1.0,-0.19999999999999996,0.13497141678859242,0.9444372442696929,1,False,True,0.8888744885393858,0.9811714303552953,1,False,True,0.9623428607105906,0.9140117289686287,1,False,True,024
330,"{'sd': 0.37, 'mean': -0.3}",0.3,2,0.889646053314209,0,"(1, 2)",331,0,False,1.0,0,1,1,0.0,False,True,0.3,0.3,1.0,-0.2,-0.11693158826213076,0.8692159025433023,1,False,True,0.7384318050866046,0.9696299669259338,1,False,True,0.9392599338518677,0.8083525901114329,1,False,True,024
331,"{'sd': 0.37, 'mean': -0.3}",0.1,2,1.0035779476165771,0,"(1, 2)",332,0,True,0.0,0,1,1,0.0,False,True,0.1,0.1,1.0,-0.19999999999999998,0.0035715619890978926,0.6988319996902072,1,False,True,0.3976639993804143,0.9200148914748572,1,False,True,0.8400297829497143,0.6235710566026291,1,False,True,024
332,"{'sd': 0.37, 'mean': -0.3}",-0.9,1,0.9806661605834961,0,"(1, 3)",333,0,False,0.0,1,0,0,1.0,True,True,-0.9,0.9,-1.0,-1.0,-0.019523182549334165,0.014191248008605915,0,True,True,0.9716175039827881,0.06270552756401838,0,True,True,0.8745889448719633,0.013085899476143139,0,True,True,024
333,"{'sd': 0.37, 'mean': -0.3}",-0.3,1,0.7639927864074707,0,"(1, 3)",334,0,True,0.0,1,0,0,0.0,True,True,-0.3,0.3,-1.0,0.6000000000000001,-0.2691969317352297,0.0890368028879585,0,False,True,0.821926394224083,0.042404394823854705,0,False,True,0.9151912103522906,0.19854223211145114,0,False,True,024
334,"{'sd': 0.37, 'mean': -0.3}",0.1,1,0.7668230533599854,0,"(1, 3)",335,0,True,0.0,1,0,0,0.0,True,True,0.1,0.1,1.0,0.4,-0.2654992038911772,0.4241395998297855,0,False,True,0.151720800340429,0.20608914756293034,0,False,True,0.5878217048741393,0.6235710566026291,1,True,False,024
335,"{'sd': 0.37, 'mean': -0.3}",-0.1,0,0.7338199615478516,0,"(0, 3)",336,0,False,0.0,1,0,0,0.0,True,True,-0.1,0.1,-1.0,-0.2,-0.30949156444941317,0.32011514197466706,0,False,True,0.3597697160506659,0.18909808840123815,0,False,True,0.6218038231975237,0.3916955986623289,0,True,True,024
336,"{'sd': 0.37, 'mean': -0.3}",-0.7,0,0.7805080413818359,0,"(0, 3)",337,0,True,0.0,1,0,0,0.0,True,True,-0.7,0.7,-1.0,-0.6,-0.24781023622022927,0.021878094324789637,0,False,True,0.9562438113504207,0.011855108549127318,0,False,True,0.9762897829017454,0.0343281253064721,0,False,True,024
337,"{'sd': 0.37, 'mean': -0.3}",-0.1,1,0.7552738189697266,0,"(1, 3)",338,0,False,0.0,1,0,0,0.0,True,True,-0.1,0.1,-1.0,0.6,-0.2806749213513904,0.20461062478824749,0,False,True,0.590778750423505,0.07451265509095321,0,False,True,0.8509746898180935,0.3916955986623289,0,False,True,024
338,"{'sd': 0.37, 'mean': 0.3}",0.5,2,0.7221310138702393,1,"(0, 2)",339,1,False,1.0,0,1,1,1.0,True,True,0.5,0.5,1.0,0.6,-0.32554869689705146,0.8494080279112407,1,True,True,0.6988160558224814,0.6711110416863375,1,True,True,0.342222083372675,0.9140117289686287,1,True,True,024
339,"{'sd': 0.37, 'mean': 0.3}",0.3,3,1.265139102935791,1,"(0, 3)",340,1,False,0.0,0,1,1,0.0,True,True,0.3,0.3,1.0,-0.2,0.2351820789291103,0.8514459086595515,1,False,True,0.702891817319103,0.8806626066744929,1,False,True,0.7613252133489858,0.8083525901114329,1,False,True,024
340,"{'sd': 0.37, 'mean': 0.3}",0.1,2,0.7820498943328857,1,"(1, 2)",341,1,False,0.0,0,1,1,0.0,True,True,0.1,0.1,1.0,-0.19999999999999998,-0.24583673697744357,0.6930659298667853,1,False,True,0.38613185973357056,0.8711763919702104,1,False,True,0.7423527839404207,0.6235710566026291,1,False,True,024
341,"{'sd': 0.37, 'mean': 0.3}",-0.1,1,0.9087347984313965,1,"(1, 3)",342,1,False,0.0,1,0,0,1.0,False,True,-0.1,0.1,-1.0,-0.2,-0.09570197827278575,0.40941140403101567,0,True,True,0.18117719193796866,0.7149070073608514,1,False,False,0.4298140147217029,0.3916955986623289,0,True,True,024
342,"{'sd': 0.37, 'mean': 0.3}",0.1,3,1.2526631355285645,1,"(0, 3)",343,1,False,0.0,0,1,1,1.0,True,True,0.1,0.1,1.0,0.2,0.2252717934223556,0.5425277570945799,1,True,True,0.0850555141891598,0.771770902290727,1,False,True,0.543541804581454,0.6235710566026291,1,True,True,024
343,"{'sd': 0.37, 'mean': 0.3}",0.3,2,0.9223740100860596,1,"(0, 2)",344,1,False,0.0,0,1,1,0.0,True,True,0.3,0.3,1.0,0.19999999999999998,-0.08080448682704759,0.7851411747765146,1,False,True,0.5702823495530291,0.9142356432867814,1,False,True,0.8284712865735628,0.8083525901114329,1,False,True,024
344,"{'sd': 0.37, 'mean': -0.3}",-0.3,3,0.9890780448913574,0,"(1, 3)",346,0,False,1.0,0,1,1,0.0,False,True,-0.3,0.3,-1.0,-0.6,-0.010982037539259368,0.2340102491172928,0,True,False,0.5319795017654144,0.5473788602537933,1,False,True,0.09475772050758668,0.19854223211145114,0,True,False,024
345,"{'sd': 0.37, 'mean': -0.3}",-0.5,1,0.8315708637237549,0,"(1, 3)",347,0,False,0.0,1,0,0,1.0,True,True,-0.5,0.5,-1.0,-0.2,-0.1844387600192896,0.0496988468735279,0,False,True,0.9006023062529442,0.09888021539141896,0,True,True,0.8022395692171621,0.08619644561471856,0,False,True,024
346,"{'sd': 0.37, 'mean': 0.3}",-0.3,0,1.2415969371795654,1,"(0, 2)",348,1,False,1.0,1,0,0,0.0,False,True,-0.3,0.3,-1.0,0.2,0.21639840361030604,0.0937915554732951,0,False,True,0.8124168890534098,0.05172819750150205,0,False,True,0.8965436049969959,0.19854223211145114,0,False,True,024
347,"{'sd': 0.37, 'mean': 0.3}",0.1,2,0.97747802734375,1,"(1, 2)",349,1,False,0.0,0,1,1,1.0,True,True,0.1,0.1,1.0,0.4,-0.022779465795975812,0.4259584734537057,0,False,False,0.14808305309258862,0.2164188883844619,0,False,False,0.5671622232310762,0.6235710566026291,1,True,True,024
348,"{'sd': 0.37, 'mean': 0.3}",0.3,3,0.9379758834838867,1,"(1, 3)",350,1,False,0.0,0,1,1,0.0,True,True,0.3,0.3,1.0,0.19999999999999998,-0.06403104087798413,0.7556358268929585,1,True,True,0.511271653785917,0.614295303018209,1,True,True,0.228590606036418,0.8083525901114329,1,False,True,024
