,c_dis,context,response,rt,state,stim,trial_count,ts,rep_resp,switch,con_1dim,con_2dim,subj_ts,subj_switch,correct,stim_conform,true_context,abs_context,context_sign,context_diff,log_rt,fit_observer_posterior,fit_observer_choices,fit_observer_switch,conform_fit_observer,fit_certainty,midline_observer_posterior,midline_observer_choices,midline_observer_switch,conform_midline_observer,midline_certainty,opt_observer_posterior,opt_observer_choices,opt_observer_switch,conform_opt_observer,opt_certainty,id
0,"{'mean': -0.3, 'sd': 0.37}",0.1,2,1.2251520156860352,0,"(1, 2)",1,0,False,,0,1,1,,False,True,0.1,0.1,1.0,,0.20306493073519225,0.567809546618862,1,,True,0.13561909323772392,0.9699260794716078,1,,True,0.13561909323772392,0.6235710566026291,1,,True,0.24714211320525825,024
1,"{'mean': -0.3, 'sd': 0.37}",-0.1,0,1.2664008140563965,0,"(0, 2)",2,0,False,0.0,1,0,0,1.0,True,True,-0.1,0.1,-1.0,-0.2,0.23617887239588994,0.3555671313800421,0,True,True,0.2888657372399158,0.03007392052839214,0,True,True,0.2888657372399158,0.48969406167477875,0,True,True,0.020611876650442507,024
2,"{'mean': -0.3, 'sd': 0.37}",-0.3,0,0.8333439826965332,0,"(1, 2)",3,0,True,0.0,0,0,0,0.0,False,False,-0.3,0.3,-1.0,-0.19999999999999998,-0.18230877763976852,0.14279289267908749,0,False,True,0.7144142146418251,0.03007392052839214,0,False,True,0.7144142146418251,0.19336796675117557,0,False,True,0.6132640664976489,024
3,"{'mean': -0.3, 'sd': 0.37}",-0.5,1,0.5383718013763428,0,"(1, 2)",4,0,False,0.0,1,0,0,0.0,True,True,-0.5,0.5,-1.0,-0.2,-0.6192058768814341,0.047163563807512285,0,False,True,0.9056728723849754,0.03007392052839214,0,False,True,0.9056728723849754,0.03139378017129242,0,False,True,0.9372124396574152,024
4,"{'mean': -0.3, 'sd': 0.37}",-0.7,1,0.4324791431427002,0,"(1, 2)",5,0,True,0.0,1,0,0,0.0,True,True,-0.7,0.7,-1.0,-0.19999999999999996,-0.838221177720529,0.016352351767028574,0,False,True,0.9672952964659428,0.03007392052839214,0,False,True,0.9672952964659428,0.005131133501492403,0,False,True,0.9897377329970152,024
5,"{'mean': -0.3, 'sd': 0.37}",-0.1,1,0.5722780227661133,0,"(1, 2)",6,0,True,0.0,1,0,0,0.0,True,True,-0.1,0.1,-1.0,0.6,-0.5581303519013072,0.22477542963434077,0,False,True,0.5504491407313185,0.03007392052839214,0,False,True,0.5504491407313185,0.07078091717078491,0,False,True,0.8584381656584301,024
6,"{'mean': -0.3, 'sd': 0.37}",-0.7,1,0.740109920501709,0,"(1, 3)",7,0,True,0.0,1,0,0,0.0,True,True,-0.7,0.7,-1.0,-0.6,-0.3009565625965504,0.020132796146226536,0,False,True,0.9597344077075469,0.03007392052839214,0,False,True,0.9597344077075469,0.006630351566946478,0,False,True,0.9867392968661071,024
7,"{'mean': -0.3, 'sd': 0.37}",-0.3,1,0.4866960048675537,0,"(1, 3)",8,0,True,0.0,1,0,0,0.0,True,True,-0.3,0.3,-1.0,0.39999999999999997,-0.720115570790445,0.10077623403513444,0,False,True,0.7984475319297311,0.03007392052839214,0,False,True,0.7984475319297311,0.028820290792455537,0,False,True,0.942359418415089,024
8,"{'mean': -0.3, 'sd': 0.37}",-0.1,0,0.5492861270904541,0,"(0, 3)",9,0,False,0.0,1,0,0,0.0,True,True,-0.1,0.1,-1.0,0.19999999999999998,-0.5991357945679029,0.24319051950419618,0,False,True,0.5136189609916076,0.03007392052839214,0,False,True,0.5136189609916076,0.08399436736063012,0,False,True,0.8320112652787397,024
9,"{'mean': -0.3, 'sd': 0.37}",-0.3,0,0.45793581008911133,0,"(0, 2)",10,0,True,0.0,1,0,0,0.0,True,True,-0.3,0.3,-1.0,-0.19999999999999998,-0.7810262573341133,0.1276221128769724,0,False,True,0.7447557742460552,0.03007392052839214,0,False,True,0.7447557742460552,0.047835403604980384,0,False,True,0.9043291927900392,024
10,"{'mean': -0.3, 'sd': 0.37}",-0.3,1,0.5834600925445557,0,"(1, 3)",11,0,False,0.0,1,0,0,0.0,True,True,-0.3,0.3,-1.0,0.0,-0.5387792228342867,0.11321204681265797,0,False,True,0.7735759063746841,0.03007392052839214,0,False,True,0.7735759063746841,0.038702731295063894,0,False,True,0.9225945374098722,024
11,"{'mean': -0.3, 'sd': 0.37}",-0.3,1,0.414247989654541,0,"(1, 3)",12,0,True,0.0,1,0,0,0.0,True,True,-0.3,0.3,-1.0,0.0,-0.881290475663605,0.11149315137032581,0,False,True,0.7770136972593484,0.03007392052839214,0,False,True,0.7770136972593484,0.03646563080873158,0,False,True,0.9270687383825369,024
12,"{'mean': -0.3, 'sd': 0.37}",-0.5,1,0.45235300064086914,0,"(1, 3)",13,0,True,0.0,1,0,0,0.0,True,True,-0.5,0.5,-1.0,-0.2,-0.7932924290829146,0.045512144296907114,0,False,True,0.9089757114061858,0.03007392052839214,0,False,True,0.9089757114061858,0.013989156893342397,0,False,True,0.9720216862133152,024
13,"{'mean': 0.3, 'sd': 0.37}",0.5,2,0.5911359786987305,1,"(0, 3)",14,1,False,1.0,0,0,1,1.0,False,False,0.5,0.5,1.0,1.0,-0.5257092056403759,0.8322387988313751,1,True,True,0.6644775976627502,0.9699260794716078,1,True,True,0.6644775976627502,0.5748253546038425,1,True,True,0.14965070920768508,024
14,"{'mean': 0.3, 'sd': 0.37}",0.3,2,0.5823700428009033,1,"(0, 2)",15,1,True,0.0,0,1,1,0.0,True,True,0.3,0.3,1.0,-0.2,-0.5406492209210633,0.8307480956605732,1,False,True,0.6614961913211463,0.9699260794716078,1,False,True,0.6614961913211463,0.8427597237400452,1,False,True,0.6855194474800903,024
15,"{'mean': 0.3, 'sd': 0.37}",0.5,3,0.47440290451049805,1,"(1, 3)",16,1,False,0.0,0,1,1,0.0,True,True,0.5,0.5,1.0,0.2,-0.7456983088247456,0.9250805598488367,1,False,True,0.8501611196976735,0.9699260794716078,1,False,True,0.8501611196976735,0.9731225669285465,1,False,True,0.946245133857093,024
16,"{'mean': 0.3, 'sd': 0.37}",0.1,2,0.5311999320983887,1,"(0, 2)",17,1,False,0.0,0,1,1,0.0,True,True,0.1,0.1,1.0,-0.4,-0.6326168086467496,0.6829547414594648,1,False,True,0.36590948291892955,0.9699260794716078,1,False,True,0.36590948291892955,0.9218733100897566,1,False,True,0.8437466201795132,024
17,"{'mean': 0.3, 'sd': 0.37}",0.7,3,0.583528995513916,1,"(0, 3)",18,1,False,0.0,0,1,1,0.0,True,True,0.7,0.7,1.0,0.6,-0.538661136092696,0.9628573789651332,1,False,True,0.9257147579302665,0.9699260794716078,1,False,True,0.9257147579302665,0.9926586939960151,1,False,True,0.9853173879920303,024
18,"{'mean': 0.3, 'sd': 0.37}",0.1,1,0.8178451061248779,1,"(1, 3)",19,1,False,0.0,1,0,0,1.0,False,True,0.1,0.1,1.0,-0.6,-0.20108231712520797,0.6928341549935167,1,False,False,0.3856683099870335,0.9699260794716078,1,False,False,0.3856683099870335,0.932189572340491,1,False,False,0.8643791446809821,024
19,"{'mean': 0.3, 'sd': 0.37}",0.5,3,0.8837699890136719,1,"(0, 3)",20,1,False,0.0,0,1,1,1.0,True,True,0.5,0.5,1.0,0.4,-0.12355844362412342,0.9131374238996767,1,False,True,0.8262748477993533,0.9699260794716078,1,False,True,0.8262748477993533,0.9829449612010825,1,False,True,0.9658899224021651,024
20,"{'mean': 0.3, 'sd': 0.37}",0.1,3,0.7378549575805664,1,"(0, 3)",21,1,True,0.0,0,1,1,0.0,True,True,0.1,0.1,1.0,-0.4,-0.3040080081407661,0.6798197322389119,1,False,True,0.3596394644778238,0.9699260794716078,1,False,True,0.3596394644778238,0.9270767999528641,1,False,True,0.8541535999057281,024
21,"{'mean': 0.3, 'sd': 0.37}",-0.1,0,0.8299751281738281,1,"(1, 2)",22,1,False,0.0,0,0,0,1.0,False,False,-0.1,0.1,-1.0,-0.2,-0.18635954469611343,0.3854992739315823,0,True,True,0.22900145213683543,0.03007392052839214,0,True,True,0.22900145213683543,0.7719982040785611,1,False,False,0.5439964081571222,024
22,"{'mean': 0.3, 'sd': 0.37}",0.1,2,0.7733950614929199,1,"(0, 2)",23,1,False,0.0,0,1,1,1.0,True,True,0.1,0.1,1.0,0.2,-0.25696528527939216,0.5354883960424675,1,True,True,0.0709767920849349,0.9699260794716078,1,True,True,0.0709767920849349,0.8073323597285085,1,False,True,0.614664719457017,024
23,"{'mean': 0.3, 'sd': 0.37}",0.5,3,0.9593379497528076,1,"(1, 3)",24,1,False,0.0,0,1,1,0.0,True,True,0.5,0.5,1.0,0.4,-0.041511868102481614,0.8977328732896145,1,False,True,0.795465746579229,0.9699260794716078,1,False,True,0.795465746579229,0.9687754250969169,1,False,True,0.9375508501938339,024
24,"{'mean': 0.3, 'sd': 0.37}",-0.1,0,0.8907592296600342,1,"(0, 2)",25,1,False,0.0,1,0,0,1.0,False,True,-0.1,0.1,-1.0,-0.6,-0.11568111287708732,0.447560026559885,0,True,True,0.10487994688022995,0.03007392052839214,0,True,True,0.10487994688022995,0.8162963433263917,1,False,False,0.6325926866527833,024
25,"{'mean': 0.3, 'sd': 0.37}",0.7,3,0.8834011554718018,1,"(0, 3)",26,1,False,0.0,0,1,1,1.0,True,True,0.7,0.7,1.0,0.7999999999999999,-0.12397587183799703,0.9519371689874974,1,True,True,0.9038743379749947,0.9699260794716078,1,True,True,0.9038743379749947,0.9877115030189894,1,False,True,0.9754230060379787,024
26,"{'mean': 0.3, 'sd': 0.37}",-0.1,0,0.9747850894927979,1,"(0, 2)",27,1,False,0.0,1,0,0,1.0,False,True,-0.1,0.1,-1.0,-0.7999999999999999,-0.025538253313603963,0.46384341742628205,0,True,True,0.07231316514743591,0.03007392052839214,0,True,True,0.07231316514743591,0.8369190414206732,1,False,False,0.6738380828413464,024
27,"{'mean': 0.3, 'sd': 0.37}",-0.7,0,0.6697080135345459,1,"(0, 2)",28,1,True,0.0,1,0,0,0.0,False,True,-0.7,0.7,-1.0,-0.6,-0.40091346228055413,0.02634187320724077,0,False,True,0.9473162535855184,0.03007392052839214,0,False,True,0.9473162535855184,0.10549574907615557,0,True,True,0.7890085018476889,024
28,"{'mean': 0.3, 'sd': 0.37}",0.9,3,0.9316730499267578,1,"(1, 3)",29,1,False,0.0,0,1,1,1.0,True,True,0.9,0.9,1.0,1.6,-0.07077333064255993,0.967570235643643,1,True,True,0.935140471287286,0.9699260794716078,1,True,True,0.935140471287286,0.9372207702985477,1,True,True,0.8744415405970953,024
29,"{'mean': 0.3, 'sd': 0.37}",0.7,2,0.7547039985656738,1,"(1, 2)",30,1,False,0.0,0,1,1,0.0,True,True,0.7,0.7,1.0,-0.20000000000000007,-0.2814296614866221,0.973196582701339,1,False,True,0.946393165402678,0.9699260794716078,1,False,True,0.946393165402678,0.9932997960206646,1,False,True,0.9865995920413293,024
30,"{'mean': 0.3, 'sd': 0.37}",0.3,3,1.3490869998931885,1,"(0, 3)",31,1,False,0.0,0,1,1,0.0,True,True,0.3,0.3,1.0,-0.39999999999999997,0.2994280672833687,0.8532974971027065,1,False,True,0.706594994205413,0.9699260794716078,1,False,True,0.706594994205413,0.972368008348202,1,False,True,0.9447360166964041,024
31,"{'mean': 0.3, 'sd': 0.37}",0.7,3,0.8636670112609863,1,"(1, 3)",32,1,True,0.0,0,1,1,0.0,True,True,0.7,0.7,1.0,0.39999999999999997,-0.14656798809826693,0.9693551762734215,1,False,True,0.938710352546843,0.9699260794716078,1,False,True,0.938710352546843,0.9947034756445035,1,False,True,0.9894069512890069,024
32,"{'mean': 0.3, 'sd': 0.37}",0.7,3,0.788532018661499,1,"(0, 3)",33,1,True,0.0,0,1,1,0.0,True,True,0.7,0.7,1.0,0.0,-0.2375822663502236,0.9732536824482273,1,False,True,0.9465073648964546,0.9699260794716078,1,False,True,0.9465073648964546,0.995551723496473,1,False,True,0.9911034469929461,024
33,"{'mean': 0.3, 'sd': 0.37}",0.5,2,0.6627559661865234,1,"(1, 2)",34,1,False,0.0,0,1,1,0.0,True,True,0.5,0.5,1.0,-0.19999999999999996,-0.41134843168600205,0.9361394800934185,1,False,True,0.872278960186837,0.9699260794716078,1,False,True,0.872278960186837,0.9890560147047991,1,False,True,0.9781120294095982,024
34,"{'mean': 0.3, 'sd': 0.37}",0.1,3,0.9658229351043701,1,"(1, 3)",35,1,False,0.0,0,1,1,0.0,True,True,0.1,0.1,1.0,-0.4,-0.0347747585639717,0.6858526550289225,1,False,True,0.3717053100578449,0.9699260794716078,1,False,True,0.3717053100578449,0.9302971470233122,1,False,True,0.8605942940466245,024
35,"{'mean': 0.3, 'sd': 0.37}",0.1,3,0.9800601005554199,1,"(1, 3)",36,1,True,0.0,0,1,1,0.0,True,True,0.1,0.1,1.0,0.0,-0.020141382100581737,0.6190709275906451,1,False,True,0.23814185518129016,0.9699260794716078,1,False,True,0.23814185518129016,0.8987840423026842,1,False,True,0.7975680846053683,024
36,"{'mean': 0.3, 'sd': 0.37}",0.1,2,1.1828670501708984,1,"(0, 2)",37,1,False,0.0,0,1,1,0.0,True,True,0.1,0.1,1.0,0.0,0.16794119505512273,0.6008193807385389,1,False,True,0.20163876147707782,0.9699260794716078,1,False,True,0.20163876147707782,0.8813639661394701,1,False,True,0.7627279322789402,024
37,"{'mean': 0.3, 'sd': 0.37}",0.7,3,0.937593936920166,1,"(0, 3)",38,1,False,0.0,0,1,1,0.0,True,True,0.7,0.7,1.0,0.6,-0.06443832677568348,0.9593346667740362,1,False,True,0.9186693335480725,0.9699260794716078,1,False,True,0.9186693335480725,0.9908771980309867,1,False,True,0.9817543960619735,024
38,"{'mean': 0.3, 'sd': 0.37}",0.5,3,0.6951918601989746,1,"(1, 3)",39,1,True,0.0,0,1,1,0.0,True,True,0.5,0.5,1.0,-0.19999999999999996,-0.3635674136740481,0.9351110317716201,1,False,True,0.8702220635432403,0.9699260794716078,1,False,True,0.8702220635432403,0.9886263591054288,1,False,True,0.9772527182108577,024
39,"{'mean': 0.3, 'sd': 0.37}",0.1,2,0.9050090312957764,1,"(1, 2)",40,1,False,0.0,0,1,1,0.0,True,True,0.1,0.1,1.0,-0.4,-0.09981035599965456,0.6855833594386652,1,False,True,0.37116671887733044,0.9699260794716078,1,False,True,0.37116671887733044,0.9300711558258695,1,False,True,0.860142311651739,024
40,"{'mean': -0.3, 'sd': 0.37}",0.1,3,0.7543129920959473,0,"(1, 3)",41,0,False,1.0,0,1,1,0.0,False,True,0.1,0.1,1.0,0.0,-0.28194788822746986,0.6189977017929471,1,False,True,0.23799540358589422,0.9699260794716078,1,False,True,0.23799540358589422,0.8986604331338331,1,False,True,0.7973208662676663,024
41,"{'mean': -0.3, 'sd': 0.37}",0.3,2,0.780350923538208,0,"(1, 2)",42,0,False,0.0,0,1,1,0.0,False,True,0.3,0.3,1.0,0.19999999999999998,-0.2480115585019854,0.7930491922191353,1,False,True,0.5860983844382706,0.9699260794716078,1,False,True,0.5860983844382706,0.9497580857353028,1,False,True,0.8995161714706057,024
42,"{'mean': -0.3, 'sd': 0.37}",-0.1,0,1.1129169464111328,0,"(0, 2)",43,0,False,0.0,1,0,0,1.0,True,True,-0.1,0.1,-1.0,-0.4,0.10698444813544929,0.41708759645189997,0,True,True,0.16582480709620007,0.03007392052839214,0,True,True,0.16582480709620007,0.7959062614550713,1,False,False,0.5918125229101425,024
43,"{'mean': -0.3, 'sd': 0.37}",-0.1,0,0.9204061031341553,0,"(0, 3)",44,0,True,0.0,1,0,0,0.0,True,True,-0.1,0.1,-1.0,0.0,-0.08294028988446324,0.3172145674559954,0,False,True,0.3655708650880092,0.03007392052839214,0,False,True,0.3655708650880092,0.6419091400594791,1,False,False,0.28381828011895816,024
44,"{'mean': -0.3, 'sd': 0.37}",-0.5,0,0.8493270874023438,0,"(0, 3)",45,0,True,0.0,1,0,0,0.0,True,True,-0.5,0.5,-1.0,-0.4,-0.16331090490712025,0.05721881687409384,0,False,True,0.8855623662518123,0.03007392052839214,0,False,True,0.8855623662518123,0.1300121417004506,0,True,True,0.7399757165990988,024
45,"{'mean': -0.3, 'sd': 0.37}",-0.3,1,0.6640779972076416,0,"(1, 2)",46,0,False,0.0,1,0,0,0.0,True,True,-0.3,0.3,-1.0,0.2,-0.40935567073009627,0.10496796277067724,0,False,True,0.7900640744586456,0.03007392052839214,0,False,True,0.7900640744586456,0.060135010411791784,0,False,True,0.8797299791764164,024
46,"{'mean': -0.3, 'sd': 0.37}",-0.1,1,0.5088269710540771,0,"(1, 3)",47,0,True,0.0,1,0,0,0.0,True,True,-0.1,0.1,-1.0,0.19999999999999998,-0.6756472592139956,0.24411879000270958,0,False,True,0.5117624199945808,0.03007392052839214,0,False,True,0.5117624199945808,0.1017491011324455,0,False,True,0.796501797735109,024
47,"{'mean': -0.3, 'sd': 0.37}",-0.1,1,0.4419100284576416,0,"(1, 2)",48,0,True,0.0,1,0,0,0.0,True,True,-0.1,0.1,-1.0,0.0,-0.8166489731503745,0.2757129315939264,0,False,True,0.4485741368121472,0.03007392052839214,0,False,True,0.4485741368121472,0.1258654145659548,0,False,True,0.7482691708680904,024
48,"{'mean': -0.3, 'sd': 0.37}",-0.5,1,0.46175694465637207,0,"(1, 3)",49,0,True,0.0,1,0,0,0.0,True,True,-0.5,0.5,-1.0,-0.4,-0.7727166201536827,0.05468570862317723,0,False,True,0.8906285827536455,0.03007392052839214,0,False,True,0.8906285827536455,0.023314889354753614,0,False,True,0.9533702212904928,024
49,"{'mean': -0.3, 'sd': 0.37}",-0.5,1,0.40640687942504883,0,"(1, 3)",50,0,True,0.0,1,0,0,0.0,True,True,-0.5,0.5,-1.0,0.0,-0.9004004551420209,0.04262124535224805,0,False,True,0.9147575092955039,0.03007392052839214,0,False,True,0.9147575092955039,0.012731241589606859,0,False,True,0.9745375168207863,024
50,"{'mean': -0.3, 'sd': 0.37}",-0.3,0,0.6648209095001221,0,"(0, 2)",51,0,False,0.0,1,0,0,0.0,True,True,-0.3,0.3,-1.0,0.2,-0.4082375836188426,0.1033059521821548,0,False,True,0.7933880956356905,0.03007392052839214,0,False,True,0.7933880956356905,0.030249892828694027,0,False,True,0.939500214342612,024
51,"{'mean': -0.3, 'sd': 0.37}",0.3,2,0.9382212162017822,0,"(0, 2)",52,0,False,0.0,0,1,1,1.0,False,True,0.3,0.3,1.0,0.6,-0.06376951961315021,0.6785913372646027,1,True,True,0.3571826745292055,0.9699260794716078,1,True,True,0.3571826745292055,0.37769462981612933,0,False,False,0.24461074036774133,024
52,"{'mean': -0.3, 'sd': 0.37}",0.5,3,0.8039288520812988,0,"(0, 3)",53,0,False,0.0,0,1,1,0.0,False,True,0.5,0.5,1.0,0.2,-0.2182445061550528,0.911825985062546,1,False,True,0.823651970125092,0.9699260794716078,1,False,True,0.823651970125092,0.8774892166841307,1,True,True,0.7549784333682614,024
53,"{'mean': -0.3, 'sd': 0.37}",-0.3,0,0.8547120094299316,0,"(0, 2)",54,0,False,0.0,1,0,0,1.0,True,True,-0.3,0.3,-1.0,-0.8,-0.15699069786180872,0.24070778075779642,0,True,True,0.5185844384844072,0.03007392052839214,0,True,True,0.5185844384844072,0.49882957661572525,0,True,True,0.0023408467685495093,024
54,"{'mean': -0.3, 'sd': 0.37}",-1.0,0,0.7274041175842285,0,"(0, 2)",55,0,True,0.0,1,0,0,0.0,True,True,-1.0,1.0,-1.0,-0.7,-0.3182730857575762,0.0047274891441971,0,False,True,0.9905450217116059,0.03007392052839214,0,False,True,0.9905450217116059,0.007972599673939595,0,False,True,0.9840548006521208,024
55,"{'mean': -0.3, 'sd': 0.37}",-0.5,0,0.7172269821166992,0,"(0, 2)",56,0,True,0.0,1,0,0,0.0,True,True,-0.5,0.5,-1.0,0.5,-0.3323629164910386,0.04018605007379143,0,False,True,0.9196278998524171,0.03007392052839214,0,False,True,0.9196278998524171,0.011297137212795549,0,False,True,0.9774057255744089,024
56,"{'mean': -0.3, 'sd': 0.37}",-0.7,0,0.6607670783996582,0,"(0, 3)",57,0,True,0.0,1,0,0,0.0,True,True,-0.7,0.7,-1.0,-0.19999999999999996,-0.414353878840229,0.01621567406982707,0,False,True,0.9675686518603459,0.03007392052839214,0,False,True,0.9675686518603459,0.004405319229209559,0,False,True,0.9911893615415809,024
57,"{'mean': -0.3, 'sd': 0.37}",0.9,3,1.0481338500976562,0,"(0, 3)",58,0,False,0.0,0,1,1,1.0,False,True,0.9,0.9,1.0,1.6,0.047011297302234266,0.9671765422371438,1,True,True,0.9343530844742876,0.9699260794716078,1,True,True,0.9343530844742876,0.8849917921339837,1,True,True,0.7699835842679674,024
58,"{'mean': -0.3, 'sd': 0.37}",-0.5,0,0.8550219535827637,0,"(0, 3)",59,0,False,0.0,1,0,0,1.0,True,True,-0.5,0.5,-1.0,-1.4,-0.15662813367003103,0.11435375409559492,0,True,True,0.7712924918088102,0.03007392052839214,0,True,True,0.7712924918088102,0.2824476369188465,0,True,True,0.435104726162307,024
59,"{'mean': -0.3, 'sd': 0.37}",0.3,3,0.7344341278076172,0,"(0, 3)",60,0,False,0.0,0,1,1,1.0,False,True,0.3,0.3,1.0,0.8,-0.30865497042929235,0.6814753625700103,1,True,True,0.3629507251400206,0.9699260794716078,1,True,True,0.3629507251400206,0.6717635680280847,1,True,True,0.34352713605616936,024
60,"{'mean': -0.3, 'sd': 0.37}",0.1,2,0.8501391410827637,0,"(0, 2)",61,0,False,0.0,0,1,1,0.0,False,True,0.1,0.1,1.0,-0.19999999999999998,-0.16235524750291688,0.61788029866444,1,False,True,0.2357605973288801,0.9699260794716078,1,False,True,0.2357605973288801,0.7439038991826687,1,False,True,0.4878077983653375,024
61,"{'mean': 0.3, 'sd': 0.37}",0.5,3,0.7776110172271729,1,"(0, 3)",62,1,False,1.0,0,1,1,0.0,True,True,0.5,0.5,1.0,0.4,-0.25152885769145533,0.9060571527512912,1,False,True,0.8121143055025823,0.9699260794716078,1,False,True,0.8121143055025823,0.9602244671939679,1,False,True,0.9204489343879358,024
62,"{'mean': 0.3, 'sd': 0.37}",0.1,0,1.2889890670776367,1,"(1, 2)",63,1,False,0.0,0,0,0,1.0,False,False,0.1,0.1,1.0,-0.4,0.2538582422124976,0.6779585488667615,1,False,False,0.3559170977335231,0.9699260794716078,1,False,False,0.3559170977335231,0.9149886907772841,1,False,False,0.8299773815545681,024
63,"{'mean': 0.3, 'sd': 0.37}",-0.3,1,1.0035009384155273,1,"(1, 3)",64,1,False,0.0,1,0,0,0.0,False,True,-0.3,0.3,-1.0,-0.4,0.0034948243963470287,0.19408922667428194,0,True,True,0.6118215466514361,0.03007392052839214,0,True,True,0.6118215466514361,0.5484333789697653,1,False,False,0.09686675793953059,024
64,"{'mean': 0.3, 'sd': 0.37}",0.5,2,0.8886229991912842,1,"(1, 2)",65,1,False,0.0,0,1,1,1.0,True,True,0.5,0.5,1.0,0.8,-0.11808220631326727,0.8556291465600178,1,True,True,0.7112582931200355,0.9699260794716078,1,True,True,0.7112582931200355,0.925412731488333,1,False,True,0.8508254629766661,024
65,"{'mean': 0.3, 'sd': 0.37}",1.0,3,0.7743690013885498,1,"(0, 3)",66,1,False,0.0,0,1,1,0.0,True,True,1.0,1.0,1.0,0.5,-0.25570677301962974,0.9919064291789387,1,False,True,0.9838128583578774,0.9699260794716078,1,False,True,0.9838128583578774,0.9981286199005576,1,False,True,0.9962572398011151,024
66,"{'mean': 0.3, 'sd': 0.37}",0.5,2,0.6013140678405762,1,"(0, 2)",67,1,False,0.0,0,1,1,0.0,True,True,0.5,0.5,1.0,-0.5,-0.5086379055000347,0.9375011803420596,1,False,True,0.8750023606841193,0.9699260794716078,1,False,True,0.8750023606841193,0.989291500965806,1,False,True,0.978583001931612,024
67,"{'mean': 0.3, 'sd': 0.37}",0.5,2,0.6229889392852783,1,"(0, 2)",68,1,True,0.0,0,1,1,0.0,True,True,0.5,0.5,1.0,0.0,-0.4732265143085018,0.9334761479517366,1,False,True,0.8669522959034732,0.9699260794716078,1,False,True,0.8669522959034732,0.9884798794106866,1,False,True,0.9769597588213732,024
68,"{'mean': 0.3, 'sd': 0.37}",1.0,2,0.6699850559234619,1,"(1, 2)",69,1,True,0.0,0,1,1,0.0,True,True,1.0,1.0,1.0,0.5,-0.4004998714377243,0.9926235559586434,1,False,True,0.9852471119172868,0.9699260794716078,1,False,True,0.9852471119172868,0.9987841471980178,1,False,True,0.9975682943960356,024
69,"{'mean': 0.3, 'sd': 0.37}",0.1,2,0.7075350284576416,1,"(1, 2)",70,1,True,0.0,0,1,1,0.0,True,True,0.1,0.1,1.0,-0.9,-0.34596814050285396,0.7005794644500378,1,False,True,0.40115892890007565,0.9699260794716078,1,False,True,0.40115892890007565,0.9353968656170716,1,False,True,0.8707937312341432,024
70,"{'mean': 0.3, 'sd': 0.37}",0.1,2,0.5691430568695068,1,"(1, 2)",71,1,True,0.0,0,1,1,0.0,True,True,0.1,0.1,1.0,0.0,-0.5636234584076848,0.623070812072483,1,False,True,0.2461416241449661,0.9699260794716078,1,False,True,0.2461416241449661,0.9015684141995541,1,False,True,0.8031368283991083,024
71,"{'mean': 0.3, 'sd': 0.37}",0.5,3,0.718919038772583,1,"(0, 3)",72,1,False,0.0,0,1,1,0.0,True,True,0.5,0.5,1.0,0.4,-0.33000653014284165,0.9065620161122868,1,False,True,0.8131240322245736,0.9699260794716078,1,False,True,0.8131240322245736,0.9797522983186736,1,False,True,0.9595045966373472,024
72,"{'mean': 0.3, 'sd': 0.37}",0.3,2,0.7421069145202637,1,"(1, 2)",73,1,False,0.0,0,1,1,0.0,True,True,0.3,0.3,1.0,-0.2,-0.2982619565447221,0.8428544363375217,1,False,True,0.6857088726750433,0.9699260794716078,1,False,True,0.6857088726750433,0.9693066921779784,1,False,True,0.9386133843559568,024
73,"{'mean': 0.3, 'sd': 0.37}",0.3,2,0.8845841884613037,1,"(1, 2)",74,1,True,0.0,0,1,1,0.0,True,True,0.3,0.3,1.0,0.0,-0.12263758793182143,0.8325079114418295,1,False,True,0.6650158228836589,0.9699260794716078,1,False,True,0.6650158228836589,0.9669082241287907,1,False,True,0.9338164482575815,024
74,"{'mean': 0.3, 'sd': 0.37}",-0.5,0,0.7916290760040283,1,"(0, 2)",75,1,False,0.0,1,0,0,1.0,False,True,-0.5,0.5,-1.0,-0.8,-0.23366233525113578,0.09893885835114168,0,True,True,0.8021222832977166,0.03007392052839214,0,True,True,0.8021222832977166,0.39109051947462703,0,True,True,0.21781896105074594,024
75,"{'mean': 0.3, 'sd': 0.37}",0.5,2,0.7790780067443848,1,"(0, 2)",76,1,False,0.0,0,1,1,1.0,True,True,0.5,0.5,1.0,1.0,-0.2496441010973147,0.8410881453464035,1,True,True,0.682176290692807,0.9699260794716078,1,True,True,0.682176290692807,0.882160632781327,1,True,True,0.7643212655626539,024
76,"{'mean': 0.3, 'sd': 0.37}",0.3,2,0.7418711185455322,1,"(1, 2)",77,1,True,0.0,0,1,1,0.0,True,True,0.3,0.3,1.0,-0.2,-0.29857974558399614,0.8322158246406716,1,False,True,0.6644316492813431,0.9699260794716078,1,False,True,0.6644316492813431,0.9455032369496276,1,False,True,0.8910064738992551,024
77,"{'mean': -0.3, 'sd': 0.37}",-0.3,0,0.7706968784332275,0,"(0, 3)",78,0,False,1.0,1,0,0,1.0,True,True,-0.3,0.3,-1.0,-0.6,-0.26046013650712174,0.22376477315465193,0,True,True,0.5524704536906961,0.03007392052839214,0,True,True,0.5524704536906961,0.5934074549237287,1,False,False,0.1868149098474574,024
78,"{'mean': -0.3, 'sd': 0.37}",-0.3,1,0.7181057929992676,0,"(1, 3)",79,0,False,0.0,1,0,0,0.0,True,True,-0.3,0.3,-1.0,0.0,-0.3311383767778534,0.1251193177432167,0,False,True,0.7497613645135666,0.03007392052839214,0,False,True,0.7497613645135666,0.2505715751576822,0,True,True,0.4988568496846356,024
79,"{'mean': -0.3, 'sd': 0.37}",-0.7,0,0.6915409564971924,0,"(0, 3)",80,0,False,0.0,1,0,0,0.0,True,True,-0.7,0.7,-1.0,-0.39999999999999997,-0.3688329011465293,0.01793750853697516,0,False,True,0.9641249829260496,0.03007392052839214,0,False,True,0.9641249829260496,0.015098281668651662,0,False,True,0.9698034366626966,024
80,"{'mean': 0.3, 'sd': 0.37}",0.1,2,0.7524909973144531,1,"(1, 2)",81,1,False,1.0,0,1,1,1.0,True,True,0.1,0.1,1.0,0.7999999999999999,-0.2843662461323953,0.4277170293487759,0,False,False,0.14456594130244815,0.9699260794716078,1,False,True,0.14456594130244815,0.17529769970589487,0,False,False,0.6494046005882103,024
81,"{'mean': 0.3, 'sd': 0.37}",0.3,3,0.5654118061065674,1,"(0, 3)",82,1,False,0.0,0,1,1,0.0,True,True,0.3,0.3,1.0,0.19999999999999998,-0.570200952959811,0.7549282228650928,1,True,True,0.5098564457301855,0.9699260794716078,1,True,True,0.5098564457301855,0.572972121940745,1,True,True,0.14594424388148997,024
82,"{'mean': 0.3, 'sd': 0.37}",0.3,2,0.5169720649719238,1,"(1, 2)",83,1,False,0.0,0,1,1,0.0,True,True,0.3,0.3,1.0,0.0,-0.6597664388698572,0.8176103850867836,1,False,True,0.6352207701735673,0.9699260794716078,1,False,True,0.6352207701735673,0.8419645591890949,1,False,True,0.6839291183781897,024
83,"{'mean': 0.3, 'sd': 0.37}",0.1,2,0.5724430084228516,1,"(1, 2)",84,1,True,0.0,0,1,1,0.0,True,True,0.1,0.1,1.0,-0.19999999999999998,-0.5578420971154066,0.6545410528708226,1,False,True,0.3090821057416453,0.9699260794716078,1,False,True,0.3090821057416453,0.8489920151793856,1,False,True,0.6979840303587712,024
84,"{'mean': 0.3, 'sd': 0.37}",-0.3,1,0.7938690185546875,1,"(1, 3)",85,1,False,0.0,1,0,0,1.0,False,True,-0.3,0.3,-1.0,-0.4,-0.23083679537998217,0.18990993734259579,0,True,True,0.6201801253148085,0.03007392052839214,0,True,True,0.6201801253148085,0.4647286824671911,0,True,True,0.07054263506561775,024
85,"{'mean': 0.3, 'sd': 0.37}",0.7,3,0.9012229442596436,1,"(0, 3)",86,1,False,0.0,0,1,1,1.0,True,True,0.7,0.7,1.0,1.0,-0.10400261107254767,0.9363452670834845,1,True,True,0.8726905341669691,0.9699260794716078,1,True,True,0.8726905341669691,0.9594995690935811,1,True,True,0.9189991381871623,024
86,"{'mean': 0.3, 'sd': 0.37}",0.3,2,0.7094018459320068,1,"(1, 2)",87,1,False,0.0,0,1,1,0.0,True,True,0.3,0.3,1.0,-0.39999999999999997,-0.3433331345428056,0.8475687661667753,1,False,True,0.6951375323335507,0.9699260794716078,1,False,True,0.6951375323335507,0.9646254891595184,1,False,True,0.9292509783190368,024
87,"{'mean': -0.3, 'sd': 0.37}",-0.1,1,1.071338176727295,0,"(1, 2)",88,0,False,1.0,1,0,0,1.0,True,True,-0.1,0.1,-1.0,-0.4,0.06890849953988075,0.4328006552487907,0,True,True,0.13439868950241862,0.03007392052839214,0,True,True,0.13439868950241862,0.8118196603117522,1,False,False,0.6236393206235045,024
88,"{'mean': -0.3, 'sd': 0.37}",0.1,2,1.0791609287261963,0,"(0, 2)",89,0,False,0.0,0,1,1,1.0,False,True,0.1,0.1,1.0,0.2,0.07618382133293661,0.5489103110960564,1,True,True,0.09782062219211274,0.9699260794716078,1,True,True,0.09782062219211274,0.8312936755429583,1,False,True,0.6625873510859166,024
89,"{'mean': -0.3, 'sd': 0.37}",-0.7,1,0.8384799957275391,0,"(1, 3)",90,0,False,0.0,1,0,0,1.0,True,True,-0.7,0.7,-1.0,-0.7999999999999999,-0.17616455521569857,0.028947513827623967,0,True,True,0.9421049723447521,0.03007392052839214,0,True,True,0.9421049723447521,0.10315858240346241,0,True,True,0.7936828351930751,024
90,"{'mean': -0.3, 'sd': 0.37}",-0.1,0,0.6640698909759521,0,"(0, 3)",91,0,False,0.0,1,0,0,0.0,True,True,-0.1,0.1,-1.0,0.6,-0.4093678775509807,0.22748924792353717,0,False,True,0.5450215041529256,0.03007392052839214,0,False,True,0.5450215041529256,0.12669290815857967,0,False,True,0.7466141836828406,024
91,"{'mean': -0.3, 'sd': 0.37}",-0.5,1,0.7501850128173828,0,"(1, 3)",92,0,False,0.0,1,0,0,0.0,True,True,-0.5,0.5,-1.0,-0.4,-0.2874354191167055,0.051856616573146025,0,False,True,0.896286766853708,0.03007392052839214,0,False,True,0.896286766853708,0.023408091280572606,0,False,True,0.9531838174388548,024
92,"{'mean': -0.3, 'sd': 0.37}",0.5,2,1.0284559726715088,0,"(0, 3)",93,0,False,0.0,0,0,1,1.0,False,False,0.5,0.5,1.0,1.0,0.02805862187474056,0.8333174898040343,1,True,True,0.6666349796080686,0.9699260794716078,1,True,True,0.6666349796080686,0.592530764486721,1,True,True,0.18506152897344208,024
93,"{'mean': -0.3, 'sd': 0.37}",-0.9,0,0.8513360023498535,0,"(0, 2)",94,0,False,0.0,1,0,0,1.0,True,True,-0.9,0.9,-1.0,-1.4,-0.16094839596104754,0.015214504553831106,0,True,True,0.9695709908923378,0.03007392052839214,0,True,True,0.9695709908923378,0.017532005392014924,0,True,True,0.9649359892159701,024
94,"{'mean': -0.3, 'sd': 0.37}",-0.5,0,1.0646212100982666,0,"(0, 3)",95,0,True,0.0,1,0,0,0.0,True,True,-0.5,0.5,-1.0,0.4,0.0626190646261276,0.040689237696901505,0,False,True,0.918621524606197,0.03007392052839214,0,False,True,0.918621524606197,0.012186528324133566,0,False,True,0.9756269433517328,024
95,"{'mean': -0.3, 'sd': 0.37}",-0.3,0,0.7905869483947754,0,"(0, 3)",96,0,True,0.0,1,0,0,0.0,True,True,-0.3,0.3,-1.0,0.2,-0.23497963673700306,0.10308716672872735,0,False,True,0.7938256665425453,0.03007392052839214,0,False,True,0.7938256665425453,0.03012178803838806,0,False,True,0.9397564239232239,024
96,"{'mean': -0.3, 'sd': 0.37}",-0.1,0,0.7922029495239258,0,"(0, 3)",97,0,True,0.0,1,0,0,0.0,True,True,-0.1,0.1,-1.0,0.19999999999999998,-0.23293767059508455,0.24370211667402794,0,False,True,0.5125957666519441,0.03007392052839214,0,False,True,0.5125957666519441,0.08472570999035366,0,False,True,0.8305485800192927,024
97,"{'mean': -0.3, 'sd': 0.37}",-0.3,1,0.6945779323577881,0,"(1, 3)",98,0,False,0.0,1,0,0,0.0,True,True,-0.3,0.3,-1.0,-0.19999999999999998,-0.3644509094650903,0.12768848472643557,0,False,True,0.7446230305471289,0.03007392052839214,0,False,True,0.7446230305471289,0.04802479794251582,0,False,True,0.9039504041149684,024
98,"{'mean': -0.3, 'sd': 0.37}",-0.5,0,0.6459028720855713,0,"(0, 3)",99,0,False,0.0,1,0,0,0.0,True,True,-0.5,0.5,-1.0,-0.2,-0.437106139312365,0.046361278597632664,0,False,True,0.9072774428047347,0.03007392052839214,0,False,True,0.9072774428047347,0.015117404842992293,0,False,True,0.9697651903140154,024
99,"{'mean': -0.3, 'sd': 0.37}",-0.3,1,0.7289688587188721,0,"(1, 2)",100,0,False,0.0,1,0,0,0.0,True,True,-0.3,0.3,-1.0,0.2,-0.31612426569267027,0.10373026663438167,0,False,True,0.7925394667312367,0.03007392052839214,0,False,True,0.7925394667312367,0.030812144727691157,0,False,True,0.9383757105446177,024
100,"{'mean': -0.3, 'sd': 0.37}",-0.5,0,0.771406888961792,0,"(0, 3)",101,0,False,0.0,1,0,0,0.0,True,True,-0.5,0.5,-1.0,-0.2,-0.2595393027814717,0.045109135985093536,0,False,True,0.9097817280298129,0.03007392052839214,0,False,True,0.9097817280298129,0.013445078116663334,0,False,True,0.9731098437666733,024
101,"{'mean': -0.3, 'sd': 0.37}",-0.1,0,0.7227749824523926,0,"(0, 2)",102,0,True,0.0,1,0,0,0.0,True,True,-0.1,0.1,-1.0,0.4,-0.32465733285478166,0.23098857097634962,0,False,True,0.5380228580473008,0.03007392052839214,0,False,True,0.5380228580473008,0.07539723988322279,0,False,True,0.8492055202335544,024
102,"{'mean': -0.3, 'sd': 0.37}",-0.3,1,0.8312687873840332,0,"(1, 3)",103,0,False,0.0,1,0,0,0.0,True,True,-0.3,0.3,-1.0,-0.19999999999999998,-0.18480208590322966,0.12604608347025123,0,False,True,0.7479078330594975,0.03007392052839214,0,False,True,0.7479078330594975,0.04562319308602997,0,False,True,0.9087536138279401,024
103,"{'mean': -0.3, 'sd': 0.37}",-0.5,0,0.6273541450500488,0,"(0, 3)",104,0,False,0.0,1,0,0,0.0,True,True,-0.5,0.5,-1.0,-0.2,-0.4662440731613885,0.04627464659776525,0,False,True,0.9074507068044695,0.03007392052839214,0,False,True,0.9074507068044695,0.014881222975294987,0,False,True,0.97023755404941,024
104,"{'mean': 0.3, 'sd': 0.37}",0.1,0,0.5916948318481445,1,"(0, 3)",105,1,True,1.0,1,0,0,0.0,False,True,0.1,0.1,1.0,0.6,-0.5247642637500988,0.4362514678047566,0,False,True,0.1274970643904868,0.9699260794716078,1,False,False,0.1274970643904868,0.17504965687609933,0,False,True,0.6499006862478014,024
105,"{'mean': 0.3, 'sd': 0.37}",0.3,2,0.7578649520874023,1,"(0, 3)",106,1,False,0.0,0,0,1,1.0,False,False,0.3,0.3,1.0,0.19999999999999998,-0.2772500726858463,0.7567266233632207,1,True,True,0.5134532467264414,0.9699260794716078,1,True,True,0.5134532467264414,0.5727079768004577,1,True,True,0.14541595360091542,024
106,"{'mean': 0.3, 'sd': 0.37}",0.3,2,1.0968101024627686,1,"(1, 2)",107,1,True,0.0,0,1,1,0.0,True,True,0.3,0.3,1.0,0.0,0.09240606007581686,0.8179225751638237,1,False,True,0.6358451503276474,0.9699260794716078,1,False,True,0.6358451503276474,0.8418510026505329,1,False,True,0.6837020053010658,024
107,"{'mean': -0.3, 'sd': 0.37}",-0.9,0,0.90236496925354,0,"(0, 3)",108,0,False,1.0,1,0,0,1.0,True,True,-0.9,0.9,-1.0,-1.2,-0.10273621852470803,0.014944529228014545,0,True,True,0.9701109415439709,0.03007392052839214,0,True,True,0.9701109415439709,0.043042186057511755,0,True,True,0.9139156278849765,024
108,"{'mean': -0.3, 'sd': 0.37}",0.1,0,0.7371721267700195,0,"(0, 3)",109,0,True,0.0,1,0,0,0.0,True,True,0.1,0.1,1.0,1.0,-0.30493386349158474,0.4268133503414527,0,False,True,0.14637329931709464,0.9699260794716078,1,False,False,0.14637329931709464,0.20679869652233254,0,False,True,0.586402606955335,024
109,"{'mean': -0.3, 'sd': 0.37}",-0.1,1,0.5163609981536865,0,"(1, 2)",110,0,False,0.0,1,0,0,0.0,True,True,-0.1,0.1,-1.0,-0.2,-0.6609491492877725,0.319625804712293,0,False,True,0.36074839057541397,0.03007392052839214,0,False,True,0.36074839057541397,0.18954224938415726,0,False,True,0.6209155012316855,024
110,"{'mean': -0.3, 'sd': 0.37}",-0.1,0,0.6572117805480957,0,"(0, 3)",111,0,False,0.0,1,0,0,0.0,True,True,-0.1,0.1,-1.0,0.0,-0.4197489676173934,0.29351435463925235,0,False,True,0.4129712907214953,0.03007392052839214,0,False,True,0.4129712907214953,0.17879583417633113,0,False,True,0.6424083316473377,024
111,"{'mean': -0.3, 'sd': 0.37}",-0.7,1,0.6072201728820801,0,"(1, 3)",112,0,False,0.0,1,0,0,0.0,True,True,-0.7,0.7,-1.0,-0.6,-0.4988638306560072,0.021770649877688328,0,False,True,0.9564587002446233,0.03007392052839214,0,False,True,0.9564587002446233,0.01135079203095201,0,False,True,0.977298415938096,024
112,"{'mean': -0.3, 'sd': 0.37}",-0.3,0,0.5565440654754639,0,"(0, 3)",113,0,False,0.0,1,0,0,0.0,True,True,-0.3,0.3,-1.0,0.39999999999999997,-0.5860089281570455,0.10095923257029345,0,False,True,0.7980815348594131,0.03007392052839214,0,False,True,0.7980815348594131,0.029925418291660438,0,False,True,0.9401491634166791,024
113,"{'mean': 0.3, 'sd': 0.37}",0.5,2,0.7348558902740479,1,"(0, 2)",114,1,False,1.0,0,1,1,1.0,True,True,0.5,0.5,1.0,0.8,-0.3080808666474324,0.841412636691712,1,True,True,0.6828252733834239,0.9699260794716078,1,True,True,0.6828252733834239,0.6041037979666222,1,True,True,0.20820759593324434,024
114,"{'mean': 0.3, 'sd': 0.37}",0.1,2,1.3070628643035889,1,"(1, 2)",115,1,True,0.0,0,1,1,0.0,True,True,0.1,0.1,1.0,-0.4,0.2677825316518848,0.6608737106124988,1,False,True,0.32174742122499755,0.9699260794716078,1,False,True,0.32174742122499755,0.6983698114758727,1,False,True,0.3967396229517455,024
115,"{'mean': 0.3, 'sd': 0.37}",0.1,3,1.1604688167572021,1,"(0, 3)",116,1,False,0.0,0,1,1,0.0,True,True,0.1,0.1,1.0,0.0,0.14882407584759777,0.612265935712501,1,False,True,0.22453187142500197,0.9699260794716078,1,False,True,0.22453187142500197,0.7611930722640634,1,False,True,0.5223861445281268,024
116,"{'mean': 0.3, 'sd': 0.37}",0.3,2,0.7318911552429199,1,"(1, 2)",117,1,False,0.0,0,1,1,0.0,True,True,0.3,0.3,1.0,0.19999999999999998,-0.31212347110035993,0.7917812276993107,1,False,True,0.5835624553986214,0.9699260794716078,1,False,True,0.5835624553986214,0.9109561171675006,1,False,True,0.8219122343350012,024
117,"{'mean': 0.3, 'sd': 0.37}",0.3,3,0.8824338912963867,1,"(1, 3)",118,1,False,0.0,0,1,1,0.0,True,True,0.3,0.3,1.0,0.0,-0.12507140369294242,0.8239445024099877,1,False,True,0.6478890048199755,0.9699260794716078,1,False,True,0.6478890048199755,0.9528649023793627,1,False,True,0.9057298047587254,024
118,"{'mean': 0.3, 'sd': 0.37}",-0.1,1,1.1567280292510986,1,"(1, 2)",119,1,False,0.0,1,0,0,1.0,False,True,-0.1,0.1,-1.0,-0.4,0.1455953551092253,0.4259506067627851,0,True,True,0.14809878647442976,0.03007392052839214,0,True,True,0.14809878647442976,0.7992156613738111,1,False,False,0.5984313227476221,024
119,"{'mean': 0.3, 'sd': 0.37}",0.5,3,0.7918767929077148,1,"(1, 3)",120,1,False,0.0,0,1,1,1.0,True,True,0.5,0.5,1.0,0.6,-0.23334946377958576,0.8856791303998174,1,True,True,0.7713582607996348,0.9699260794716078,1,True,True,0.7713582607996348,0.9677384389137342,1,False,True,0.9354768778274685,024
120,"{'mean': 0.3, 'sd': 0.37}",0.1,3,1.0554649829864502,1,"(1, 3)",121,1,True,0.0,0,1,1,0.0,True,True,0.1,0.1,1.0,-0.4,0.05398141199698135,0.6725907577976185,1,False,True,0.3451815155952369,0.9699260794716078,1,False,True,0.3451815155952369,0.9190066041883634,1,False,True,0.8380132083767269,024
121,"{'mean': 0.3, 'sd': 0.37}",0.3,3,0.9318490028381348,1,"(1, 3)",122,1,True,0.0,0,1,1,0.0,True,True,0.3,0.3,1.0,0.19999999999999998,-0.07058449154442448,0.8029658271453748,1,False,True,0.6059316542907496,0.9699260794716078,1,False,True,0.6059316542907496,0.9548702564010237,1,False,True,0.9097405128020475,024
122,"{'mean': 0.3, 'sd': 0.37}",0.7,2,0.870837926864624,1,"(1, 2)",123,1,False,0.0,0,1,1,0.0,True,True,0.7,0.7,1.0,0.39999999999999997,-0.1382993965226246,0.9675384657334827,1,False,True,0.9350769314669654,0.9699260794716078,1,False,True,0.9350769314669654,0.9940155637407739,1,False,True,0.9880311274815479,024
123,"{'mean': 0.3, 'sd': 0.37}",-0.1,0,0.9403250217437744,1,"(0, 3)",124,1,False,0.0,1,0,0,1.0,False,True,-0.1,0.1,-1.0,-0.7999999999999999,-0.06152969566947569,0.4685962823429429,0,True,True,0.06280743531411415,0.03007392052839214,0,True,True,0.06280743531411415,0.8438566929882414,1,False,False,0.6877133859764828,024
124,"{'mean': 0.3, 'sd': 0.37}",0.3,2,1.028198003768921,1,"(0, 2)",125,1,False,0.0,0,1,1,1.0,True,True,0.3,0.3,1.0,0.4,0.02780775915607629,0.7634558526367953,1,True,True,0.5269117052735905,0.9699260794716078,1,True,True,0.5269117052735905,0.935228134307936,1,False,True,0.8704562686158721,024
125,"{'mean': 0.3, 'sd': 0.37}",-0.3,0,0.9808039665222168,1,"(0, 2)",126,1,False,0.0,1,0,0,1.0,False,True,-0.3,0.3,-1.0,-0.6,-0.01938266963808144,0.21005540889929764,0,True,True,0.5798891822014047,0.03007392052839214,0,True,True,0.5798891822014047,0.5777574801967367,1,False,False,0.15551496039347334,024
126,"{'mean': 0.3, 'sd': 0.37}",-0.3,1,0.9398910999298096,1,"(1, 2)",127,1,False,0.0,1,0,0,0.0,False,True,-0.3,0.3,-1.0,0.0,-0.06199126156784942,0.12337318330519785,0,False,True,0.7532536333896043,0.03007392052839214,0,False,True,0.7532536333896043,0.24115063685472626,0,True,True,0.5176987262905475,024
127,"{'mean': 0.3, 'sd': 0.37}",0.5,2,1.0717809200286865,1,"(0, 2)",128,1,False,0.0,0,1,1,1.0,True,True,0.5,0.5,1.0,0.8,0.0693216761182243,0.8449649794570387,1,True,True,0.6899299589140775,0.9699260794716078,1,True,True,0.6899299589140775,0.815570933273687,1,True,True,0.631141866547374,024
128,"{'mean': 0.3, 'sd': 0.37}",0.1,3,0.9922769069671631,1,"(0, 3)",129,1,False,0.0,0,1,1,0.0,True,True,0.1,0.1,1.0,-0.4,-0.007753070561743966,0.6618168748968668,1,False,True,0.3236337497937336,0.9699260794716078,1,False,True,0.3236337497937336,0.8335164403012275,1,False,True,0.667032880602455,024
129,"{'mean': 0.3, 'sd': 0.37}",0.7,3,0.8382000923156738,1,"(0, 3)",130,1,True,0.0,0,1,1,0.0,True,True,0.7,0.7,1.0,0.6,-0.1764984333555554,0.9619772379191591,1,False,True,0.9239544758383182,0.9699260794716078,1,False,True,0.9239544758383182,0.9885889765540036,1,False,True,0.9771779531080071,024
130,"{'mean': 0.3, 'sd': 0.37}",0.3,2,1.0688440799713135,1,"(1, 2)",131,1,False,0.0,0,1,1,0.0,True,True,0.3,0.3,1.0,-0.39999999999999997,0.06657776543792632,0.851565433431714,1,False,True,0.703130866863428,0.9699260794716078,1,False,True,0.703130866863428,0.9713097532577102,1,False,True,0.9426195065154204,024
131,"{'mean': 0.3, 'sd': 0.37}",1.0,2,0.6935329437255859,1,"(0, 2)",132,1,True,0.0,0,1,1,0.0,True,True,1.0,1.0,1.0,0.7,-0.3659565367858111,0.9918675677394877,1,False,True,0.9837351354789754,0.9699260794716078,1,False,True,0.9837351354789754,0.9986130493983213,1,False,True,0.9972260987966426,024
132,"{'mean': 0.3, 'sd': 0.37}",0.5,2,0.5313661098480225,1,"(1, 2)",133,1,True,0.0,0,1,1,0.0,True,True,0.5,0.5,1.0,-0.5,-0.6323040229102806,0.9374983627799104,1,False,True,0.8749967255598208,0.9699260794716078,1,False,True,0.8749967255598208,0.9893356620681824,1,False,True,0.9786713241363647,024
133,"{'mean': -0.3, 'sd': 0.37}",-0.3,0,0.7369449138641357,0,"(0, 3)",134,0,False,1.0,1,0,0,1.0,True,True,-0.3,0.3,-1.0,-0.8,-0.30524213332555317,0.24643601967738304,0,True,True,0.5071279606452339,0.03007392052839214,0,True,True,0.5071279606452339,0.6667159497965551,1,False,False,0.33343189959311026,024
134,"{'mean': -0.3, 'sd': 0.37}",-0.5,0,0.5299210548400879,0,"(0, 3)",135,0,True,0.0,1,0,0,0.0,True,True,-0.5,0.5,-1.0,-0.2,-0.6350272366624986,0.052953947204208165,0,False,True,0.8940921055915837,0.03007392052839214,0,False,True,0.8940921055915837,0.13982958198120926,0,True,True,0.7203408360375815,024
135,"{'mean': -0.3, 'sd': 0.37}",-0.7,1,0.5679960250854492,0,"(1, 3)",136,0,False,0.0,1,0,0,0.0,True,True,-0.7,0.7,-1.0,-0.19999999999999996,-0.5656408583744703,0.01646640439142062,0,False,True,0.9670671912171588,0.03007392052839214,0,False,True,0.9670671912171588,0.009534193553994846,0,False,True,0.9809316128920103,024
136,"{'mean': -0.3, 'sd': 0.37}",-0.7,0,0.5765759944915771,0,"(0, 3)",137,0,False,0.0,1,0,0,0.0,True,True,-0.7,0.7,-1.0,0.0,-0.5506481275068428,0.015757142637258408,0,False,True,0.9684857147254832,0.03007392052839214,0,False,True,0.9684857147254832,0.004342843726833256,0,False,True,0.9913143125463335,024
137,"{'mean': -0.3, 'sd': 0.37}",-0.1,1,0.6928560733795166,0,"(1, 2)",138,0,False,0.0,1,0,0,0.0,True,True,-0.1,0.1,-1.0,0.6,-0.3669329876830682,0.22464746952522194,0,False,True,0.5507050609495561,0.03007392052839214,0,False,True,0.5507050609495561,0.07034439288336497,0,False,True,0.8593112142332701,024
138,"{'mean': 0.3, 'sd': 0.37}",0.1,1,0.8103899955749512,1,"(1, 2)",139,1,True,1.0,1,0,0,0.0,False,True,0.1,0.1,1.0,0.2,-0.21023967116958084,0.48909573817611846,0,False,True,0.02180852364776309,0.9699260794716078,1,False,False,0.02180852364776309,0.2367704672328344,0,False,True,0.5264590655343312,024
139,"{'mean': 0.3, 'sd': 0.37}",0.3,2,0.5332520008087158,1,"(1, 2)",140,1,False,0.0,0,1,1,1.0,True,True,0.3,0.3,1.0,0.19999999999999998,-0.6287611695351081,0.7676511222161853,1,True,True,0.5353022444323705,0.9699260794716078,1,True,True,0.5353022444323705,0.6330806381141818,1,True,True,0.2661612762283636,024
140,"{'mean': 0.3, 'sd': 0.37}",0.3,3,0.8385119438171387,1,"(1, 3)",141,1,False,0.0,0,1,1,0.0,True,True,0.3,0.3,1.0,0.0,-0.17612645355420561,0.8198121351887335,1,False,True,0.639624270377467,0.9699260794716078,1,False,True,0.639624270377467,0.8664497398779502,1,False,True,0.7328994797559003,024
141,"{'mean': 0.3, 'sd': 0.37}",0.1,2,1.0324101448059082,1,"(0, 3)",142,1,False,0.0,0,0,1,0.0,False,False,0.1,0.1,1.0,-0.19999999999999998,0.03189601524363221,0.655127789443671,1,False,True,0.310255578887342,0.9699260794716078,1,False,True,0.310255578887342,0.8630972495139622,1,False,True,0.7261944990279243,024
142,"{'mean': 0.3, 'sd': 0.37}",0.3,2,0.698477029800415,1,"(0, 2)",143,1,True,0.0,0,1,1,0.0,True,True,0.3,0.3,1.0,0.19999999999999998,-0.35885298586462117,0.799768835151174,1,False,True,0.5995376703023481,0.9699260794716078,1,False,True,0.5995376703023481,0.9404607033897302,1,False,True,0.8809214067794604,024
143,"{'mean': 0.3, 'sd': 0.37}",0.9,2,0.6769061088562012,1,"(0, 3)",144,1,True,0.0,0,0,1,0.0,False,False,0.9,0.9,1.0,0.6000000000000001,-0.3902227027539751,0.9865416086285891,1,False,True,0.9730832172571782,0.9699260794716078,1,False,True,0.9730832172571782,0.997329327943383,1,False,True,0.994658655886766,024
144,"{'mean': 0.3, 'sd': 0.37}",0.7,3,0.4757659435272217,1,"(0, 3)",145,1,False,0.0,0,1,1,0.0,True,True,0.7,0.7,1.0,-0.20000000000000007,-0.7428292609612651,0.9737991543724942,1,False,True,0.9475983087449884,0.9699260794716078,1,False,True,0.9475983087449884,0.995649327161386,1,False,True,0.991298654322772,024
145,"{'mean': 0.3, 'sd': 0.37}",-0.1,1,0.8249740600585938,1,"(1, 3)",146,1,False,0.0,1,0,0,1.0,False,True,-0.1,0.1,-1.0,-0.7999999999999999,-0.1924033354949969,0.4705120100301224,0,True,True,0.05897597993975523,0.03007392052839214,0,True,True,0.05897597993975523,0.8456605997680907,1,False,False,0.6913211995361814,024
146,"{'mean': 0.3, 'sd': 0.37}",0.3,2,0.9159719944000244,1,"(1, 2)",147,1,False,0.0,0,1,1,1.0,True,True,0.3,0.3,1.0,0.4,-0.08776948857449489,0.7638501736884658,1,True,True,0.5277003473769315,0.9699260794716078,1,True,True,0.5277003473769315,0.9357249900962066,1,False,True,0.8714499801924132,024
147,"{'mean': 0.3, 'sd': 0.37}",0.7,2,1.1139750480651855,1,"(1, 2)",148,1,True,0.0,0,1,1,0.0,True,True,0.7,0.7,1.0,0.39999999999999997,0.10793474274902258,0.9660690154954741,1,False,True,0.9321380309909482,0.9699260794716078,1,False,True,0.9321380309909482,0.9932380914225855,1,False,True,0.9864761828451709,024
148,"{'mean': 0.3, 'sd': 0.37}",0.5,3,0.7126998901367188,1,"(1, 3)",149,1,False,0.0,0,1,1,0.0,True,True,0.5,0.5,1.0,-0.19999999999999996,-0.33869485862513243,0.9356099471317685,1,False,True,0.871219894263537,0.9699260794716078,1,False,True,0.871219894263537,0.988843760141721,1,False,True,0.9776875202834421,024
149,"{'mean': 0.3, 'sd': 0.37}",-0.3,1,1.030555009841919,1,"(1, 2)",150,1,False,0.0,1,0,0,1.0,False,True,-0.3,0.3,-1.0,-0.8,0.030097501623691326,0.24601005587838676,0,True,True,0.5079798882432265,0.03007392052839214,0,True,True,0.5079798882432265,0.6658286866944014,1,False,False,0.33165737338880286,024
150,"{'mean': 0.3, 'sd': 0.37}",-0.1,1,0.7720291614532471,1,"(1, 2)",151,1,True,0.0,1,0,0,0.0,False,True,-0.1,0.1,-1.0,0.19999999999999998,-0.258732955767607,0.2761530245516041,0,False,True,0.44769395089679176,0.03007392052839214,0,False,True,0.44769395089679176,0.5252409140027501,1,False,False,0.05048182800550016,024
151,"{'mean': 0.3, 'sd': 0.37}",0.3,2,0.8125109672546387,1,"(1, 2)",152,1,False,0.0,0,1,1,1.0,True,True,0.3,0.3,1.0,0.4,-0.20762586670978855,0.721300713633111,1,True,True,0.442601427266222,0.9699260794716078,1,True,True,0.442601427266222,0.8205109619433387,1,False,True,0.6410219238866774,024
152,"{'mean': 0.3, 'sd': 0.37}",0.5,3,1.0763449668884277,1,"(0, 3)",153,1,False,0.0,0,1,1,0.0,True,True,0.5,0.5,1.0,0.2,0.07357101155543402,0.9157128104627862,1,False,True,0.8314256209255724,0.9699260794716078,1,False,True,0.8314256209255724,0.9704258741074185,1,False,True,0.9408517482148371,024
153,"{'mean': 0.3, 'sd': 0.37}",1.0,2,0.875248908996582,1,"(0, 2)",154,1,False,0.0,0,1,1,0.0,True,True,1.0,1.0,1.0,0.5,-0.13324696565304373,0.9924643614413149,1,False,True,0.9849287228826298,0.9699260794716078,1,False,True,0.9849287228826298,0.9986040984746185,1,False,True,0.997208196949237,024
154,"{'mean': 0.3, 'sd': 0.37}",0.5,3,0.765739917755127,1,"(0, 3)",155,1,False,0.0,0,1,1,0.0,True,True,0.5,0.5,1.0,-0.5,-0.2669126998526642,0.9375416230995622,1,False,True,0.8750832461991245,0.9699260794716078,1,False,True,0.8750832461991245,0.9893348464013128,1,False,True,0.9786696928026255,024
155,"{'mean': 0.3, 'sd': 0.37}",0.5,3,0.8222939968109131,1,"(1, 3)",156,1,True,0.0,0,1,1,0.0,True,True,0.5,0.5,1.0,0.0,-0.195657287517266,0.9334792010649633,1,False,True,0.8669584021299266,0.9699260794716078,1,False,True,0.8669584021299266,0.9884838884216739,1,False,True,0.9769677768433478,024
156,"{'mean': 0.3, 'sd': 0.37}",0.3,2,0.9264068603515625,1,"(0, 2)",157,1,False,0.0,0,1,1,0.0,True,True,0.3,0.3,1.0,-0.2,-0.07644176680269722,0.8471184173616789,1,False,True,0.6942368347233578,0.9699260794716078,1,False,True,0.6942368347233578,0.9712860704096247,1,False,True,0.9425721408192493,024
157,"{'mean': 0.3, 'sd': 0.37}",0.1,3,0.8178839683532715,1,"(0, 3)",158,1,False,0.0,0,1,1,0.0,True,True,0.1,0.1,1.0,-0.19999999999999998,-0.20103480041965174,0.6623883775240579,1,False,True,0.32477675504811576,0.9699260794716078,1,False,True,0.32477675504811576,0.9208966445431187,1,False,True,0.8417932890862374,024
158,"{'mean': 0.3, 'sd': 0.37}",0.7,3,0.9307849407196045,1,"(0, 3)",159,1,True,0.0,0,1,1,0.0,True,True,0.7,0.7,1.0,0.6,-0.07172702654220171,0.9620012681745465,1,False,True,0.9240025363490929,0.9699260794716078,1,False,True,0.9240025363490929,0.9926172895403141,1,False,True,0.9852345790806283,024
159,"{'mean': 0.3, 'sd': 0.37}",0.1,2,0.9603300094604492,1,"(1, 3)",160,1,False,0.0,0,0,1,0.0,False,False,0.1,0.1,1.0,-0.6,-0.04047829373750205,0.6926108814645906,1,False,True,0.3852217629291812,0.9699260794716078,1,False,True,0.3852217629291812,0.932167848836972,1,False,True,0.864335697673944,024
160,"{'mean': 0.3, 'sd': 0.37}",-0.1,0,0.9058430194854736,1,"(0, 2)",161,1,False,0.0,1,0,0,1.0,False,True,-0.1,0.1,-1.0,-0.2,-0.09888925562781334,0.38899908359012236,0,True,True,0.22200183281975527,0.03007392052839214,0,True,True,0.22200183281975527,0.7773263275305151,1,False,False,0.5546526550610302,024
161,"{'mean': 0.3, 'sd': 0.37}",0.3,3,0.9874000549316406,1,"(0, 3)",162,1,False,0.0,0,1,1,1.0,True,True,0.3,0.3,1.0,0.4,-0.012679997524764557,0.7466466646047606,1,True,True,0.4932933292095212,0.9699260794716078,1,True,True,0.4932933292095212,0.9159365782972544,1,False,True,0.8318731565945088,024
162,"{'mean': -0.3, 'sd': 0.37}",-1.0,0,1.3003709316253662,0,"(0, 2)",163,0,False,1.0,1,0,0,1.0,True,True,-1.0,1.0,-1.0,-1.3,0.26264955578756455,0.00841950048412986,0,True,True,0.9831609990317403,0.03007392052839214,0,True,True,0.9831609990317403,0.038240783455386146,0,True,True,0.9235184330892277,024
163,"{'mean': -0.3, 'sd': 0.37}",-0.5,0,0.599186897277832,0,"(0, 3)",164,0,True,0.0,1,0,0,0.0,True,True,-0.5,0.5,-1.0,0.5,-0.5121817140445293,0.04036272416421719,0,False,True,0.9192745516715656,0.03007392052839214,0,False,True,0.9192745516715656,0.014161033683601335,0,False,True,0.9716779326327973,024
164,"{'mean': -0.3, 'sd': 0.37}",0.1,0,0.8791441917419434,0,"(0, 2)",165,0,True,0.0,1,0,0,0.0,True,True,0.1,0.1,1.0,0.6,-0.12880635408810662,0.4344741449494489,0,False,True,0.13105171010110217,0.9699260794716078,1,False,False,0.13105171010110217,0.17422628828893694,0,False,True,0.6515474234221261,024
165,"{'mean': 0.3, 'sd': 0.37}",0.1,0,0.9660639762878418,1,"(0, 3)",166,1,True,1.0,1,0,0,0.0,False,True,0.1,0.1,1.0,0.0,-0.03452521892135486,0.5493833619778913,1,True,False,0.09876672395578256,0.9699260794716078,1,True,False,0.09876672395578256,0.344052380081096,0,False,True,0.311895239837808,024
166,"{'mean': 0.3, 'sd': 0.37}",-0.1,1,1.1789250373840332,1,"(1, 2)",167,1,False,0.0,1,0,0,0.0,False,True,-0.1,0.1,-1.0,-0.2,0.16460303801054646,0.35076283675414927,0,True,True,0.29847432649170147,0.03007392052839214,0,True,True,0.29847432649170147,0.279341617428747,0,False,True,0.44131676514250595,024
167,"{'mean': 0.3, 'sd': 0.37}",0.3,3,1.0160210132598877,1,"(1, 3)",168,1,False,0.0,0,1,1,1.0,True,True,0.3,0.3,1.0,0.4,0.015894031284822602,0.7382651840418611,1,True,True,0.4765303680837223,0.9699260794716078,1,True,True,0.4765303680837223,0.6692736357939799,1,True,True,0.33854727158795983,024
168,"{'mean': 0.3, 'sd': 0.37}",-0.3,1,0.9061050415039062,1,"(1, 3)",169,1,False,0.0,1,0,0,1.0,False,True,-0.3,0.3,-1.0,-0.6,-0.09860003980987651,0.20523167158873956,0,True,True,0.5895366568225209,0.03007392052839214,0,True,True,0.5895366568225209,0.3010356460763938,0,True,True,0.39792870784721235,024
169,"{'mean': 0.3, 'sd': 0.37}",0.1,0,0.9020540714263916,1,"(0, 2)",170,1,False,0.0,1,0,0,0.0,False,True,0.1,0.1,1.0,0.4,-0.10308081456721907,0.4834159987030953,0,False,True,0.033168002593809365,0.9699260794716078,1,False,False,0.033168002593809365,0.462105256932953,0,False,True,0.07578948613409398,024
170,"{'mean': 0.3, 'sd': 0.37}",0.3,2,0.8270680904388428,1,"(0, 2)",171,1,False,0.0,0,1,1,1.0,True,True,0.3,0.3,1.0,0.19999999999999998,-0.18986825308068464,0.7664940750863543,1,True,True,0.5329881501727085,0.9699260794716078,1,True,True,0.5329881501727085,0.7889228242974029,1,True,True,0.5778456485948058,024
171,"{'mean': 0.3, 'sd': 0.37}",0.3,2,0.6618130207061768,1,"(0, 2)",172,1,True,0.0,0,1,1,0.0,True,True,0.3,0.3,1.0,0.0,-0.41277220900370765,0.8196125619366195,1,False,True,0.6392251238732389,0.9699260794716078,1,False,True,0.6392251238732389,0.9194405356183026,1,False,True,0.8388810712366053,024
172,"{'mean': 0.3, 'sd': 0.37}",0.1,3,1.0568020343780518,1,"(0, 3)",173,1,False,0.0,0,1,1,0.0,True,True,0.1,0.1,1.0,-0.19999999999999998,0.05524739926013222,0.6550746139093885,1,False,True,0.31014922781877696,0.9699260794716078,1,False,True,0.31014922781877696,0.8928245280167747,1,False,True,0.7856490560335494,024
173,"{'mean': 0.3, 'sd': 0.37}",0.7,2,1.4177830219268799,1,"(1, 2)",174,1,False,0.0,0,1,1,0.0,True,True,0.7,0.7,1.0,0.6,0.3490943994248313,0.9616927480387423,1,False,True,0.9233854960774845,0.9699260794716078,1,False,True,0.9233854960774845,0.9913948907732991,1,False,True,0.9827897815465982,024
174,"{'mean': -0.3, 'sd': 0.37}",-0.1,1,1.1409862041473389,0,"(1, 2)",175,0,False,1.0,1,0,0,1.0,True,True,-0.1,0.1,-1.0,-0.7999999999999999,0.1318929797878573,0.46681190396208455,0,True,True,0.0663761920758309,0.03007392052839214,0,True,True,0.0663761920758309,0.8409682140052755,1,False,False,0.6819364280105511,024
175,"{'mean': -0.3, 'sd': 0.37}",-0.5,0,0.829369068145752,0,"(0, 2)",176,0,False,0.0,1,0,0,0.0,True,True,-0.5,0.5,-1.0,-0.4,-0.18709002611928052,0.06719217930349049,0,False,True,0.865615641393019,0.03007392052839214,0,False,True,0.865615641393019,0.2416760464640701,0,True,True,0.5166479070718598,024
176,"{'mean': -0.3, 'sd': 0.37}",-0.5,0,0.6089248657226562,0,"(0, 2)",177,0,True,0.0,1,0,0,0.0,True,True,-0.5,0.5,-1.0,0.0,-0.49606039208094777,0.04324628102856554,0,False,True,0.9135074379428689,0.03007392052839214,0,False,True,0.9135074379428689,0.03783398402028657,0,False,True,0.9243320319594268,024
177,"{'mean': -0.3, 'sd': 0.37}",-0.5,0,0.7351710796356201,0,"(0, 3)",178,0,True,0.0,1,0,0,0.0,True,True,-0.5,0.5,-1.0,0.0,-0.3076520454450274,0.042055024939991914,0,False,True,0.9158899501200162,0.03007392052839214,0,False,True,0.9158899501200162,0.014121601713390277,0,False,True,0.9717567965732195,024
178,"{'mean': -0.3, 'sd': 0.37}",-0.3,0,0.48487091064453125,0,"(0, 3)",179,0,True,0.0,1,0,0,0.0,True,True,-0.3,0.3,-1.0,0.2,-0.7238725870919998,0.10324180341923433,0,False,True,0.7935163931615313,0.03007392052839214,0,False,True,0.7935163931615313,0.030577289875034868,0,False,True,0.9388454202499302,024
179,"{'mean': -0.3, 'sd': 0.37}",-0.3,0,0.4339408874511719,0,"(0, 3)",180,0,True,0.0,1,0,0,0.0,True,True,-0.3,0.3,-1.0,0.0,-0.8348469581879012,0.11031349396062858,0,False,True,0.7793730120787429,0.03007392052839214,0,False,True,0.7793730120787429,0.034497998735614786,0,False,True,0.9310040025287705,024
180,"{'mean': -0.3, 'sd': 0.37}",-0.1,0,0.44501495361328125,0,"(0, 3)",181,0,True,0.0,1,0,0,0.0,True,True,-0.1,0.1,-1.0,0.19999999999999998,-0.8096473937551348,0.24530451807346354,0,False,True,0.5093909638530729,0.03007392052839214,0,False,True,0.5093909638530729,0.08718895957449162,0,False,True,0.8256220808510167,024
181,"{'mean': 0.3, 'sd': 0.37}",0.7,3,0.8788669109344482,1,"(1, 3)",182,1,False,1.0,0,1,1,1.0,True,True,0.7,0.7,1.0,0.7999999999999999,-0.12912180239144475,0.9401023593052148,1,True,True,0.8802047186104296,0.9699260794716078,1,True,True,0.8802047186104296,0.8455494439061221,1,True,True,0.6910988878122442,024
182,"{'mean': -0.3, 'sd': 0.37}",-1.0,2,1.2003381252288818,0,"(0, 2)",183,0,False,1.0,0,1,1,0.0,False,True,-1.0,1.0,-1.0,-1.7,0.18260328812802332,0.010569837572544101,0,True,False,0.9788603248549118,0.03007392052839214,0,True,False,0.9788603248549118,0.027074655896389722,0,True,False,0.9458506882072205,024
183,"{'mean': 0.3, 'sd': 0.37}",0.1,3,1.1363651752471924,1,"(1, 3)",184,1,False,1.0,0,1,1,0.0,True,True,0.1,0.1,1.0,1.1,0.12783472572649723,0.4254917049458024,0,False,False,0.14901659010839519,0.9699260794716078,1,False,True,0.14901659010839519,0.1889029019448828,0,False,False,0.6221941961102344,024
184,"{'mean': 0.3, 'sd': 0.37}",0.7,2,0.7296099662780762,1,"(1, 2)",185,1,False,0.0,0,1,1,0.0,True,True,0.7,0.7,1.0,0.6,-0.3152451803947025,0.9507712971653621,1,True,True,0.9015425943307243,0.9699260794716078,1,True,True,0.9015425943307243,0.8993996774475598,1,True,True,0.7987993548951196,024
185,"{'mean': 0.3, 'sd': 0.37}",-0.1,0,0.9328229427337646,1,"(1, 2)",186,1,False,0.0,0,0,0,1.0,False,False,-0.1,0.1,-1.0,-0.7999999999999999,-0.06953986813330981,0.4634894392333724,0,True,True,0.07302112153325524,0.03007392052839214,0,True,True,0.07302112153325524,0.7434121710475138,1,False,False,0.48682434209502756,024
186,"{'mean': 0.3, 'sd': 0.37}",0.1,2,0.8757410049438477,1,"(1, 3)",187,1,False,0.0,0,0,1,1.0,False,False,0.1,0.1,1.0,0.2,-0.13268488821752739,0.5575656972807947,1,True,True,0.1151313945615895,0.9699260794716078,1,True,True,0.1151313945615895,0.7897088181993568,1,False,True,0.5794176363987136,024
187,"{'mean': -0.3, 'sd': 0.37}",-0.9,0,0.8461399078369141,0,"(0, 2)",188,0,False,1.0,1,0,0,1.0,True,True,-0.9,0.9,-1.0,-1.0,-0.16707055735521453,0.011104834345971622,0,True,True,0.9777903313080567,0.03007392052839214,0,True,True,0.9777903313080567,0.034742244750983406,0,True,True,0.9305155104980332,024
188,"{'mean': -0.3, 'sd': 0.37}",-0.3,1,0.4748189449310303,0,"(1, 2)",189,0,False,0.0,1,0,0,0.0,True,True,-0.3,0.3,-1.0,0.6000000000000001,-0.744821716176951,0.09977100299228969,0,False,True,0.8004579940154206,0.03007392052839214,0,False,True,0.8004579940154206,0.03550391966111645,0,False,True,0.9289921606777671,024
189,"{'mean': -0.3, 'sd': 0.37}",-0.7,0,0.8207359313964844,0,"(0, 2)",190,0,False,0.0,1,0,0,0.0,True,True,-0.7,0.7,-1.0,-0.39999999999999997,-0.19755386390301566,0.01741005648858684,0,False,True,0.9651798870228263,0.03007392052839214,0,False,True,0.9651798870228263,0.0052827324936443295,0,False,True,0.9894345350127114,024
190,"{'mean': -0.3, 'sd': 0.37}",-0.5,1,0.6175141334533691,0,"(1, 2)",191,0,False,0.0,1,0,0,0.0,True,True,-0.5,0.5,-1.0,0.19999999999999996,-0.48205332255834155,0.04079511467086566,0,False,True,0.9184097706582687,0.03007392052839214,0,False,True,0.9184097706582687,0.011049322775079242,0,False,True,0.9779013544498415,024
191,"{'mean': -0.3, 'sd': 0.37}",-0.7,0,0.6953611373901367,0,"(0, 2)",192,0,False,0.0,1,0,0,0.0,True,True,-0.7,0.7,-1.0,-0.19999999999999996,-0.3633239462301006,0.016227571798572996,0,False,True,0.967544856402854,0.03007392052839214,0,False,True,0.967544856402854,0.0043965256960064765,0,False,True,0.9912069486079871,024
192,"{'mean': -0.3, 'sd': 0.37}",-0.3,1,1.08760404586792,0,"(1, 3)",193,0,False,0.0,1,0,0,0.0,True,True,-0.3,0.3,-1.0,0.39999999999999997,0.08397715376550798,0.10034068184812855,0,False,True,0.7993186363037429,0.03007392052839214,0,False,True,0.7993186363037429,0.02829968467723673,0,False,True,0.9434006306455265,024
193,"{'mean': -0.3, 'sd': 0.37}",-0.5,1,0.5463311672210693,0,"(1, 3)",194,0,True,0.0,1,0,0,0.0,True,True,-0.5,0.5,-1.0,-0.2,-0.6045299537323319,0.044933971590925846,0,False,True,0.9101320568181483,0.03007392052839214,0,False,True,0.9101320568181483,0.013204889743715729,0,False,True,0.9735902205125685,024
194,"{'mean': -0.3, 'sd': 0.37}",-0.5,0,0.501370906829834,0,"(0, 3)",195,0,False,0.0,1,0,0,0.0,True,True,-0.5,0.5,-1.0,0.0,-0.6904091188148803,0.042138234249224645,0,False,True,0.9157235315015507,0.03007392052839214,0,False,True,0.9157235315015507,0.011782249062345967,0,False,True,0.976435501875308,024
195,"{'mean': -0.3, 'sd': 0.37}",-0.7,1,0.6914768218994141,0,"(1, 3)",196,0,False,0.0,1,0,0,0.0,True,True,-0.7,0.7,-1.0,-0.19999999999999996,-0.3689256470227228,0.016253831007441988,0,False,True,0.967492337985116,0.03007392052839214,0,False,True,0.967492337985116,0.004422543962036774,0,False,True,0.9911549120759264,024
196,"{'mean': 0.3, 'sd': 0.37}",0.3,2,1.3516061305999756,1,"(0, 2)",197,1,False,1.0,0,1,1,1.0,True,True,0.3,0.3,1.0,1.0,0.30129361165710405,0.6550605920752302,1,True,True,0.3101211841504603,0.9699260794716078,1,True,True,0.3101211841504603,0.33154509522421305,0,False,False,0.3369098095515739,024
197,"{'mean': 0.3, 'sd': 0.37}",-0.1,1,1.3770661354064941,1,"(1, 2)",198,1,False,0.0,1,0,0,1.0,False,True,-0.1,0.1,-1.0,-0.4,0.31995524721082347,0.3787732335321216,0,True,True,0.24245353293575678,0.03007392052839214,0,True,True,0.24245353293575678,0.27082569316458927,0,False,True,0.45834861367082147,024
198,"{'mean': 0.3, 'sd': 0.37}",0.1,3,0.9013090133666992,1,"(1, 3)",199,1,False,0.0,0,1,1,1.0,True,True,0.1,0.1,1.0,0.2,-0.1039071130629208,0.5335718140224225,1,True,True,0.06714362804484497,0.9699260794716078,1,True,True,0.06714362804484497,0.43515720135092867,0,False,False,0.12968559729814266,024
199,"{'mean': 0.3, 'sd': 0.37}",0.7,2,0.8286011219024658,1,"(0, 2)",200,1,False,0.0,0,1,1,0.0,True,True,0.7,0.7,1.0,0.6,-0.1880163953662236,0.956230995126174,1,False,True,0.9124619902523481,0.9699260794716078,1,False,True,0.9124619902523481,0.9556487785851147,1,True,True,0.9112975571702293,024
200,"{'mean': 0.3, 'sd': 0.37}",0.3,2,0.6085431575775146,1,"(0, 3)",201,1,True,0.0,0,0,1,0.0,False,False,0.3,0.3,1.0,-0.39999999999999997,-0.49668744453792163,0.8506742570546467,1,False,True,0.7013485141092934,0.9699260794716078,1,False,True,0.7013485141092934,0.9637208592465334,1,False,True,0.9274417184930668,024
201,"{'mean': 0.3, 'sd': 0.37}",0.3,3,0.5645310878753662,1,"(0, 3)",202,1,False,0.0,0,1,1,0.0,True,True,0.3,0.3,1.0,0.0,-0.5717598253846802,0.833797611726222,1,False,True,0.667595223452444,0.9699260794716078,1,False,True,0.667595223452444,0.9656117538134272,1,False,True,0.9312235076268545,024
202,"{'mean': 0.3, 'sd': 0.37}",0.5,2,0.5380830764770508,1,"(0, 2)",203,1,False,0.0,0,1,1,0.0,True,True,0.5,0.5,1.0,0.2,-0.6197423134978792,0.9253301031769813,1,False,True,0.8506602063539626,0.9699260794716078,1,False,True,0.8506602063539626,0.9862472830803785,1,False,True,0.9724945661607569,024
203,"{'mean': 0.3, 'sd': 0.37}",0.9,3,0.5826969146728516,1,"(1, 3)",204,1,False,0.0,0,1,1,0.0,True,True,0.9,0.9,1.0,0.4,-0.5400880997281089,0.9883901046750844,1,False,True,0.9767802093501687,0.9699260794716078,1,False,True,0.9767802093501687,0.9980640434829375,1,False,True,0.9961280869658751,024
204,"{'mean': 0.3, 'sd': 0.37}",0.1,2,1.3636350631713867,1,"(1, 2)",205,1,False,0.0,0,1,1,0.0,True,True,0.1,0.1,1.0,-0.8,0.31015397462906835,0.6994799943428613,1,False,True,0.3989599886857227,0.9699260794716078,1,False,True,0.3989599886857227,0.9350204895268363,1,False,True,0.8700409790536725,024
205,"{'mean': 0.3, 'sd': 0.37}",-0.5,0,0.673267126083374,1,"(0, 2)",206,1,False,0.0,1,0,0,1.0,False,True,-0.5,0.5,-1.0,-0.6,-0.39561310968842106,0.0859289689362619,0,True,True,0.8281420621274762,0.03007392052839214,0,True,True,0.8281420621274762,0.3422562415707291,0,True,True,0.3154875168585418,024
206,"{'mean': 0.3, 'sd': 0.37}",0.3,3,0.9668779373168945,1,"(1, 3)",207,1,False,0.0,0,1,1,1.0,True,True,0.3,0.3,1.0,0.8,-0.03368301971046742,0.6740096182273959,1,True,True,0.3480192364547918,0.9699260794716078,1,True,True,0.3480192364547918,0.7162015337003493,1,True,True,0.43240306740069867,024
207,"{'mean': -0.3, 'sd': 0.37}",-0.1,0,0.7620358467102051,0,"(0, 2)",208,0,False,1.0,1,0,0,1.0,True,True,-0.1,0.1,-1.0,-0.4,-0.27176168147519625,0.38391519921835515,0,True,True,0.2321696015632897,0.03007392052839214,0,True,True,0.2321696015632897,0.5690780118069453,1,False,False,0.13815602361389057,024
208,"{'mean': -0.3, 'sd': 0.37}",0.1,1,0.7102479934692383,0,"(1, 2)",209,0,False,0.0,1,0,0,0.0,True,True,0.1,0.1,1.0,0.2,-0.3421410833567395,0.5350371957627545,1,True,False,0.0700743915255091,0.9699260794716078,1,True,False,0.0700743915255091,0.6738701069189106,1,False,False,0.34774021383782117,024
209,"{'mean': -0.3, 'sd': 0.37}",-0.1,1,1.0549259185791016,0,"(1, 3)",210,0,True,0.0,1,0,0,0.0,True,True,-0.1,0.1,-1.0,-0.2,0.053470545106233565,0.34704511464136495,0,True,True,0.3059097707172701,0.03007392052839214,0,True,True,0.3059097707172701,0.5321302209676022,1,False,False,0.06426044193520442,024
210,"{'mean': -0.3, 'sd': 0.37}",-0.5,1,0.7226839065551758,0,"(1, 2)",211,0,True,0.0,1,0,0,0.0,True,True,-0.5,0.5,-1.0,-0.4,-0.32478334944097437,0.05909884521792867,0,False,True,0.8818023095641426,0.03007392052839214,0,False,True,0.8818023095641426,0.09461741386999871,0,True,True,0.8107651722600026,024
211,"{'mean': -0.3, 'sd': 0.37}",-0.7,1,0.7083451747894287,0,"(1, 3)",212,0,True,0.0,1,0,0,0.0,True,True,-0.7,0.7,-1.0,-0.19999999999999996,-0.34482376908168116,0.016588068778191585,0,False,True,0.9668238624436168,0.03007392052839214,0,False,True,0.9668238624436168,0.007590803371384928,0,False,True,0.9848183932572302,024
212,"{'mean': -0.3, 'sd': 0.37}",-0.1,0,0.7208259105682373,0,"(0, 2)",213,0,False,0.0,1,0,0,0.0,True,True,-0.1,0.1,-1.0,0.6,-0.32735762637482163,0.22482611202702055,0,False,True,0.550347775945959,0.03007392052839214,0,False,True,0.550347775945959,0.07214429186761978,0,False,True,0.8557114162647604,024
213,"{'mean': -0.3, 'sd': 0.37}",-0.7,1,0.5665719509124756,0,"(1, 2)",214,0,False,0.0,1,0,0,0.0,True,True,-0.7,0.7,-1.0,-0.6,-0.568151197024869,0.02013396484276261,0,False,True,0.9597320703144748,0.03007392052839214,0,False,True,0.9597320703144748,0.006684165963986775,0,False,True,0.9866316680720264,024
214,"{'mean': 0.3, 'sd': 0.37}",0.9,2,0.7322368621826172,1,"(0, 2)",215,1,False,1.0,0,1,1,1.0,True,True,0.9,0.9,1.0,1.6,-0.31165123514556997,0.9673295842810733,1,True,True,0.9346591685621466,0.9699260794716078,1,True,True,0.9346591685621466,0.8869254949862002,1,True,True,0.7738509899724004,024
215,"{'mean': 0.3, 'sd': 0.37}",-0.3,0,0.7093198299407959,1,"(0, 3)",216,1,False,0.0,1,0,0,1.0,False,True,-0.3,0.3,-1.0,-1.2,-0.3434487541075125,0.2532644675439382,0,True,True,0.49347106491212356,0.03007392052839214,0,True,True,0.49347106491212356,0.510776242000016,1,False,False,0.02155248400003207,024
216,"{'mean': 0.3, 'sd': 0.37}",0.7,2,1.331157922744751,1,"(0, 2)",217,1,False,0.0,0,1,1,1.0,True,True,0.7,0.7,1.0,1.0,0.2860491820701866,0.9406219097537136,1,True,True,0.8812438195074273,0.9699260794716078,1,True,True,0.8812438195074273,0.9648364636653507,1,False,True,0.9296729273307014,024
217,"{'mean': 0.3, 'sd': 0.37}",0.5,3,0.8416979312896729,1,"(1, 3)",218,1,False,0.0,0,1,1,0.0,True,True,0.5,0.5,1.0,-0.19999999999999996,-0.1723340805439453,0.9337114666261942,1,False,True,0.8674229332523884,0.9699260794716078,1,False,True,0.8674229332523884,0.9861727246349827,1,False,True,0.9723454492699655,024
218,"{'mean': 0.3, 'sd': 0.37}",0.5,2,0.6578159332275391,1,"(0, 2)",219,1,False,0.0,0,1,1,0.0,True,True,0.5,0.5,1.0,0.0,-0.41883012352670174,0.9331896421548774,1,False,True,0.8663792843097549,0.9699260794716078,1,False,True,0.8663792843097549,0.9881906912791776,1,False,True,0.9763813825583552,024
219,"{'mean': 0.3, 'sd': 0.37}",-0.1,1,0.8483271598815918,1,"(1, 3)",220,1,False,0.0,1,0,0,1.0,False,True,-0.1,0.1,-1.0,-0.6,-0.16448891584543213,0.4581714389974282,0,True,True,0.08365712200514364,0.03007392052839214,0,True,True,0.08365712200514364,0.837445115729808,1,False,False,0.6748902314596159,024
220,"{'mean': 0.3, 'sd': 0.37}",0.3,2,0.7039358615875244,1,"(1, 2)",221,1,False,0.0,0,1,1,1.0,True,True,0.3,0.3,1.0,0.4,-0.35106803267401016,0.7613018167414439,1,True,True,0.5226036334828879,0.9699260794716078,1,True,True,0.5226036334828879,0.9334514676332191,1,False,True,0.8669029352664381,024
221,"{'mean': 0.3, 'sd': 0.37}",0.1,3,0.9861390590667725,1,"(1, 3)",222,1,False,0.0,0,1,1,0.0,True,True,0.1,0.1,1.0,-0.19999999999999998,-0.013957900787515451,0.6394690509106258,1,False,True,0.27893810182125156,0.9699260794716078,1,False,True,0.27893810182125156,0.9005073821956889,1,False,True,0.8010147643913779,024
222,"{'mean': 0.3, 'sd': 0.37}",0.5,2,0.8501369953155518,1,"(0, 2)",223,1,False,0.0,0,1,1,0.0,True,True,0.5,0.5,1.0,0.4,-0.162357771524946,0.9081424620686303,1,False,True,0.8162849241372605,0.9699260794716078,1,False,True,0.8162849241372605,0.9796386463257749,1,False,True,0.9592772926515498,024
223,"{'mean': 0.3, 'sd': 0.37}",1.0,2,0.6255040168762207,1,"(0, 2)",224,1,True,0.0,0,1,1,0.0,True,True,1.0,1.0,1.0,0.5,-0.46919752723132974,0.9923957371038543,1,False,True,0.9847914742077086,0.9699260794716078,1,False,True,0.9847914742077086,0.9986967009608512,1,False,True,0.9973934019217023,024
224,"{'mean': -0.3, 'sd': 0.37}",0.1,3,1.0128660202026367,0,"(0, 3)",225,0,False,1.0,0,1,1,0.0,False,True,0.1,0.1,1.0,-0.9,0.01278395610735957,0.7005203152401324,1,False,True,0.4010406304802647,0.9699260794716078,1,False,True,0.4010406304802647,0.9353511696721802,1,False,True,0.8707023393443605,024
225,"{'mean': 0.3, 'sd': 0.37}",0.7,2,0.7422330379486084,1,"(0, 2)",226,1,False,1.0,0,1,1,0.0,True,True,0.7,0.7,1.0,0.6,-0.2980920178073884,0.9635754862371678,1,False,True,0.9271509724743356,0.9699260794716078,1,False,True,0.9271509724743356,0.9932226444919623,1,False,True,0.9864452889839246,024
226,"{'mean': 0.3, 'sd': 0.37}",0.5,2,1.0056278705596924,1,"(1, 2)",227,1,True,0.0,0,1,1,0.0,True,True,0.5,0.5,1.0,-0.19999999999999996,0.005612093263548893,0.9354255048292908,1,False,True,0.8708510096585815,0.9699260794716078,1,False,True,0.8708510096585815,0.9888423403894105,1,False,True,0.9776846807788211,024
227,"{'mean': -0.3, 'sd': 0.37}",-0.3,1,0.8853850364685059,0,"(1, 3)",228,0,False,1.0,1,0,0,1.0,True,True,-0.3,0.3,-1.0,-0.8,-0.12173265913354264,0.2459684914454849,0,True,True,0.5080630171090301,0.03007392052839214,0,True,True,0.5080630171090301,0.6658261281184147,1,False,False,0.33165225623682937,024
228,"{'mean': -0.3, 'sd': 0.37}",-0.5,0,0.7192411422729492,0,"(0, 2)",229,0,False,0.0,1,0,0,0.0,True,True,-0.5,0.5,-1.0,-0.2,-0.32955859185335595,0.05292665129160983,0,False,True,0.8941466974167803,0.03007392052839214,0,False,True,0.8941466974167803,0.13946321662673472,0,True,True,0.7210735667465306,024
229,"{'mean': -0.3, 'sd': 0.37}",0.9,3,1.2259490489959717,0,"(0, 3)",230,0,False,0.0,0,1,1,1.0,False,True,0.9,0.9,1.0,1.4,0.2037152779195766,0.9685762435646179,1,True,True,0.9371524871292358,0.9699260794716078,1,True,True,0.9371524871292358,0.9465002275892118,1,True,True,0.8930004551784236,024
230,"{'mean': -0.3, 'sd': 0.37}",-0.1,0,1.3880510330200195,0,"(0, 3)",231,0,False,0.0,1,0,0,1.0,True,True,-0.1,0.1,-1.0,-1.0,0.3279006287142015,0.46891349998731285,0,True,True,0.06217300002537429,0.03007392052839214,0,True,True,0.06217300002537429,0.7924449821436768,1,False,False,0.5848899642873535,024
231,"{'mean': -0.3, 'sd': 0.37}",-0.1,0,0.8164730072021484,0,"(0, 2)",232,0,True,0.0,1,0,0,0.0,True,True,-0.1,0.1,-1.0,0.0,-0.20276142627038138,0.3301627050606991,0,False,True,0.3396745898786018,0.03007392052839214,0,False,True,0.3396745898786018,0.6386537945987044,1,False,False,0.27730758919740883,024
232,"{'mean': -0.3, 'sd': 0.37}",-0.1,0,0.7020869255065918,0,"(0, 2)",233,0,True,0.0,1,0,0,0.0,True,True,-0.1,0.1,-1.0,0.0,-0.3536980571141058,0.29603678504132186,0,False,True,0.4079264299173563,0.03007392052839214,0,False,True,0.4079264299173563,0.5022566002374992,1,False,False,0.004513200474998369,024
233,"{'mean': 0.3, 'sd': 0.37}",-0.3,1,0.9033989906311035,1,"(1, 2)",234,1,False,1.0,1,0,0,0.0,False,True,-0.3,0.3,-1.0,-0.19999999999999998,-0.1015909730623421,0.13460551526728654,0,False,True,0.7307889694654269,0.03007392052839214,0,False,True,0.7307889694654269,0.19968889676450047,0,True,True,0.6006222064709991,024
234,"{'mean': 0.3, 'sd': 0.37}",0.9,3,0.9341108798980713,1,"(0, 3)",235,1,False,0.0,0,1,1,1.0,True,True,0.9,0.9,1.0,1.2,-0.06816013270507885,0.971437547748796,1,True,True,0.942875095497592,0.9699260794716078,1,True,True,0.942875095497592,0.9584847139820726,1,True,True,0.9169694279641452,024
235,"{'mean': 0.3, 'sd': 0.37}",0.5,3,1.2828640937805176,1,"(1, 2)",236,1,True,0.0,0,0,1,0.0,False,False,0.5,0.5,1.0,-0.4,0.24909515155855055,0.93600589150938,1,False,True,0.8720117830187599,0.9699260794716078,1,False,True,0.8720117830187599,0.9855583081028849,1,False,True,0.9711166162057698,024
236,"{'mean': 0.3, 'sd': 0.37}",-0.1,0,1.25996994972229,1,"(0, 3)",237,1,False,0.0,1,0,0,1.0,False,True,-0.1,0.1,-1.0,-0.6,0.2310878712522306,0.45902075659001457,0,True,True,0.08195848681997087,0.03007392052839214,0,True,True,0.08195848681997087,0.8345577474621857,1,False,False,0.6691154949243714,024
237,"{'mean': -0.3, 'sd': 0.37}",-0.1,1,0.9255828857421875,0,"(1, 3)",238,0,False,1.0,1,0,0,0.0,True,True,-0.1,0.1,-1.0,0.0,-0.07733159318049539,0.3276721181857935,0,False,True,0.344655763628413,0.03007392052839214,0,False,True,0.344655763628413,0.6788582738371748,1,False,False,0.35771654767434957,024
238,"{'mean': 0.3, 'sd': 0.37}",0.3,3,0.719635009765625,1,"(0, 3)",239,1,False,1.0,0,1,1,1.0,True,True,0.3,0.3,1.0,0.4,-0.3290111263860116,0.733102791690259,1,True,True,0.4662055833805181,0.9699260794716078,1,True,True,0.4662055833805181,0.8834471688544644,1,False,True,0.7668943377089288,024
239,"{'mean': 0.3, 'sd': 0.37}",0.1,2,0.8972799777984619,1,"(0, 2)",240,1,False,0.0,0,1,1,0.0,True,True,0.1,0.1,1.0,-0.19999999999999998,-0.10838733875917643,0.6318726347280792,1,False,True,0.2637452694561584,0.9699260794716078,1,False,True,0.2637452694561584,0.8727500406494314,1,False,True,0.7455000812988628,024
240,"{'mean': 0.3, 'sd': 0.37}",0.5,3,0.8796029090881348,1,"(1, 3)",241,1,False,0.0,0,1,1,0.0,True,True,0.5,0.5,1.0,0.4,-0.12828471302171718,0.9074130595414412,1,False,True,0.8148261190828825,0.9699260794716078,1,False,True,0.8148261190828825,0.9765896563189006,1,False,True,0.9531793126378012,024
241,"{'mean': 0.3, 'sd': 0.37}",0.1,3,1.1806199550628662,1,"(1, 3)",242,1,True,0.0,0,1,1,0.0,True,True,0.1,0.1,1.0,-0.4,0.16603968615735312,0.6783151275655211,1,False,True,0.3566302551310423,0.9699260794716078,1,False,True,0.3566302551310423,0.923713897687166,1,False,True,0.8474277953743321,024
242,"{'mean': 0.3, 'sd': 0.37}",0.7,2,0.661592960357666,1,"(0, 2)",243,1,False,0.0,0,1,1,0.0,True,True,0.7,0.7,1.0,0.6,-0.4131047756592732,0.9626657062976961,1,False,True,0.9253314125953922,0.9699260794716078,1,False,True,0.9253314125953922,0.9927365235557419,1,False,True,0.9854730471114839,024
243,"{'mean': -0.3, 'sd': 0.37}",-0.5,1,1.0317161083221436,0,"(1, 3)",244,0,False,1.0,1,0,0,1.0,True,True,-0.5,0.5,-1.0,-1.2,0.031223540380364727,0.11379475720779171,0,True,True,0.7724104855844166,0.03007392052839214,0,True,True,0.7724104855844166,0.4392383516206261,0,True,True,0.12152329675874785,024
244,"{'mean': 0.3, 'sd': 0.37}",-0.1,0,1.0332770347595215,1,"(0, 2)",245,1,False,1.0,1,0,0,0.0,False,True,-0.1,0.1,-1.0,0.4,0.0327353388479804,0.24607789513448775,0,False,True,0.5078442097310245,0.03007392052839214,0,False,True,0.5078442097310245,0.3465107947413101,0,False,True,0.30697841051737984,024
245,"{'mean': -0.3, 'sd': 0.37}",0.3,3,1.1941158771514893,0,"(1, 2)",246,0,False,1.0,0,0,1,1.0,False,False,0.3,0.3,1.0,0.4,0.17740605980201912,0.714223440470463,1,True,True,0.4284468809409261,0.9699260794716078,1,True,True,0.4284468809409261,0.7191283631758499,1,True,True,0.4382567263516999,024
246,"{'mean': -0.3, 'sd': 0.37}",0.1,1,1.3107149600982666,0,"(1, 2)",247,0,False,0.0,1,0,0,1.0,True,True,0.1,0.1,1.0,-0.19999999999999998,0.270572759401577,0.6267685973610722,1,False,False,0.2535371947221443,0.9699260794716078,1,False,False,0.2535371947221443,0.774450727530565,1,False,False,0.54890145506113,024
247,"{'mean': -0.3, 'sd': 0.37}",-0.7,1,0.8104360103607178,0,"(1, 3)",248,0,True,0.0,1,0,0,0.0,True,True,-0.7,0.7,-1.0,-0.7999999999999999,-0.21018289174278185,0.03155704228975005,0,True,True,0.9368859154204999,0.03007392052839214,0,True,True,0.9368859154204999,0.08323510793153487,0,True,True,0.8335297841369302,024
248,"{'mean': -0.3, 'sd': 0.37}",-0.3,1,0.7124769687652588,0,"(1, 2)",249,0,True,0.0,1,0,0,0.0,True,True,-0.3,0.3,-1.0,0.39999999999999997,-0.3390076919017683,0.10205672802794019,0,False,True,0.7958865439441196,0.03007392052839214,0,False,True,0.7958865439441196,0.047638980757148466,0,False,True,0.9047220384857031,024
249,"{'mean': -0.3, 'sd': 0.37}",-1.0,1,0.5472099781036377,0,"(1, 3)",250,0,True,0.0,1,0,0,0.0,True,True,-1.0,1.0,-1.0,-0.7,-0.6029226780015298,0.004015590336891357,0,False,True,0.9919688193262173,0.03007392052839214,0,False,True,0.9919688193262173,0.0013075973520307723,0,False,True,0.9973848052959384,024
250,"{'mean': -0.3, 'sd': 0.37}",-0.3,0,0.6819920539855957,0,"(0, 3)",251,0,False,0.0,1,0,0,0.0,True,True,-0.3,0.3,-1.0,0.7,-0.38273727225406257,0.09898573448333599,0,False,True,0.802028531033328,0.03007392052839214,0,False,True,0.802028531033328,0.027582280576868224,0,False,True,0.9448354388462635,024
251,"{'mean': -0.3, 'sd': 0.37}",-0.5,0,0.36127495765686035,0,"(0, 3)",252,0,True,0.0,1,0,0,0.0,True,True,-0.5,0.5,-1.0,-0.2,-1.018115955002482,0.0448640878583978,0,False,True,0.9102718242832044,0.03007392052839214,0,False,True,0.9102718242832044,0.013136486685992751,0,False,True,0.9737270266280145,024
252,"{'mean': -0.3, 'sd': 0.37}",-0.1,1,0.687877893447876,0,"(1, 3)",253,0,False,0.0,1,0,0,0.0,True,True,-0.1,0.1,-1.0,0.4,-0.3741439372539815,0.23093536918468124,0,False,True,0.5381292616306375,0.03007392052839214,0,False,True,0.5381292616306375,0.07522548902692476,0,False,True,0.8495490219461505,024
253,"{'mean': -0.3, 'sd': 0.37}",-0.5,1,0.8330910205841064,0,"(1, 2)",254,0,True,0.0,1,0,0,0.0,True,True,-0.5,0.5,-1.0,-0.4,-0.182612374376361,0.05205486282538309,0,False,True,0.8958902743492339,0.03007392052839214,0,False,True,0.8958902743492339,0.01785933880098171,0,False,True,0.9642813223980365,024
254,"{'mean': -0.3, 'sd': 0.37}",-0.3,0,0.6197900772094727,0,"(0, 3)",255,0,False,0.0,1,0,0,0.0,True,True,-0.3,0.3,-1.0,0.2,-0.47837444342190394,0.10437820680813993,0,False,True,0.7912435863837202,0.03007392052839214,0,False,True,0.7912435863837202,0.031460402081385924,0,False,True,0.9370791958372282,024
255,"{'mean': -0.3, 'sd': 0.37}",-0.3,1,0.6126739978790283,0,"(1, 3)",256,0,False,0.0,1,0,0,0.0,True,True,-0.3,0.3,-1.0,0.0,-0.48992229873597604,0.11044755582014354,0,False,True,0.7791048883597129,0.03007392052839214,0,False,True,0.7791048883597129,0.034710824519310464,0,False,True,0.9305783509613791,024
256,"{'mean': -0.3, 'sd': 0.37}",-0.3,0,0.8606798648834229,0,"(0, 3)",257,0,False,0.0,1,0,0,0.0,True,True,-0.3,0.3,-1.0,0.0,-0.15003266148506786,0.1111652776317829,0,False,True,0.7776694447364342,0.03007392052839214,0,False,True,0.7776694447364342,0.03549631021502541,0,False,True,0.9290073795699492,024
257,"{'mean': 0.3, 'sd': 0.37}",0.7,3,1.0217418670654297,1,"(0, 3)",258,1,False,1.0,0,1,1,1.0,True,True,0.7,0.7,1.0,1.0,0.021508883621839767,0.9305394556981844,1,True,True,0.8610789113963688,0.9699260794716078,1,True,True,0.8610789113963688,0.7984119091369951,1,True,True,0.5968238182739902,024
258,"{'mean': 0.3, 'sd': 0.37}",0.7,2,0.8597691059112549,1,"(1, 2)",259,1,False,0.0,0,1,1,0.0,True,True,0.7,0.7,1.0,0.0,-0.15109140728073422,0.9719924947280526,1,False,True,0.9439849894561052,0.9699260794716078,1,False,True,0.9439849894561052,0.9867673745986343,1,False,True,0.9735347491972686,024
259,"{'mean': 0.3, 'sd': 0.37}",0.9,2,0.7554328441619873,1,"(0, 2)",260,1,True,0.0,0,1,1,0.0,True,True,0.9,0.9,1.0,0.20000000000000007,-0.28046439048298416,0.9890255143450648,1,False,True,0.9780510286901296,0.9699260794716078,1,False,True,0.9780510286901296,0.9980720483228592,1,False,True,0.9961440966457185,024
260,"{'mean': -0.3, 'sd': 0.37}",0.3,2,0.7018182277679443,0,"(0, 2)",261,0,True,1.0,0,1,1,0.0,False,True,0.3,0.3,1.0,-0.6000000000000001,-0.35408084328922834,0.8557235209861358,1,False,True,0.7114470419722716,0.9699260794716078,1,False,True,0.7114470419722716,0.9734333571412594,1,False,True,0.9468667142825189,024
261,"{'mean': -0.3, 'sd': 0.37}",-1.0,0,1.1739580631256104,0,"(0, 3)",262,0,False,0.0,1,0,0,1.0,True,True,-1.0,1.0,-1.0,-1.3,0.16038099940979864,0.009559944831561312,0,True,True,0.9808801103368774,0.03007392052839214,0,True,True,0.9808801103368774,0.054455734381429054,0,True,True,0.8910885312371419,024
262,"{'mean': -0.3, 'sd': 0.37}",0.3,3,1.4324331283569336,0,"(1, 3)",263,0,False,0.0,0,1,1,1.0,False,True,0.3,0.3,1.0,1.3,0.35937448674186506,0.6531897302062439,1,True,True,0.30637946041248787,0.9699260794716078,1,True,True,0.30637946041248787,0.41716493085007134,0,False,False,0.16567013829985733,024
263,"{'mean': -0.3, 'sd': 0.37}",0.1,3,0.9835848808288574,0,"(1, 3)",264,0,True,0.0,0,1,1,0.0,False,True,0.1,0.1,1.0,-0.19999999999999998,-0.01655134001804193,0.6101673715782081,1,False,True,0.2203347431564162,0.9699260794716078,1,False,True,0.2203347431564162,0.5595253028465735,1,True,True,0.11905060569314707,024
264,"{'mean': -0.3, 'sd': 0.37}",0.1,3,0.7202229499816895,0,"(1, 3)",265,0,True,0.0,0,1,1,0.0,False,True,0.1,0.1,1.0,0.0,-0.32819446215220843,0.5983719077517519,1,False,True,0.19674381550350373,0.9699260794716078,1,False,True,0.19674381550350373,0.6670736138171428,1,False,True,0.3341472276342856,024
265,"{'mean': -0.3, 'sd': 0.37}",-0.3,0,0.6414260864257812,0,"(0, 2)",266,0,False,0.0,1,0,0,1.0,True,True,-0.3,0.3,-1.0,-0.4,-0.44406132147781563,0.18020288565779471,0,True,True,0.6395942286844105,0.03007392052839214,0,True,True,0.6395942286844105,0.2994489041674129,0,True,True,0.40110219166517425,024
266,"{'mean': -0.3, 'sd': 0.37}",-0.7,1,0.7549648284912109,0,"(1, 3)",267,0,False,0.0,1,0,0,0.0,True,True,-0.7,0.7,-1.0,-0.39999999999999997,-0.28108411559806995,0.01912606687682311,0,False,True,0.9617478662463538,0.03007392052839214,0,False,True,0.9617478662463538,0.01800231429977575,0,False,True,0.9639953714004486,024
267,"{'mean': -0.3, 'sd': 0.37}",-0.1,0,0.5973429679870605,0,"(0, 3)",268,0,False,0.0,1,0,0,0.0,True,True,-0.1,0.1,-1.0,0.6,-0.5152638448028254,0.22537207313812094,0,False,True,0.5492558537237582,0.03007392052839214,0,False,True,0.5492558537237582,0.07793728485884516,0,False,True,0.8441254302823097,024
268,"{'mean': -0.3, 'sd': 0.37}",-0.3,0,0.5725948810577393,0,"(0, 3)",269,0,True,0.0,1,0,0,0.0,True,True,-0.3,0.3,-1.0,-0.19999999999999998,-0.5575768261804034,0.12532512255549086,0,False,True,0.7493497548890182,0.03007392052839214,0,False,True,0.7493497548890182,0.04627409092728007,0,False,True,0.9074518181454398,024
269,"{'mean': -0.3, 'sd': 0.37}",-0.5,1,0.6533381938934326,0,"(1, 2)",270,0,False,0.0,1,0,0,0.0,True,True,-0.5,0.5,-1.0,-0.2,-0.4256603758205527,0.04623665521018201,0,False,True,0.907526689579636,0.03007392052839214,0,False,True,0.907526689579636,0.014945141996381209,0,False,True,0.9701097160072376,024
270,"{'mean': -0.3, 'sd': 0.37}",-0.1,1,0.5180149078369141,0,"(1, 2)",271,0,True,0.0,1,0,0,0.0,True,True,-0.1,0.1,-1.0,0.4,-0.6577512575288368,0.23123342112388254,0,False,True,0.5375331577522349,0.03007392052839214,0,False,True,0.5375331577522349,0.07623256770643053,0,False,True,0.847534864587139,024
271,"{'mean': -0.3, 'sd': 0.37}",-0.3,0,0.5811748504638672,0,"(0, 3)",272,0,False,0.0,1,0,0,0.0,True,True,-0.3,0.3,-1.0,-0.19999999999999998,-0.5427036199637116,0.12607757757022403,0,False,True,0.7478448448595519,0.03007392052839214,0,False,True,0.7478448448595519,0.04583700044716905,0,False,True,0.9083259991056619,024
272,"{'mean': -0.3, 'sd': 0.37}",0.1,2,0.9377999305725098,0,"(1, 2)",273,0,False,0.0,0,1,1,1.0,False,True,0.1,0.1,1.0,0.4,-0.06421864635895311,0.46007920212581865,0,False,False,0.07984159574836269,0.9699260794716078,1,False,True,0.07984159574836269,0.20990283712142246,0,False,False,0.5801943257571551,024
273,"{'mean': -0.3, 'sd': 0.37}",-0.3,1,0.9018170833587646,0,"(1, 3)",274,0,False,0.0,1,0,0,1.0,True,True,-0.3,0.3,-1.0,-0.4,-0.10334356955208789,0.15805583545078553,0,False,True,0.683888329098429,0.03007392052839214,0,False,True,0.683888329098429,0.0835078859697184,0,False,True,0.8329842280605632,024
274,"{'mean': -0.3, 'sd': 0.37}",0.1,2,0.886836051940918,0,"(0, 3)",275,0,False,0.0,0,0,1,1.0,False,False,0.1,0.1,1.0,0.4,-0.12009514809596784,0.4695425880241096,0,False,False,0.06091482395178083,0.9699260794716078,1,False,True,0.06091482395178083,0.25094565033747296,0,False,False,0.4981086993250541,024
275,"{'mean': 0.3, 'sd': 0.37}",-0.1,1,1.1674659252166748,1,"(1, 3)",276,1,False,1.0,1,0,0,1.0,False,True,-0.1,0.1,-1.0,-0.2,0.15483552402507803,0.3303213895848753,0,False,True,0.33935722083024944,0.03007392052839214,0,False,True,0.33935722083024944,0.21757114212399548,0,False,True,0.564857715752009,024
276,"{'mean': -0.3, 'sd': 0.37}",-0.3,0,0.959568977355957,0,"(0, 2)",277,0,False,1.0,1,0,0,0.0,True,True,-0.3,0.3,-1.0,-0.19999999999999998,-0.041271077263695326,0.13927798143428885,0,False,True,0.7214440371314224,0.03007392052839214,0,False,True,0.7214440371314224,0.08589975377008932,0,False,True,0.8282004924598214,024
277,"{'mean': -0.3, 'sd': 0.37}",-0.5,0,0.6966099739074707,0,"(0, 2)",278,0,True,0.0,1,0,0,0.0,True,True,-0.5,0.5,-1.0,-0.2,-0.3615296031690013,0.04697596384508746,0,False,True,0.9060480723098251,0.03007392052839214,0,False,True,0.9060480723098251,0.018970103486734155,0,False,True,0.9620597930265317,024
278,"{'mean': -0.3, 'sd': 0.37}",-0.3,1,0.7386660575866699,0,"(1, 2)",279,0,False,0.0,1,0,0,0.0,True,True,-0.3,0.3,-1.0,0.2,-0.30290934435019484,0.10380010301583659,0,False,True,0.7923997939683268,0.03007392052839214,0,False,True,0.7923997939683268,0.0317236775731094,0,False,True,0.9365526448537812,024
279,"{'mean': -0.3, 'sd': 0.37}",-0.5,1,0.6645050048828125,0,"(1, 3)",280,0,True,0.0,1,0,0,0.0,True,True,-0.5,0.5,-1.0,-0.2,-0.4087128690546238,0.04511275006576731,0,False,True,0.9097744998684654,0.03007392052839214,0,False,True,0.9097744998684654,0.013532462873500767,0,False,True,0.9729350742529985,024
280,"{'mean': -0.3, 'sd': 0.37}",-0.3,0,0.823307991027832,0,"(0, 2)",281,0,False,0.0,1,0,0,0.0,True,True,-0.3,0.3,-1.0,0.2,-0.19442491863008096,0.1035885034390737,0,False,True,0.7928229931218526,0.03007392052839214,0,False,True,0.7928229931218526,0.030438488793934487,0,False,True,0.939123022412131,024
281,"{'mean': -0.3, 'sd': 0.37}",-0.3,1,0.9032001495361328,0,"(1, 3)",282,0,False,0.0,1,0,0,0.0,True,True,-0.3,0.3,-1.0,0.0,-0.1018111005841068,0.11035438353338396,0,False,True,0.7792912329332321,0.03007392052839214,0,False,True,0.7792912329332321,0.034464570973305145,0,False,True,0.9310708580533897,024
282,"{'mean': -0.3, 'sd': 0.37}",0.3,2,0.8055229187011719,0,"(0, 2)",283,0,False,0.0,0,1,1,1.0,False,True,0.3,0.3,1.0,0.6,-0.2162636240061659,0.680433900550636,1,True,True,0.36086780110127203,0.9699260794716078,1,True,True,0.36086780110127203,0.38481591963160855,0,False,False,0.2303681607367829,024
283,"{'mean': -0.3, 'sd': 0.37}",0.5,3,0.7607018947601318,0,"(1, 2)",284,0,False,0.0,0,0,1,0.0,False,False,0.5,0.5,1.0,0.2,-0.2735137261707153,0.9119965172191988,1,False,True,0.8239930344383977,0.9699260794716078,1,False,True,0.8239930344383977,0.8799967929685988,1,True,True,0.7599935859371976,024
284,"{'mean': -0.3, 'sd': 0.37}",-0.5,0,1.15647292137146,0,"(0, 3)",285,0,False,0.0,1,0,0,1.0,True,True,-0.5,0.5,-1.0,-1.0,0.1453747881233746,0.10772876748174068,0,True,True,0.7845424650365187,0.03007392052839214,0,True,True,0.7845424650365187,0.27734448921225985,0,True,True,0.4453110215754803,024
285,"{'mean': -0.3, 'sd': 0.37}",-0.7,1,0.8936200141906738,0,"(1, 3)",286,0,False,0.0,1,0,0,0.0,True,True,-0.7,0.7,-1.0,-0.19999999999999996,-0.11247463421892578,0.017574362200854694,0,False,True,0.9648512755982906,0.03007392052839214,0,False,True,0.9648512755982906,0.016649769479791226,0,False,True,0.9667004610404175,024
286,"{'mean': -0.3, 'sd': 0.37}",-0.5,1,1.104858160018921,0,"(1, 3)",287,0,True,0.0,1,0,0,0.0,True,True,-0.5,0.5,-1.0,0.19999999999999996,0.09971696475678567,0.0408030454693403,0,False,True,0.9183939090613193,0.03007392052839214,0,False,True,0.9183939090613193,0.01210387299716009,0,False,True,0.9757922540056798,024
287,"{'mean': -0.3, 'sd': 0.37}",-0.7,0,0.785228967666626,0,"(0, 2)",288,0,False,0.0,1,0,0,0.0,True,True,-0.7,0.7,-1.0,-0.19999999999999996,-0.2417799251734374,0.016227726763473994,0,False,True,0.967544546473052,0.03007392052839214,0,False,True,0.967544546473052,0.0044339717040729875,0,False,True,0.991132056591854,024
288,"{'mean': -0.3, 'sd': 0.37}",-0.9,1,0.6424989700317383,0,"(1, 2)",289,0,False,0.0,1,0,0,0.0,True,True,-0.9,0.9,-1.0,-0.20000000000000007,-0.4423900652774895,0.005934253923314025,0,False,True,0.9881314921533719,0.03007392052839214,0,False,True,0.9881314921533719,0.001556905126856446,0,False,True,0.9968861897462871,024
289,"{'mean': -0.3, 'sd': 0.37}",-0.3,0,0.6314229965209961,0,"(0, 2)",290,0,False,0.0,1,0,0,0.0,True,True,-0.3,0.3,-1.0,0.6000000000000001,-0.4597792820438292,0.09919790916263696,0,False,True,0.8016041816747261,0.03007392052839214,0,False,True,0.8016041816747261,0.027640075545893414,0,False,True,0.9447198489082131,024
290,"{'mean': -0.3, 'sd': 0.37}",-0.1,0,0.6493549346923828,0,"(0, 3)",291,0,True,0.0,1,0,0,0.0,True,True,-0.1,0.1,-1.0,0.19999999999999998,-0.4317758170210444,0.24284134159701223,0,False,True,0.5143173168059756,0.03007392052839214,0,False,True,0.5143173168059756,0.08333166438500124,0,False,True,0.8333366712299975,024
291,"{'mean': 0.3, 'sd': 0.37}",0.3,2,0.8891150951385498,1,"(0, 2)",292,1,False,1.0,0,1,1,1.0,True,True,0.3,0.3,1.0,0.4,-0.11752858600057448,0.713453338920758,1,True,True,0.42690667784151604,0.9699260794716078,1,True,True,0.42690667784151604,0.4600922848826268,0,False,False,0.07981543023474635,024
292,"{'mean': -0.3, 'sd': 0.37}",-0.5,1,0.9920248985290527,0,"(1, 2)",293,0,False,1.0,1,0,0,1.0,True,True,-0.5,0.5,-1.0,-0.8,-0.008007072688605142,0.08720636315619036,0,True,True,0.8255872736876193,0.03007392052839214,0,True,True,0.8255872736876193,0.07668091566462479,0,False,True,0.8466381686707505,024
293,"{'mean': -0.3, 'sd': 0.37}",-0.3,1,0.6763160228729248,0,"(1, 2)",294,0,True,0.0,1,0,0,0.0,True,True,-0.3,0.3,-1.0,0.2,-0.3910948227213357,0.10843252700579965,0,False,True,0.7831349459884007,0.03007392052839214,0,False,True,0.7831349459884007,0.04595185849844871,0,False,True,0.9080962830031025,024
294,"{'mean': 0.3, 'sd': 0.37}",0.7,2,1.019953966140747,1,"(1, 2)",295,1,False,1.0,0,1,1,1.0,True,True,0.7,0.7,1.0,1.0,0.019757495043173208,0.9303272963277625,1,True,True,0.8606545926555249,0.9699260794716078,1,True,True,0.8606545926555249,0.8097106435231715,1,True,True,0.6194212870463429,024
295,"{'mean': 0.3, 'sd': 0.37}",0.5,2,0.5094161033630371,1,"(1, 2)",296,1,True,0.0,0,1,1,0.0,True,True,0.5,0.5,1.0,-0.19999999999999996,-0.674490104523727,0.9329331049648291,1,False,True,0.8658662099296581,0.9699260794716078,1,False,True,0.8658662099296581,0.9690762871002433,1,False,True,0.9381525742004866,024
296,"{'mean': 0.3, 'sd': 0.37}",-0.1,0,1.3759949207305908,1,"(0, 2)",297,1,False,0.0,1,0,0,1.0,False,True,-0.1,0.1,-1.0,-0.6,0.31917704817482645,0.45809412084682183,0,True,True,0.08381175830635634,0.03007392052839214,0,True,True,0.08381175830635634,0.8166214886288851,1,False,False,0.6332429772577701,024
297,"{'mean': 0.3, 'sd': 0.37}",0.5,3,0.9418439865112305,1,"(0, 3)",298,1,False,0.0,0,1,1,1.0,True,True,0.5,0.5,1.0,0.6,-0.05991563753701342,0.8893415771150562,1,True,True,0.7786831542301125,0.9699260794716078,1,True,True,0.7786831542301125,0.9699429785249353,1,False,True,0.9398859570498705,024
298,"{'mean': 0.3, 'sd': 0.37}",0.5,2,0.7816548347473145,1,"(0, 2)",299,1,False,0.0,0,1,1,0.0,True,True,0.5,0.5,1.0,0.0,-0.24634202366824873,0.9297734797671681,1,False,True,0.8595469595343361,0.9699260794716078,1,False,True,0.8595469595343361,0.9866620780750547,1,False,True,0.9733241561501094,024
299,"{'mean': 0.3, 'sd': 0.37}",0.5,3,1.1341290473937988,1,"(1, 3)",300,1,False,0.0,0,1,1,0.0,True,True,0.5,0.5,1.0,0.0,0.1258649972382428,0.9328910606333886,1,False,True,0.8657821212667771,0.9699260794716078,1,False,True,0.8657821212667771,0.9882361623697895,1,False,True,0.976472324739579,024
300,"{'mean': 0.3, 'sd': 0.37}",0.3,2,1.0209097862243652,1,"(1, 2)",301,1,False,0.0,0,1,1,0.0,True,True,0.3,0.3,1.0,-0.2,0.02069417702637245,0.8470259153949233,1,False,True,0.6940518307898467,0.9699260794716078,1,False,True,0.6940518307898467,0.9712302293477719,1,False,True,0.9424604586955438,024
301,"{'mean': 0.3, 'sd': 0.37}",0.7,3,0.8052821159362793,1,"(1, 3)",302,1,False,0.0,0,1,1,0.0,True,True,0.7,0.7,1.0,0.39999999999999997,-0.21656260837920713,0.969133186244927,1,False,True,0.9382663724898539,0.9699260794716078,1,False,True,0.9382663724898539,0.9946593820594192,1,False,True,0.9893187641188383,024
302,"{'mean': 0.3, 'sd': 0.37}",0.3,2,0.8840591907501221,1,"(0, 2)",303,1,False,0.0,0,1,1,0.0,True,True,0.3,0.3,1.0,-0.39999999999999997,-0.12323126072394217,0.8526713891915795,1,False,True,0.705342778383159,0.9699260794716078,1,False,True,0.705342778383159,0.9726722046760299,1,False,True,0.9453444093520598,024
303,"{'mean': 0.3, 'sd': 0.37}",0.5,3,0.9455130100250244,1,"(0, 3)",304,1,False,0.0,0,1,1,0.0,True,True,0.5,0.5,1.0,0.2,-0.05602763103643646,0.9268614249042018,1,False,True,0.8537228498084035,0.9699260794716078,1,False,True,0.8537228498084035,0.9869219525391351,1,False,True,0.9738439050782701,024
304,"{'mean': 0.3, 'sd': 0.37}",0.3,3,0.7523119449615479,1,"(0, 3)",305,1,True,0.0,0,1,1,0.0,True,True,0.3,0.3,1.0,-0.2,-0.28460422061891444,0.8460758753591013,1,False,True,0.6921517507182027,0.9699260794716078,1,False,True,0.6921517507182027,0.9709336797881963,1,False,True,0.9418673595763927,024
305,"{'mean': 0.3, 'sd': 0.37}",-0.1,0,1.1495192050933838,1,"(0, 2)",306,1,False,0.0,1,0,0,1.0,False,True,-0.1,0.1,-1.0,-0.4,0.1393437724267995,0.4323658897309557,0,True,True,0.13526822053808862,0.03007392052839214,0,True,True,0.13526822053808862,0.8186305812015549,1,False,False,0.6372611624031097,024
306,"{'mean': 0.3, 'sd': 0.37}",1.0,3,0.8845438957214355,1,"(0, 3)",307,1,False,0.0,0,1,1,1.0,True,True,1.0,1.0,1.0,1.1,-0.12268313889021204,0.986878136853386,1,True,True,0.973756273706772,0.9699260794716078,1,True,True,0.973756273706772,0.9968220688192952,1,False,True,0.9936441376385905,024
307,"{'mean': 0.3, 'sd': 0.37}",0.7,2,0.7653090953826904,1,"(1, 2)",308,1,False,0.0,0,1,1,0.0,True,True,0.7,0.7,1.0,-0.30000000000000004,-0.2674754805084245,0.9738097578230047,1,False,True,0.9476195156460094,0.9699260794716078,1,False,True,0.9476195156460094,0.9956305062324138,1,False,True,0.9912610124648276,024
308,"{'mean': 0.3, 'sd': 0.37}",0.7,2,0.6162080764770508,1,"(1, 2)",309,1,True,0.0,0,1,1,0.0,True,True,0.7,0.7,1.0,0.0,-0.4841705859969106,0.9733958132814283,1,False,True,0.9467916265628566,0.9699260794716078,1,False,True,0.9467916265628566,0.9955862314089056,1,False,True,0.9911724628178111,024
309,"{'mean': 0.3, 'sd': 0.37}",0.7,2,0.5401489734649658,1,"(1, 2)",310,1,True,0.0,0,1,1,0.0,True,True,0.7,0.7,1.0,0.0,-0.6159103006838467,0.9733826279024156,1,False,True,0.9467652558048312,0.9699260794716078,1,False,True,0.9467652558048312,0.9955845845577396,1,False,True,0.9911691691154791,024
310,"{'mean': 0.3, 'sd': 0.37}",0.3,2,0.55607008934021,1,"(1, 2)",311,1,True,0.0,0,1,1,0.0,True,True,0.3,0.3,1.0,-0.39999999999999997,-0.5868609327120379,0.8533261311386584,1,False,True,0.7066522622773168,0.9699260794716078,1,False,True,0.7066522622773168,0.9728788986867816,1,False,True,0.9457577973735631,024
311,"{'mean': 0.3, 'sd': 0.37}",0.3,3,0.9267840385437012,1,"(0, 3)",312,1,False,0.0,0,1,1,0.0,True,True,0.3,0.3,1.0,0.0,-0.0760347086873443,0.8342337066654765,1,False,True,0.6684674133309529,0.9699260794716078,1,False,True,0.6684674133309529,0.9677322385120308,1,False,True,0.9354644770240617,024
312,"{'mean': 0.3, 'sd': 0.37}",0.3,2,0.6209728717803955,1,"(0, 2)",313,1,False,0.0,0,1,1,0.0,True,True,0.3,0.3,1.0,0.0,-0.4764678827365267,0.8310795984488117,1,False,True,0.6621591968976235,0.9699260794716078,1,False,True,0.6621591968976235,0.9665437806532278,1,False,True,0.9330875613064555,024
313,"{'mean': 0.3, 'sd': 0.37}",0.7,2,0.5173518657684326,1,"(0, 2)",314,1,True,0.0,0,1,1,0.0,True,True,0.7,0.7,1.0,0.39999999999999997,-0.6590320445427204,0.9685631998698282,1,False,True,0.9371263997396564,0.9699260794716078,1,False,True,0.9371263997396564,0.9944768379033027,1,False,True,0.9889536758066053,024
314,"{'mean': 0.3, 'sd': 0.37}",0.5,3,0.5661129951477051,1,"(0, 3)",315,1,False,0.0,0,1,1,0.0,True,True,0.5,0.5,1.0,-0.19999999999999996,-0.5689615826338316,0.9357940964504038,1,False,True,0.8715881929008076,0.9699260794716078,1,False,True,0.8715881929008076,0.9889575013196713,1,False,True,0.9779150026393426,024
315,"{'mean': 0.3, 'sd': 0.37}",0.1,2,0.8553881645202637,1,"(0, 2)",316,1,False,0.0,0,1,1,0.0,True,True,0.1,0.1,1.0,-0.4,-0.1561999194783352,0.6857622221520119,1,False,True,0.37152444430402376,0.9699260794716078,1,False,True,0.37152444430402376,0.9302453364017194,1,False,True,0.8604906728034387,024
316,"{'mean': 0.3, 'sd': 0.37}",0.3,2,0.8399608135223389,1,"(0, 3)",317,1,True,0.0,0,0,1,0.0,False,False,0.3,0.3,1.0,0.19999999999999998,-0.17440003880159358,0.8053556635506444,1,False,True,0.6107113271012887,0.9699260794716078,1,False,True,0.6107113271012887,0.9576325002510094,1,False,True,0.9152650005020189,024
317,"{'mean': 0.3, 'sd': 0.37}",0.3,3,1.3481950759887695,1,"(1, 3)",318,1,False,0.0,0,1,1,0.0,True,True,0.3,0.3,1.0,0.0,0.2987667171450916,0.8262445220888264,1,False,True,0.6524890441776527,0.9699260794716078,1,False,True,0.6524890441776527,0.9641874660077716,1,False,True,0.9283749320155432,024
318,"{'mean': 0.3, 'sd': 0.37}",-0.1,1,1.0889959335327148,1,"(1, 2)",319,1,False,0.0,1,0,0,1.0,False,True,-0.1,0.1,-1.0,-0.4,0.0852561098141131,0.42661472214361734,0,True,True,0.14677055571276532,0.03007392052839214,0,True,True,0.14677055571276532,0.8113480400591752,1,False,False,0.6226960801183503,024
319,"{'mean': 0.3, 'sd': 0.37}",0.3,3,1.0386359691619873,1,"(1, 3)",320,1,False,0.0,0,1,1,1.0,True,True,0.3,0.3,1.0,0.4,0.03790828418155092,0.7546952370401089,1,True,True,0.5093904740802178,0.9699260794716078,1,True,True,0.5093904740802178,0.926043015459126,1,False,True,0.8520860309182521,024
320,"{'mean': 0.3, 'sd': 0.37}",0.3,2,0.6680231094360352,1,"(1, 2)",321,1,False,0.0,0,1,1,0.0,True,True,0.3,0.3,1.0,0.0,-0.4034325110797588,0.8175699168938264,1,False,True,0.6351398337876528,0.9699260794716078,1,False,True,0.6351398337876528,0.9566046917772166,1,False,True,0.9132093835544333,024
321,"{'mean': -0.3, 'sd': 0.37}",-0.7,1,1.0223519802093506,0,"(1, 3)",322,0,False,1.0,1,0,0,1.0,True,True,-0.7,0.7,-1.0,-1.0,0.022105835824256723,0.0390687581371153,0,True,True,0.9218624837257694,0.03007392052839214,0,True,True,0.9218624837257694,0.18389371837024887,0,True,True,0.6322125632595023,024
322,"{'mean': -0.3, 'sd': 0.37}",0.1,2,1.1027259826660156,0,"(0, 2)",323,0,False,0.0,0,1,1,1.0,False,True,0.1,0.1,1.0,0.7999999999999999,0.09778528027447785,0.43408491049477904,0,False,False,0.13183017901044192,0.9699260794716078,1,False,True,0.13183017901044192,0.3535263833170997,0,False,False,0.29294723336580064,024
323,"{'mean': -0.3, 'sd': 0.37}",-0.5,0,0.7490689754486084,0,"(0, 3)",324,0,False,0.0,1,0,0,1.0,True,True,-0.5,0.5,-1.0,-0.6,-0.2889242096533995,0.06488913190526933,0,False,True,0.8702217361894613,0.03007392052839214,0,False,True,0.8702217361894613,0.05538457223262722,0,False,True,0.8892308555347456,024
324,"{'mean': -0.3, 'sd': 0.37}",-0.5,1,1.117722988128662,0,"(1, 2)",325,0,False,0.0,1,0,0,0.0,True,True,-0.5,0.5,-1.0,0.0,0.11129356954932579,0.043130706785448114,0,False,True,0.9137385864291038,0.03007392052839214,0,False,True,0.9137385864291038,0.01584706254808109,0,False,True,0.9683058749038378,024
325,"{'mean': -0.3, 'sd': 0.37}",-1.0,0,1.1070818901062012,0,"(0, 2)",326,0,False,0.0,1,0,0,0.0,True,True,-1.0,1.0,-1.0,-0.5,0.10172762579284882,0.0037397984456692948,0,False,True,0.9925204031086614,0.03007392052839214,0,False,True,0.9925204031086614,0.0010401224296112351,0,False,True,0.9979197551407776,024
326,"{'mean': -0.3, 'sd': 0.37}",-0.1,0,1.1580519676208496,0,"(0, 3)",327,0,True,0.0,1,0,0,0.0,True,True,-0.1,0.1,-1.0,0.9,0.14673925519122474,0.22206945092852656,0,False,True,0.5558610981429468,0.03007392052839214,0,False,True,0.5558610981429468,0.06851767680483277,0,False,True,0.8629646463903344,024
