,c_dis,context,response,rt,state,stim,trial_count,ts,rep_resp,switch,con_1dim,con_2dim,subj_ts,subj_switch,correct,stim_conform,true_context,abs_context,context_sign,context_diff,log_rt,fit_observer_posterior,fit_observer_choices,fit_observer_switch,conform_fit_observer,fit_certainty,opt_observer_posterior,opt_observer_choices,opt_observer_switch,conform_opt_observer,opt_certainty,ignore_observer_posterior,ignore_observer_choices,ignore_observer_switch,conform_ignore_observer,id
0,"{'mean': -0.3, 'sd': 0.37}",0.1,2,1.2251520156860352,0,"(1, 2)",1,0,False,,0,1,1,,False,True,0.1,0.1,1.0,,0.20306493073519225,0.6235710566026291,1,,True,0.24714211320525825,0.6235710566026291,1,,True,0.24714211320525825,0.6235710566026291,1,,True,024
1,"{'mean': -0.3, 'sd': 0.37}",-0.1,0,1.2664008140563965,0,"(0, 2)",2,0,False,0.0,1,0,0,1.0,True,True,-0.1,0.1,-1.0,-0.2,0.23617887239588994,0.43118870135192994,0,True,True,0.13762259729614013,0.48969406167477875,0,True,True,0.020611876650442507,0.39169559866232884,0,True,True,024
2,"{'mean': -0.3, 'sd': 0.37}",-0.3,0,0.8333439826965332,0,"(1, 2)",3,0,True,0.0,0,0,0,0.0,False,False,-0.3,0.3,-1.0,-0.19999999999999998,-0.18230877763976852,0.1844982686946001,0,False,True,0.6310034626107999,0.19336796675117557,0,False,True,0.6132640664976489,0.19854223211145114,0,False,True,024
3,"{'mean': -0.3, 'sd': 0.37}",-0.5,1,0.5383718013763428,0,"(1, 2)",4,0,False,0.0,1,0,0,0.0,True,True,-0.5,0.5,-1.0,-0.2,-0.6192058768814341,0.058257301949422094,0,False,True,0.8834853961011558,0.03139378017129242,0,False,True,0.9372124396574152,0.08619644561471856,0,False,True,024
4,"{'mean': -0.3, 'sd': 0.37}",-0.7,1,0.4324791431427002,0,"(1, 2)",5,0,True,0.0,1,0,0,0.0,True,True,-0.7,0.7,-1.0,-0.19999999999999996,-0.838221177720529,0.01914739852043135,0,False,True,0.9617052029591373,0.005131133501492403,0,False,True,0.9897377329970152,0.0343281253064721,0,False,True,024
5,"{'mean': -0.3, 'sd': 0.37}",-0.1,1,0.5722780227661133,0,"(1, 2)",6,0,True,0.0,1,0,0,0.0,True,True,-0.1,0.1,-1.0,0.6,-0.5581303519013072,0.2504206498114203,0,False,True,0.49915870037715937,0.07078091717078491,0,False,True,0.8584381656584301,0.39169559866232884,0,False,True,024
6,"{'mean': -0.3, 'sd': 0.37}",-0.7,1,0.740109920501709,0,"(1, 3)",7,0,True,0.0,1,0,0,0.0,True,True,-0.7,0.7,-1.0,-0.6,-0.3009565625965504,0.024874180696819966,0,False,True,0.9502516386063601,0.006630351566946478,0,False,True,0.9867392968661071,0.0343281253064721,0,False,True,024
7,"{'mean': -0.3, 'sd': 0.37}",-0.3,1,0.4866960048675537,0,"(1, 3)",8,0,True,0.0,1,0,0,0.0,True,True,-0.3,0.3,-1.0,0.39999999999999997,-0.720115570790445,0.11473790425459861,0,False,True,0.7705241914908028,0.028820290792455537,0,False,True,0.942359418415089,0.19854223211145114,0,False,True,024
8,"{'mean': -0.3, 'sd': 0.37}",-0.1,0,0.5492861270904541,0,"(0, 3)",9,0,False,0.0,1,0,0,0.0,True,True,-0.1,0.1,-1.0,0.19999999999999998,-0.5991357945679029,0.27704159288968316,0,False,True,0.4459168142206337,0.08399436736063012,0,False,True,0.8320112652787397,0.39169559866232884,0,False,True,024
9,"{'mean': -0.3, 'sd': 0.37}",-0.3,0,0.45793581008911133,0,"(0, 2)",10,0,True,0.0,1,0,0,0.0,True,True,-0.3,0.3,-1.0,-0.19999999999999998,-0.7810262573341133,0.15559737481103902,0,False,True,0.688805250377922,0.047835403604980384,0,False,True,0.9043291927900392,0.19854223211145114,0,False,True,024
10,"{'mean': -0.3, 'sd': 0.37}",-0.3,1,0.5834600925445557,0,"(1, 3)",11,0,False,0.0,1,0,0,0.0,True,True,-0.3,0.3,-1.0,0.0,-0.5387792228342867,0.13502055158330653,0,False,True,0.729958896833387,0.038702731295063894,0,False,True,0.9225945374098722,0.19854223211145114,0,False,True,024
11,"{'mean': -0.3, 'sd': 0.37}",-0.3,1,0.414247989654541,0,"(1, 3)",12,0,True,0.0,1,0,0,0.0,True,True,-0.3,0.3,-1.0,0.0,-0.881290475663605,0.13170590953651426,0,False,True,0.7365881809269714,0.03646563080873158,0,False,True,0.9270687383825369,0.19854223211145114,0,False,True,024
12,"{'mean': -0.3, 'sd': 0.37}",-0.5,1,0.45235300064086914,0,"(1, 3)",13,0,True,0.0,1,0,0,0.0,True,True,-0.5,0.5,-1.0,-0.2,-0.7932924290829146,0.05436410652113751,0,False,True,0.891271786957725,0.013989156893342397,0,False,True,0.9720216862133152,0.08619644561471856,0,False,True,024
13,"{'mean': 0.3, 'sd': 0.37}",0.5,2,0.5911359786987305,1,"(0, 3)",14,1,False,1.0,0,0,1,1.0,False,False,0.5,0.5,1.0,1.0,-0.5257092056403759,0.8530376169189366,1,True,True,0.7060752338378733,0.5748253546038425,1,True,True,0.14965070920768508,0.9140117289686287,1,True,True,024
14,"{'mean': 0.3, 'sd': 0.37}",0.3,2,0.5823700428009033,1,"(0, 2)",15,1,True,0.0,0,1,1,0.0,True,True,0.3,0.3,1.0,-0.2,-0.5406492209210633,0.8713783998174112,1,False,True,0.7427567996348223,0.8427597237400452,1,False,True,0.6855194474800903,0.8083525901114329,1,False,True,024
15,"{'mean': 0.3, 'sd': 0.37}",0.5,3,0.47440290451049805,1,"(1, 3)",16,1,False,0.0,0,1,1,0.0,True,True,0.5,0.5,1.0,0.2,-0.7456983088247456,0.9459929199159954,1,False,True,0.8919858398319909,0.9731225669285465,1,False,True,0.946245133857093,0.9140117289686287,1,False,True,024
16,"{'mean': 0.3, 'sd': 0.37}",0.1,2,0.5311999320983887,1,"(0, 2)",17,1,False,0.0,0,1,1,0.0,True,True,0.1,0.1,1.0,-0.4,-0.6326168086467496,0.7521764237096684,1,False,True,0.5043528474193368,0.9218733100897566,1,False,True,0.8437466201795132,0.6235710566026291,1,False,True,024
17,"{'mean': 0.3, 'sd': 0.37}",0.7,3,0.583528995513916,1,"(0, 3)",18,1,False,0.0,0,1,1,0.0,True,True,0.7,0.7,1.0,0.6,-0.538661136092696,0.973737584909669,1,False,True,0.947475169819338,0.9926586939960151,1,False,True,0.9853173879920303,0.963652584628436,1,False,True,024
18,"{'mean': 0.3, 'sd': 0.37}",0.1,1,0.8178451061248779,1,"(1, 3)",19,1,False,0.0,1,0,0,1.0,False,True,0.1,0.1,1.0,-0.6,-0.20108231712520797,0.7596038729714067,1,False,False,0.5192077459428135,0.932189572340491,1,False,False,0.8643791446809821,0.6235710566026291,1,False,False,024
19,"{'mean': 0.3, 'sd': 0.37}",0.5,3,0.8837699890136719,1,"(0, 3)",20,1,False,0.0,0,1,1,1.0,True,True,0.5,0.5,1.0,0.4,-0.12355844362412342,0.9375615452040743,1,False,True,0.8751230904081486,0.9829449612010825,1,False,True,0.9658899224021651,0.9140117289686287,1,False,True,024
20,"{'mean': 0.3, 'sd': 0.37}",0.1,3,0.7378549575805664,1,"(0, 3)",21,1,True,0.0,0,1,1,0.0,True,True,0.1,0.1,1.0,-0.4,-0.3040080081407661,0.7499068719502676,1,False,True,0.49981374390053523,0.9270767999528641,1,False,True,0.8541535999057281,0.6235710566026291,1,False,True,024
21,"{'mean': 0.3, 'sd': 0.37}",-0.1,0,0.8299751281738281,1,"(1, 2)",22,1,False,0.0,0,0,0,1.0,False,False,-0.1,0.1,-1.0,-0.2,-0.18635954469611343,0.4730586741113179,0,True,True,0.05388265177736418,0.7719982040785611,1,False,False,0.5439964081571222,0.39169559866232884,0,True,True,024
22,"{'mean': 0.3, 'sd': 0.37}",0.1,2,0.7733950614929199,1,"(0, 2)",23,1,False,0.0,0,1,1,1.0,True,True,0.1,0.1,1.0,0.2,-0.25696528527939216,0.6152014495460861,1,True,True,0.23040289909217226,0.8073323597285085,1,False,True,0.614664719457017,0.6235710566026291,1,True,True,024
23,"{'mean': 0.3, 'sd': 0.37}",0.5,3,0.9593379497528076,1,"(1, 3)",24,1,False,0.0,0,1,1,0.0,True,True,0.5,0.5,1.0,0.4,-0.041511868102481614,0.9252367290479007,1,False,True,0.8504734580958013,0.9687754250969169,1,False,True,0.9375508501938339,0.9140117289686287,1,False,True,024
24,"{'mean': 0.3, 'sd': 0.37}",-0.1,0,0.8907592296600342,1,"(0, 2)",25,1,False,0.0,1,0,0,1.0,False,True,-0.1,0.1,-1.0,-0.6,-0.11568111287708732,0.5338293398271918,1,False,False,0.06765867965438366,0.8162963433263917,1,False,False,0.6325926866527833,0.39169559866232884,0,True,True,024
25,"{'mean': 0.3, 'sd': 0.37}",0.7,3,0.8834011554718018,1,"(0, 3)",26,1,False,0.0,0,1,1,1.0,True,True,0.7,0.7,1.0,0.7999999999999999,-0.12397587183799703,0.9651823011206355,1,False,True,0.930364602241271,0.9877115030189894,1,False,True,0.9754230060379787,0.963652584628436,1,True,True,024
26,"{'mean': 0.3, 'sd': 0.37}",-0.1,0,0.9747850894927979,1,"(0, 2)",27,1,False,0.0,1,0,0,1.0,False,True,-0.1,0.1,-1.0,-0.7999999999999999,-0.025538253313603963,0.5481303840878119,1,False,False,0.09626076817562379,0.8369190414206732,1,False,False,0.6738380828413464,0.39169559866232884,0,True,True,024
27,"{'mean': 0.3, 'sd': 0.37}",-0.7,0,0.6697080135345459,1,"(0, 2)",28,1,True,0.0,1,0,0,0.0,False,True,-0.7,0.7,-1.0,-0.6,-0.40091346228055413,0.036494462334296617,0,True,True,0.9270110753314068,0.10549574907615557,0,True,True,0.7890085018476889,0.0343281253064721,0,False,True,024
28,"{'mean': 0.3, 'sd': 0.37}",0.9,3,0.9316730499267578,1,"(1, 3)",29,1,False,0.0,0,1,1,1.0,True,True,0.9,0.9,1.0,1.6,-0.07077333064255993,0.9720881301549785,1,True,True,0.944176260309957,0.9372207702985477,1,True,True,0.8744415405970953,0.9849507989697606,1,True,True,024
29,"{'mean': 0.3, 'sd': 0.37}",0.7,2,0.7547039985656738,1,"(1, 2)",30,1,False,0.0,0,1,1,0.0,True,True,0.7,0.7,1.0,-0.20000000000000007,-0.2814296614866221,0.9805635289891592,1,False,True,0.9611270579783184,0.9932997960206646,1,False,True,0.9865995920413293,0.963652584628436,1,False,True,024
30,"{'mean': 0.3, 'sd': 0.37}",0.3,3,1.3490869998931885,1,"(0, 3)",31,1,False,0.0,0,1,1,0.0,True,True,0.3,0.3,1.0,-0.39999999999999997,0.2994280672833687,0.8904257540050167,1,False,True,0.7808515080100333,0.972368008348202,1,False,True,0.9447360166964041,0.8083525901114329,1,False,True,024
31,"{'mean': 0.3, 'sd': 0.37}",0.7,3,0.8636670112609863,1,"(1, 3)",32,1,True,0.0,0,1,1,0.0,True,True,0.7,0.7,1.0,0.39999999999999997,-0.14656798809826693,0.9782016315110602,1,False,True,0.9564032630221204,0.9947034756445035,1,False,True,0.9894069512890069,0.963652584628436,1,False,True,024
32,"{'mean': 0.3, 'sd': 0.37}",0.7,3,0.788532018661499,1,"(0, 3)",33,1,True,0.0,0,1,1,0.0,True,True,0.7,0.7,1.0,0.0,-0.2375822663502236,0.9807330098187683,1,False,True,0.9614660196375366,0.995551723496473,1,False,True,0.9911034469929461,0.963652584628436,1,False,True,024
33,"{'mean': 0.3, 'sd': 0.37}",0.5,2,0.6627559661865234,1,"(1, 2)",34,1,False,0.0,0,1,1,0.0,True,True,0.5,0.5,1.0,-0.19999999999999996,-0.41134843168600205,0.95345341861095,1,False,True,0.9069068372219,0.9890560147047991,1,False,True,0.9781120294095982,0.9140117289686287,1,False,True,024
34,"{'mean': 0.3, 'sd': 0.37}",0.1,3,0.9658229351043701,1,"(1, 3)",35,1,False,0.0,0,1,1,0.0,True,True,0.1,0.1,1.0,-0.4,-0.0347747585639717,0.7541797965348255,1,False,True,0.508359593069651,0.9302971470233122,1,False,True,0.8605942940466245,0.6235710566026291,1,False,True,024
35,"{'mean': 0.3, 'sd': 0.37}",0.1,3,0.9800601005554199,1,"(1, 3)",36,1,True,0.0,0,1,1,0.0,True,True,0.1,0.1,1.0,0.0,-0.020141382100581737,0.6990638644452215,1,False,True,0.398127728890443,0.8987840423026842,1,False,True,0.7975680846053683,0.6235710566026291,1,False,True,024
36,"{'mean': 0.3, 'sd': 0.37}",0.1,2,1.1828670501708984,1,"(0, 2)",37,1,False,0.0,0,1,1,0.0,True,True,0.1,0.1,1.0,0.0,0.16794119505512273,0.6832080588384943,1,False,True,0.3664161176769887,0.8813639661394701,1,False,True,0.7627279322789402,0.6235710566026291,1,False,True,024
37,"{'mean': 0.3, 'sd': 0.37}",0.7,3,0.937593936920166,1,"(0, 3)",38,1,False,0.0,0,1,1,0.0,True,True,0.7,0.7,1.0,0.6,-0.06443832677568348,0.9712570573324492,1,False,True,0.9425141146648983,0.9908771980309867,1,False,True,0.9817543960619735,0.963652584628436,1,False,True,024
38,"{'mean': 0.3, 'sd': 0.37}",0.5,3,0.6951918601989746,1,"(1, 3)",39,1,True,0.0,0,1,1,0.0,True,True,0.5,0.5,1.0,-0.19999999999999996,-0.3635674136740481,0.9528349616625277,1,False,True,0.9056699233250554,0.9886263591054288,1,False,True,0.9772527182108577,0.9140117289686287,1,False,True,024
39,"{'mean': 0.3, 'sd': 0.37}",0.1,2,0.9050090312957764,1,"(1, 2)",40,1,False,0.0,0,1,1,0.0,True,True,0.1,0.1,1.0,-0.4,-0.09981035599965456,0.754013894179476,1,False,True,0.5080277883589519,0.9300711558258695,1,False,True,0.860142311651739,0.6235710566026291,1,False,True,024
40,"{'mean': -0.3, 'sd': 0.37}",0.1,3,0.7543129920959473,0,"(1, 3)",41,0,False,1.0,0,1,1,0.0,False,True,0.1,0.1,1.0,0.0,-0.28194788822746986,0.6990165475597124,1,False,True,0.39803309511942486,0.8986604331338331,1,False,True,0.7973208662676663,0.6235710566026291,1,False,True,024
41,"{'mean': -0.3, 'sd': 0.37}",0.3,2,0.780350923538208,0,"(1, 2)",42,0,False,0.0,0,1,1,0.0,False,True,0.3,0.3,1.0,0.19999999999999998,-0.2480115585019854,0.845938972657373,1,False,True,0.6918779453147459,0.9497580857353028,1,False,True,0.8995161714706057,0.8083525901114329,1,False,True,024
42,"{'mean': -0.3, 'sd': 0.37}",-0.1,0,1.1129169464111328,0,"(0, 2)",43,0,False,0.0,1,0,0,1.0,True,True,-0.1,0.1,-1.0,-0.4,0.10698444813544929,0.5059478935450414,1,False,False,0.011895787090082877,0.7959062614550713,1,False,False,0.5918125229101425,0.39169559866232884,0,True,True,024
43,"{'mean': -0.3, 'sd': 0.37}",-0.1,0,0.9204061031341553,0,"(0, 3)",44,0,True,0.0,1,0,0,0.0,True,True,-0.1,0.1,-1.0,0.0,-0.08294028988446324,0.3935645992750604,0,True,True,0.21287080144987924,0.6419091400594791,1,False,False,0.28381828011895816,0.39169559866232884,0,False,True,024
44,"{'mean': -0.3, 'sd': 0.37}",-0.5,0,0.8493270874023438,0,"(0, 3)",45,0,True,0.0,1,0,0,0.0,True,True,-0.5,0.5,-1.0,-0.4,-0.16331090490712025,0.07575558786759763,0,False,True,0.8484888242648048,0.1300121417004506,0,True,True,0.7399757165990988,0.08619644561471856,0,False,True,024
45,"{'mean': -0.3, 'sd': 0.37}",-0.3,1,0.6640779972076416,0,"(1, 2)",46,0,False,0.0,1,0,0,0.0,True,True,-0.3,0.3,-1.0,0.2,-0.40935567073009627,0.12241825277169761,0,False,True,0.7551634944566048,0.060135010411791784,0,False,True,0.8797299791764164,0.19854223211145114,0,False,True,024
46,"{'mean': -0.3, 'sd': 0.37}",-0.1,1,0.5088269710540771,0,"(1, 3)",47,0,True,0.0,1,0,0,0.0,True,True,-0.1,0.1,-1.0,0.19999999999999998,-0.6756472592139956,0.2792103993926368,0,False,True,0.4415792012147264,0.1017491011324455,0,False,True,0.796501797735109,0.39169559866232884,0,False,True,024
47,"{'mean': -0.3, 'sd': 0.37}",-0.1,1,0.4419100284576416,0,"(1, 2)",48,0,True,0.0,1,0,0,0.0,True,True,-0.1,0.1,-1.0,0.0,-0.8166489731503745,0.32449345646192407,0,False,True,0.35101308707615186,0.1258654145659548,0,False,True,0.7482691708680904,0.39169559866232884,0,False,True,024
48,"{'mean': -0.3, 'sd': 0.37}",-0.5,1,0.46175694465637207,0,"(1, 3)",49,0,True,0.0,1,0,0,0.0,True,True,-0.5,0.5,-1.0,-0.4,-0.7727166201536827,0.06957177257861262,0,False,True,0.8608564548427747,0.023314889354753614,0,False,True,0.9533702212904928,0.08619644561471856,0,False,True,024
49,"{'mean': -0.3, 'sd': 0.37}",-0.5,1,0.40640687942504883,0,"(1, 3)",50,0,True,0.0,1,0,0,0.0,True,True,-0.5,0.5,-1.0,0.0,-0.9004004551420209,0.05001455393783764,0,False,True,0.8999708921243247,0.012731241589606859,0,False,True,0.9745375168207863,0.08619644561471856,0,False,True,024
50,"{'mean': -0.3, 'sd': 0.37}",-0.3,0,0.6648209095001221,0,"(0, 2)",51,0,False,0.0,1,0,0,0.0,True,True,-0.3,0.3,-1.0,0.2,-0.4082375836188426,0.118499826775914,0,False,True,0.763000346448172,0.030249892828694027,0,False,True,0.939500214342612,0.19854223211145114,0,False,True,024
51,"{'mean': -0.3, 'sd': 0.37}",0.3,2,0.9382212162017822,0,"(0, 2)",52,0,False,0.0,0,1,1,1.0,False,True,0.3,0.3,1.0,0.6,-0.06376951961315021,0.716190351614149,1,True,True,0.432380703228298,0.37769462981612933,0,False,False,0.24461074036774133,0.8083525901114329,1,True,True,024
52,"{'mean': -0.3, 'sd': 0.37}",0.5,3,0.8039288520812988,0,"(0, 3)",53,0,False,0.0,0,1,1,0.0,False,True,0.5,0.5,1.0,0.2,-0.2182445061550528,0.9340387829568172,1,False,True,0.8680775659136344,0.8774892166841307,1,True,True,0.7549784333682614,0.9140117289686287,1,False,True,024
53,"{'mean': -0.3, 'sd': 0.37}",-0.3,0,0.8547120094299316,0,"(0, 2)",54,0,False,0.0,1,0,0,1.0,True,True,-0.3,0.3,-1.0,-0.8,-0.15699069786180872,0.3085072968745579,0,True,True,0.3829854062508842,0.49882957661572525,0,True,True,0.0023408467685495093,0.19854223211145114,0,True,True,024
54,"{'mean': -0.3, 'sd': 0.37}",-1.0,0,0.7274041175842285,0,"(0, 2)",55,0,True,0.0,1,0,0,0.0,True,True,-1.0,1.0,-1.0,-0.7,-0.3182730857575762,0.006220363409569619,0,False,True,0.9875592731808608,0.007972599673939595,0,False,True,0.9840548006521208,0.008002150533589058,0,False,True,024
55,"{'mean': -0.3, 'sd': 0.37}",-0.5,0,0.7172269821166992,0,"(0, 2)",56,0,True,0.0,1,0,0,0.0,True,True,-0.5,0.5,-1.0,0.5,-0.3323629164910386,0.045818858239129706,0,False,True,0.9083622835217406,0.011297137212795549,0,False,True,0.9774057255744089,0.08619644561471856,0,False,True,024
56,"{'mean': -0.3, 'sd': 0.37}",-0.7,0,0.6607670783996582,0,"(0, 3)",57,0,True,0.0,1,0,0,0.0,True,True,-0.7,0.7,-1.0,-0.19999999999999996,-0.414353878840229,0.01881310732754133,0,False,True,0.9623737853449174,0.004405319229209559,0,False,True,0.9911893615415809,0.0343281253064721,0,False,True,024
57,"{'mean': -0.3, 'sd': 0.37}",0.9,3,1.0481338500976562,0,"(0, 3)",58,0,False,0.0,0,1,1,1.0,False,True,0.9,0.9,1.0,1.6,0.047011297302234266,0.9713795965509666,1,True,True,0.9427591931019332,0.8849917921339837,1,True,True,0.7699835842679674,0.9849507989697606,1,True,True,024
58,"{'mean': -0.3, 'sd': 0.37}",-0.5,0,0.8550219535827637,0,"(0, 3)",59,0,False,0.0,1,0,0,1.0,True,True,-0.5,0.5,-1.0,-1.4,-0.15662813367003103,0.15204491820636173,0,True,True,0.6959101635872765,0.2824476369188465,0,True,True,0.435104726162307,0.08619644561471856,0,True,True,024
59,"{'mean': -0.3, 'sd': 0.37}",0.3,3,0.7344341278076172,0,"(0, 3)",60,0,False,0.0,0,1,1,1.0,False,True,0.3,0.3,1.0,0.8,-0.30865497042929235,0.7256284545554238,1,True,True,0.4512569091108476,0.6717635680280847,1,True,True,0.34352713605616936,0.8083525901114329,1,True,True,024
60,"{'mean': -0.3, 'sd': 0.37}",0.1,2,0.8501391410827637,0,"(0, 2)",61,0,False,0.0,0,1,1,0.0,False,True,0.1,0.1,1.0,-0.19999999999999998,-0.16235524750291688,0.6908844548662346,1,False,True,0.38176890973246924,0.7439038991826687,1,False,True,0.4878077983653375,0.6235710566026291,1,False,True,024
61,"{'mean': 0.3, 'sd': 0.37}",0.5,3,0.7776110172271729,1,"(0, 3)",62,1,False,1.0,0,1,1,0.0,True,True,0.5,0.5,1.0,0.4,-0.25152885769145533,0.9319156320988258,1,False,True,0.8638312641976515,0.9602244671939679,1,False,True,0.9204489343879358,0.9140117289686287,1,False,True,024
62,"{'mean': 0.3, 'sd': 0.37}",0.1,0,1.2889890670776367,1,"(1, 2)",63,1,False,0.0,0,0,0,1.0,False,False,0.1,0.1,1.0,-0.4,0.2538582422124976,0.7483838542284162,1,False,False,0.4967677084568325,0.9149886907772841,1,False,False,0.8299773815545681,0.6235710566026291,1,False,False,024
63,"{'mean': 0.3, 'sd': 0.37}",-0.3,1,1.0035009384155273,1,"(1, 3)",64,1,False,0.0,1,0,0,0.0,False,True,-0.3,0.3,-1.0,-0.4,0.0034948243963470287,0.25632227782335265,0,True,True,0.4873554443532947,0.5484333789697653,1,False,False,0.09686675793953059,0.19854223211145114,0,True,True,024
64,"{'mean': 0.3, 'sd': 0.37}",0.5,2,0.8886229991912842,1,"(1, 2)",65,1,False,0.0,0,1,1,1.0,True,True,0.5,0.5,1.0,0.8,-0.11808220631326727,0.8849070711283117,1,True,True,0.7698141422566234,0.925412731488333,1,False,True,0.8508254629766661,0.9140117289686287,1,True,True,024
65,"{'mean': 0.3, 'sd': 0.37}",1.0,3,0.7743690013885498,1,"(0, 3)",66,1,False,0.0,0,1,1,0.0,True,True,1.0,1.0,1.0,0.5,-0.25570677301962974,0.9942209570077306,1,False,True,0.9884419140154612,0.9981286199005576,1,False,True,0.9962572398011151,0.9903320857704108,1,False,True,024
66,"{'mean': 0.3, 'sd': 0.37}",0.5,2,0.6013140678405762,1,"(0, 2)",67,1,False,0.0,0,1,1,0.0,True,True,0.5,0.5,1.0,-0.5,-0.5086379055000347,0.9543250360217637,1,False,True,0.9086500720435273,0.989291500965806,1,False,True,0.978583001931612,0.9140117289686287,1,False,True,024
67,"{'mean': 0.3, 'sd': 0.37}",0.5,2,0.6229889392852783,1,"(0, 2)",68,1,True,0.0,0,1,1,0.0,True,True,0.5,0.5,1.0,0.0,-0.4732265143085018,0.9517171191864211,1,False,True,0.9034342383728422,0.9884798794106866,1,False,True,0.9769597588213732,0.9140117289686287,1,False,True,024
68,"{'mean': 0.3, 'sd': 0.37}",1.0,2,0.6699850559234619,1,"(1, 2)",69,1,True,0.0,0,1,1,0.0,True,True,1.0,1.0,1.0,0.5,-0.4004998714377243,0.994743468978396,1,False,True,0.9894869379567921,0.9987841471980178,1,False,True,0.9975682943960356,0.9903320857704108,1,False,True,024
69,"{'mean': 0.3, 'sd': 0.37}",0.1,2,0.7075350284576416,1,"(1, 2)",70,1,True,0.0,0,1,1,0.0,True,True,0.1,0.1,1.0,-0.9,-0.34596814050285396,0.7651859911923774,1,False,True,0.5303719823847548,0.9353968656170716,1,False,True,0.8707937312341432,0.6235710566026291,1,False,True,024
70,"{'mean': 0.3, 'sd': 0.37}",0.1,2,0.5691430568695068,1,"(1, 2)",71,1,True,0.0,0,1,1,0.0,True,True,0.1,0.1,1.0,0.0,-0.5636234584076848,0.7021974589599133,1,False,True,0.4043949179198265,0.9015684141995541,1,False,True,0.8031368283991083,0.6235710566026291,1,False,True,024
71,"{'mean': 0.3, 'sd': 0.37}",0.5,3,0.718919038772583,1,"(0, 3)",72,1,False,0.0,0,1,1,0.0,True,True,0.5,0.5,1.0,0.4,-0.33000653014284165,0.9328713125704374,1,False,True,0.8657426251408749,0.9797522983186736,1,False,True,0.9595045966373472,0.9140117289686287,1,False,True,024
72,"{'mean': 0.3, 'sd': 0.37}",0.3,2,0.7421069145202637,1,"(1, 2)",73,1,False,0.0,0,1,1,0.0,True,True,0.3,0.3,1.0,-0.2,-0.2982619565447221,0.8834989132278118,1,False,True,0.7669978264556236,0.9693066921779784,1,False,True,0.9386133843559568,0.8083525901114329,1,False,True,024
73,"{'mean': 0.3, 'sd': 0.37}",0.3,2,0.8845841884613037,1,"(1, 2)",74,1,True,0.0,0,1,1,0.0,True,True,0.3,0.3,1.0,0.0,-0.12263758793182143,0.8760833618076641,1,False,True,0.7521667236153282,0.9669082241287907,1,False,True,0.9338164482575815,0.8083525901114329,1,False,True,024
74,"{'mean': 0.3, 'sd': 0.37}",-0.5,0,0.7916290760040283,1,"(0, 2)",75,1,False,0.0,1,0,0,1.0,False,True,-0.5,0.5,-1.0,-0.8,-0.23366233525113578,0.13529866489090514,0,True,True,0.7294026702181897,0.39109051947462703,0,True,True,0.21781896105074594,0.08619644561471856,0,True,True,024
75,"{'mean': 0.3, 'sd': 0.37}",0.5,2,0.7790780067443848,1,"(0, 2)",76,1,False,0.0,0,1,1,1.0,True,True,0.5,0.5,1.0,1.0,-0.2496441010973147,0.8668619166431474,1,True,True,0.7337238332862948,0.882160632781327,1,True,True,0.7643212655626539,0.9140117289686287,1,True,True,024
76,"{'mean': 0.3, 'sd': 0.37}",0.3,2,0.7418711185455322,1,"(1, 2)",77,1,True,0.0,0,1,1,0.0,True,True,0.3,0.3,1.0,-0.2,-0.29857974558399614,0.8735262218066842,1,False,True,0.7470524436133683,0.9455032369496276,1,False,True,0.8910064738992551,0.8083525901114329,1,False,True,024
77,"{'mean': -0.3, 'sd': 0.37}",-0.3,0,0.7706968784332275,0,"(0, 3)",78,0,False,1.0,1,0,0,1.0,True,True,-0.3,0.3,-1.0,-0.6,-0.26046013650712174,0.2905052288568089,0,True,True,0.4189895422863822,0.5934074549237287,1,False,False,0.1868149098474574,0.19854223211145114,0,True,True,024
78,"{'mean': -0.3, 'sd': 0.37}",-0.3,1,0.7181057929992676,0,"(1, 3)",79,0,False,0.0,1,0,0,0.0,True,True,-0.3,0.3,-1.0,0.0,-0.3311383767778534,0.15799143219554457,0,False,True,0.6840171356089109,0.2505715751576822,0,True,True,0.4988568496846356,0.19854223211145114,0,False,True,024
79,"{'mean': -0.3, 'sd': 0.37}",-0.7,0,0.6915409564971924,0,"(0, 3)",80,0,False,0.0,1,0,0,0.0,True,True,-0.7,0.7,-1.0,-0.39999999999999997,-0.3688329011465293,0.02198030811002373,0,False,True,0.9560393837799526,0.015098281668651662,0,False,True,0.9698034366626966,0.0343281253064721,0,False,True,024
80,"{'mean': 0.3, 'sd': 0.37}",0.1,2,0.7524909973144531,1,"(1, 2)",81,1,False,1.0,0,1,1,1.0,True,True,0.1,0.1,1.0,0.7999999999999999,-0.2843662461323953,0.4632415207394004,0,False,False,0.07351695852119922,0.17529769970589487,0,False,False,0.6494046005882103,0.6235710566026291,1,True,True,024
81,"{'mean': 0.3, 'sd': 0.37}",0.3,3,0.5654118061065674,1,"(0, 3)",82,1,False,0.0,0,1,1,0.0,True,True,0.3,0.3,1.0,0.19999999999999998,-0.570200952959811,0.8007352321734127,1,True,True,0.6014704643468254,0.572972121940745,1,True,True,0.14594424388148997,0.8083525901114329,1,False,True,024
82,"{'mean': 0.3, 'sd': 0.37}",0.3,2,0.5169720649719238,1,"(1, 2)",83,1,False,0.0,0,1,1,0.0,True,True,0.3,0.3,1.0,0.0,-0.6597664388698572,0.8630578484506547,1,False,True,0.7261156969013094,0.8419645591890949,1,False,True,0.6839291183781897,0.8083525901114329,1,False,True,024
83,"{'mean': 0.3, 'sd': 0.37}",0.1,2,0.5724430084228516,1,"(1, 2)",84,1,True,0.0,0,1,1,0.0,True,True,0.1,0.1,1.0,-0.19999999999999998,-0.5578420971154066,0.7295963122002793,1,False,True,0.45919262440055864,0.8489920151793856,1,False,True,0.6979840303587712,0.6235710566026291,1,False,True,024
84,"{'mean': 0.3, 'sd': 0.37}",-0.3,1,0.7938690185546875,1,"(1, 3)",85,1,False,0.0,1,0,0,1.0,False,True,-0.3,0.3,-1.0,-0.4,-0.23083679537998217,0.25151325759890536,0,True,True,0.4969734848021893,0.4647286824671911,0,True,True,0.07054263506561775,0.19854223211145114,0,True,True,024
85,"{'mean': 0.3, 'sd': 0.37}",0.7,3,0.9012229442596436,1,"(0, 3)",86,1,False,0.0,0,1,1,1.0,True,True,0.7,0.7,1.0,1.0,-0.10400261107254767,0.950131469595686,1,True,True,0.9002629391913719,0.9594995690935811,1,True,True,0.9189991381871623,0.963652584628436,1,True,True,024
86,"{'mean': 0.3, 'sd': 0.37}",0.3,2,0.7094018459320068,1,"(1, 2)",87,1,False,0.0,0,1,1,0.0,True,True,0.3,0.3,1.0,-0.39999999999999997,-0.3433331345428056,0.8860319912458482,1,False,True,0.7720639824916964,0.9646254891595184,1,False,True,0.9292509783190368,0.8083525901114329,1,False,True,024
87,"{'mean': -0.3, 'sd': 0.37}",-0.1,1,1.071338176727295,0,"(1, 2)",88,0,False,1.0,1,0,0,1.0,True,True,-0.1,0.1,-1.0,-0.4,0.06890849953988075,0.5199613093937409,1,False,False,0.03992261878748171,0.8118196603117522,1,False,False,0.6236393206235045,0.39169559866232884,0,True,True,024
88,"{'mean': -0.3, 'sd': 0.37}",0.1,2,1.0791609287261963,0,"(0, 2)",89,0,False,0.0,0,1,1,1.0,False,True,0.1,0.1,1.0,0.2,0.07618382133293661,0.6297250429469421,1,False,True,0.2594500858938842,0.8312936755429583,1,False,True,0.6625873510859166,0.6235710566026291,1,True,True,024
89,"{'mean': -0.3, 'sd': 0.37}",-0.7,1,0.8384799957275391,0,"(1, 3)",90,0,False,0.0,1,0,0,1.0,True,True,-0.7,0.7,-1.0,-0.7999999999999999,-0.17616455521569857,0.040484635036894444,0,True,True,0.9190307299262112,0.10315858240346241,0,True,True,0.7936828351930751,0.0343281253064721,0,True,True,024
90,"{'mean': -0.3, 'sd': 0.37}",-0.1,0,0.6640698909759521,0,"(0, 3)",91,0,False,0.0,1,0,0,0.0,True,True,-0.1,0.1,-1.0,0.6,-0.4093678775509807,0.2563037517528013,0,False,True,0.4873924964943974,0.12669290815857967,0,False,True,0.7466141836828406,0.39169559866232884,0,False,True,024
91,"{'mean': -0.3, 'sd': 0.37}",-0.5,1,0.7501850128173828,0,"(1, 3)",92,0,False,0.0,1,0,0,0.0,True,True,-0.5,0.5,-1.0,-0.4,-0.2874354191167055,0.06387018597269438,0,False,True,0.8722596280546112,0.023408091280572606,0,False,True,0.9531838174388548,0.08619644561471856,0,False,True,024
92,"{'mean': -0.3, 'sd': 0.37}",0.5,2,1.0284559726715088,0,"(0, 3)",93,0,False,0.0,0,0,1,1.0,False,False,0.5,0.5,1.0,1.0,0.02805862187474056,0.8547443587985486,1,True,True,0.7094887175970972,0.592530764486721,1,True,True,0.18506152897344208,0.9140117289686287,1,True,True,024
93,"{'mean': -0.3, 'sd': 0.37}",-0.9,0,0.8513360023498535,0,"(0, 2)",94,0,False,0.0,1,0,0,1.0,True,True,-0.9,0.9,-1.0,-1.4,-0.16094839596104754,0.02090154727078235,0,True,True,0.9581969054584353,0.017532005392014924,0,True,True,0.9649359892159701,0.013085899476143139,0,True,True,024
94,"{'mean': -0.3, 'sd': 0.37}",-0.5,0,1.0646212100982666,0,"(0, 3)",95,0,True,0.0,1,0,0,0.0,True,True,-0.5,0.5,-1.0,0.4,0.0626190646261276,0.046770718507488644,0,False,True,0.9064585629850227,0.012186528324133566,0,False,True,0.9756269433517328,0.08619644561471856,0,False,True,024
95,"{'mean': -0.3, 'sd': 0.37}",-0.3,0,0.7905869483947754,0,"(0, 3)",96,0,True,0.0,1,0,0,0.0,True,True,-0.3,0.3,-1.0,0.2,-0.23497963673700306,0.11801085217181126,0,False,True,0.7639782956563774,0.03012178803838806,0,False,True,0.9397564239232239,0.19854223211145114,0,False,True,024
96,"{'mean': -0.3, 'sd': 0.37}",-0.1,0,0.7922029495239258,0,"(0, 3)",97,0,True,0.0,1,0,0,0.0,True,True,-0.1,0.1,-1.0,0.19999999999999998,-0.23293767059508455,0.2779652693056934,0,False,True,0.44406946138861325,0.08472570999035366,0,False,True,0.8305485800192927,0.39169559866232884,0,False,True,024
97,"{'mean': -0.3, 'sd': 0.37}",-0.3,1,0.6945779323577881,0,"(1, 3)",98,0,False,0.0,1,0,0,0.0,True,True,-0.3,0.3,-1.0,-0.19999999999999998,-0.3644509094650903,0.1557608679489064,0,False,True,0.6884782641021872,0.04802479794251582,0,False,True,0.9039504041149684,0.19854223211145114,0,False,True,024
98,"{'mean': -0.3, 'sd': 0.37}",-0.5,0,0.6459028720855713,0,"(0, 3)",99,0,False,0.0,1,0,0,0.0,True,True,-0.5,0.5,-1.0,-0.2,-0.437106139312365,0.05611464625655402,0,False,True,0.8877707074868919,0.015117404842992293,0,False,True,0.9697651903140154,0.08619644561471856,0,False,True,024
99,"{'mean': -0.3, 'sd': 0.37}",-0.3,1,0.7289688587188721,0,"(1, 2)",100,0,False,0.0,1,0,0,0.0,True,True,-0.3,0.3,-1.0,0.2,-0.31612426569267027,0.11942225389215153,0,False,True,0.7611554922156969,0.030812144727691157,0,False,True,0.9383757105446177,0.19854223211145114,0,False,True,024
100,"{'mean': -0.3, 'sd': 0.37}",-0.5,0,0.771406888961792,0,"(0, 3)",101,0,False,0.0,1,0,0,0.0,True,True,-0.5,0.5,-1.0,-0.2,-0.2595393027814717,0.05348486214009446,0,False,True,0.8930302757198111,0.013445078116663334,0,False,True,0.9731098437666733,0.08619644561471856,0,False,True,024
101,"{'mean': -0.3, 'sd': 0.37}",-0.1,0,0.7227749824523926,0,"(0, 2)",102,0,True,0.0,1,0,0,0.0,True,True,-0.1,0.1,-1.0,0.4,-0.32465733285478166,0.25990468632443936,0,False,True,0.4801906273511213,0.07539723988322279,0,False,True,0.8492055202335544,0.39169559866232884,0,False,True,024
102,"{'mean': -0.3, 'sd': 0.37}",-0.3,1,0.8312687873840332,0,"(1, 3)",103,0,False,0.0,1,0,0,0.0,True,True,-0.3,0.3,-1.0,-0.19999999999999998,-0.18480208590322966,0.15258396388524337,0,False,True,0.6948320722295133,0.04562319308602997,0,False,True,0.9087536138279401,0.19854223211145114,0,False,True,024
103,"{'mean': -0.3, 'sd': 0.37}",-0.5,0,0.6273541450500488,0,"(0, 3)",104,0,False,0.0,1,0,0,0.0,True,True,-0.5,0.5,-1.0,-0.2,-0.4662440731613885,0.055881242261236926,0,False,True,0.8882375154775262,0.014881222975294987,0,False,True,0.97023755404941,0.08619644561471856,0,False,True,024
104,"{'mean': 0.3, 'sd': 0.37}",0.1,0,0.5916948318481445,1,"(0, 3)",105,1,True,1.0,1,0,0,0.0,False,True,0.1,0.1,1.0,0.6,-0.5247642637500988,0.47549836060604694,0,False,True,0.04900327878790611,0.17504965687609933,0,False,True,0.6499006862478014,0.6235710566026291,1,True,False,024
105,"{'mean': 0.3, 'sd': 0.37}",0.3,2,0.7578649520874023,1,"(0, 3)",106,1,False,0.0,0,0,1,1.0,False,False,0.3,0.3,1.0,0.19999999999999998,-0.2772500726858463,0.8033007231909469,1,True,True,0.6066014463818938,0.5727079768004577,1,True,True,0.14541595360091542,0.8083525901114329,1,False,True,024
106,"{'mean': 0.3, 'sd': 0.37}",0.3,2,1.0968101024627686,1,"(1, 2)",107,1,True,0.0,0,1,1,0.0,True,True,0.3,0.3,1.0,0.0,0.09240606007581686,0.8634733237464821,1,False,True,0.7269466474929642,0.8418510026505329,1,False,True,0.6837020053010658,0.8083525901114329,1,False,True,024
107,"{'mean': -0.3, 'sd': 0.37}",-0.9,0,0.90236496925354,0,"(0, 3)",108,0,False,1.0,1,0,0,1.0,True,True,-0.9,0.9,-1.0,-1.2,-0.10273621852470803,0.021152349499876065,0,True,True,0.9576953010002479,0.043042186057511755,0,True,True,0.9139156278849765,0.013085899476143139,0,True,True,024
108,"{'mean': -0.3, 'sd': 0.37}",0.1,0,0.7371721267700195,0,"(0, 3)",109,0,True,0.0,1,0,0,0.0,True,True,0.1,0.1,1.0,1.0,-0.30493386349158474,0.4629403374661241,0,False,True,0.07411932506775176,0.20679869652233254,0,False,True,0.586402606955335,0.6235710566026291,1,True,False,024
109,"{'mean': -0.3, 'sd': 0.37}",-0.1,1,0.5163609981536865,0,"(1, 2)",110,0,False,0.0,1,0,0,0.0,True,True,-0.1,0.1,-1.0,-0.2,-0.6609491492877725,0.3801214758405949,0,False,True,0.23975704831881017,0.18954224938415726,0,False,True,0.6209155012316855,0.39169559866232884,0,True,True,024
110,"{'mean': -0.3, 'sd': 0.37}",-0.1,0,0.6572117805480957,0,"(0, 3)",111,0,False,0.0,1,0,0,0.0,True,True,-0.1,0.1,-1.0,0.0,-0.4197489676173934,0.35469132834941086,0,False,True,0.2906173433011783,0.17879583417633113,0,False,True,0.6424083316473377,0.39169559866232884,0,False,True,024
111,"{'mean': -0.3, 'sd': 0.37}",-0.7,1,0.6072201728820801,0,"(1, 3)",112,0,False,0.0,1,0,0,0.0,True,True,-0.7,0.7,-1.0,-0.6,-0.4988638306560072,0.02850056778375756,0,False,True,0.9429988644324849,0.01135079203095201,0,False,True,0.977298415938096,0.0343281253064721,0,False,True,024
112,"{'mean': -0.3, 'sd': 0.37}",-0.3,0,0.5565440654754639,0,"(0, 3)",113,0,False,0.0,1,0,0,0.0,True,True,-0.3,0.3,-1.0,0.39999999999999997,-0.5860089281570455,0.11527663905133977,0,False,True,0.7694467218973204,0.029925418291660438,0,False,True,0.9401491634166791,0.19854223211145114,0,False,True,024
113,"{'mean': 0.3, 'sd': 0.37}",0.5,2,0.7348558902740479,1,"(0, 2)",114,1,False,1.0,0,1,1,1.0,True,True,0.5,0.5,1.0,0.8,-0.3080808666474324,0.8635858175062099,1,True,True,0.7271716350124198,0.6041037979666222,1,True,True,0.20820759593324434,0.9140117289686287,1,True,True,024
114,"{'mean': 0.3, 'sd': 0.37}",0.1,2,1.3070628643035889,1,"(1, 2)",115,1,True,0.0,0,1,1,0.0,True,True,0.1,0.1,1.0,-0.4,0.2677825316518848,0.7297418793732915,1,False,True,0.459483758746583,0.6983698114758727,1,False,True,0.3967396229517455,0.6235710566026291,1,False,True,024
115,"{'mean': 0.3, 'sd': 0.37}",0.1,3,1.1604688167572021,1,"(0, 3)",116,1,False,0.0,0,1,1,0.0,True,True,0.1,0.1,1.0,0.0,0.14882407584759777,0.6920673918491473,1,False,True,0.3841347836982947,0.7611930722640634,1,False,True,0.5223861445281268,0.6235710566026291,1,False,True,024
116,"{'mean': 0.3, 'sd': 0.37}",0.3,2,0.7318911552429199,1,"(1, 2)",117,1,False,0.0,0,1,1,0.0,True,True,0.3,0.3,1.0,0.19999999999999998,-0.31212347110035993,0.844721556381586,1,False,True,0.6894431127631719,0.9109561171675006,1,False,True,0.8219122343350012,0.8083525901114329,1,False,True,024
117,"{'mean': 0.3, 'sd': 0.37}",0.3,3,0.8824338912963867,1,"(1, 3)",118,1,False,0.0,0,1,1,0.0,True,True,0.3,0.3,1.0,0.0,-0.12507140369294242,0.8700761743358206,1,False,True,0.7401523486716413,0.9528649023793627,1,False,True,0.9057298047587254,0.8083525901114329,1,False,True,024
118,"{'mean': 0.3, 'sd': 0.37}",-0.1,1,1.1567280292510986,1,"(1, 2)",119,1,False,0.0,1,0,0,1.0,False,True,-0.1,0.1,-1.0,-0.4,0.1455953551092253,0.5143641094019354,1,False,False,0.028728218803870886,0.7992156613738111,1,False,False,0.5984313227476221,0.39169559866232884,0,True,True,024
119,"{'mean': 0.3, 'sd': 0.37}",0.5,3,0.7918767929077148,1,"(1, 3)",120,1,False,0.0,0,1,1,1.0,True,True,0.5,0.5,1.0,0.6,-0.23334946377958576,0.9154877331790442,1,False,True,0.8309754663580884,0.9677384389137342,1,False,True,0.9354768778274685,0.9140117289686287,1,True,True,024
120,"{'mean': 0.3, 'sd': 0.37}",0.1,3,1.0554649829864502,1,"(1, 3)",121,1,True,0.0,0,1,1,0.0,True,True,0.1,0.1,1.0,-0.4,0.05398141199698135,0.743937414969829,1,False,True,0.48787482993965803,0.9190066041883634,1,False,True,0.8380132083767269,0.6235710566026291,1,False,True,024
121,"{'mean': 0.3, 'sd': 0.37}",0.3,3,0.9318490028381348,1,"(1, 3)",122,1,True,0.0,0,1,1,0.0,True,True,0.3,0.3,1.0,0.19999999999999998,-0.07058449154442448,0.8536577202862617,1,False,True,0.7073154405725235,0.9548702564010237,1,False,True,0.9097405128020475,0.8083525901114329,1,False,True,024
122,"{'mean': 0.3, 'sd': 0.37}",0.7,2,0.870837926864624,1,"(1, 2)",123,1,False,0.0,0,1,1,0.0,True,True,0.7,0.7,1.0,0.39999999999999997,-0.1382993965226246,0.9770749274985213,1,False,True,0.9541498549970426,0.9940155637407739,1,False,True,0.9880311274815479,0.963652584628436,1,False,True,024
123,"{'mean': 0.3, 'sd': 0.37}",-0.1,0,0.9403250217437744,1,"(0, 3)",124,1,False,0.0,1,0,0,1.0,False,True,-0.1,0.1,-1.0,-0.7999999999999999,-0.06152969566947569,0.5524219009421139,1,False,False,0.1048438018842277,0.8438566929882414,1,False,False,0.6877133859764828,0.39169559866232884,0,True,True,024
124,"{'mean': 0.3, 'sd': 0.37}",0.3,2,1.028198003768921,1,"(0, 2)",125,1,False,0.0,0,1,1,1.0,True,True,0.3,0.3,1.0,0.4,0.02780775915607629,0.8188304182572187,1,False,True,0.6376608365144374,0.935228134307936,1,False,True,0.8704562686158721,0.8083525901114329,1,True,True,024
125,"{'mean': 0.3, 'sd': 0.37}",-0.3,0,0.9808039665222168,1,"(0, 2)",126,1,False,0.0,1,0,0,1.0,False,True,-0.3,0.3,-1.0,-0.6,-0.01938266963808144,0.27508623324951914,0,True,True,0.4498275335009617,0.5777574801967367,1,False,False,0.15551496039347334,0.19854223211145114,0,True,True,024
126,"{'mean': 0.3, 'sd': 0.37}",-0.3,1,0.9398910999298096,1,"(1, 2)",127,1,False,0.0,1,0,0,0.0,False,True,-0.3,0.3,-1.0,0.0,-0.06199126156784942,0.15525163439714276,0,False,True,0.6894967312057145,0.24115063685472626,0,True,True,0.5176987262905475,0.19854223211145114,0,False,True,024
127,"{'mean': 0.3, 'sd': 0.37}",0.5,2,1.0717809200286865,1,"(0, 2)",128,1,False,0.0,0,1,1,1.0,True,True,0.5,0.5,1.0,0.8,0.0693216761182243,0.8700390269580933,1,True,True,0.7400780539161866,0.815570933273687,1,True,True,0.631141866547374,0.9140117289686287,1,True,True,024
128,"{'mean': 0.3, 'sd': 0.37}",0.1,3,0.9922769069671631,1,"(0, 3)",129,1,False,0.0,0,1,1,0.0,True,True,0.1,0.1,1.0,-0.4,-0.007753070561743966,0.7315191962858436,1,False,True,0.4630383925716872,0.8335164403012275,1,False,True,0.667032880602455,0.6235710566026291,1,False,True,024
129,"{'mean': 0.3, 'sd': 0.37}",0.7,3,0.8382000923156738,1,"(0, 3)",130,1,True,0.0,0,1,1,0.0,True,True,0.7,0.7,1.0,0.6,-0.1764984333555554,0.9730138350605216,1,False,True,0.9460276701210433,0.9885889765540036,1,False,True,0.9771779531080071,0.963652584628436,1,False,True,024
130,"{'mean': 0.3, 'sd': 0.37}",0.3,2,1.0688440799713135,1,"(1, 2)",131,1,False,0.0,0,1,1,0.0,True,True,0.3,0.3,1.0,-0.39999999999999997,0.06657776543792632,0.8893442341793526,1,False,True,0.7786884683587052,0.9713097532577102,1,False,True,0.9426195065154204,0.8083525901114329,1,False,True,024
131,"{'mean': 0.3, 'sd': 0.37}",1.0,2,0.6935329437255859,1,"(0, 2)",132,1,True,0.0,0,1,1,0.0,True,True,1.0,1.0,1.0,0.7,-0.3659565367858111,0.9942567768228509,1,False,True,0.9885135536457017,0.9986130493983213,1,False,True,0.9972260987966426,0.9903320857704108,1,False,True,024
132,"{'mean': 0.3, 'sd': 0.37}",0.5,2,0.5313661098480225,1,"(1, 2)",133,1,True,0.0,0,1,1,0.0,True,True,0.5,0.5,1.0,-0.5,-0.6323040229102806,0.9543273373173133,1,False,True,0.9086546746346267,0.9893356620681824,1,False,True,0.9786713241363647,0.9140117289686287,1,False,True,024
133,"{'mean': -0.3, 'sd': 0.37}",-0.3,0,0.7369449138641357,0,"(0, 3)",134,0,False,1.0,1,0,0,1.0,True,True,-0.3,0.3,-1.0,-0.8,-0.30524213332555317,0.31477938331048033,0,True,True,0.37044123337903934,0.6667159497965551,1,False,False,0.33343189959311026,0.19854223211145114,0,True,True,024
134,"{'mean': -0.3, 'sd': 0.37}",-0.5,0,0.5299210548400879,0,"(0, 3)",135,0,True,0.0,1,0,0,0.0,True,True,-0.5,0.5,-1.0,-0.2,-0.6350272366624986,0.06873602215798244,0,False,True,0.8625279556840351,0.13982958198120926,0,True,True,0.7203408360375815,0.08619644561471856,0,False,True,024
135,"{'mean': -0.3, 'sd': 0.37}",-0.7,1,0.5679960250854492,0,"(1, 3)",136,0,False,0.0,1,0,0,0.0,True,True,-0.7,0.7,-1.0,-0.19999999999999996,-0.5656408583744703,0.01943215239258504,0,False,True,0.9611356952148299,0.009534193553994846,0,False,True,0.9809316128920103,0.0343281253064721,0,False,True,024
136,"{'mean': -0.3, 'sd': 0.37}",-0.7,0,0.5765759944915771,0,"(0, 3)",137,0,False,0.0,1,0,0,0.0,True,True,-0.7,0.7,-1.0,0.0,-0.5506481275068428,0.01811699476266857,0,False,True,0.9637660104746628,0.004342843726833256,0,False,True,0.9913143125463335,0.0343281253064721,0,False,True,024
137,"{'mean': -0.3, 'sd': 0.37}",-0.1,1,0.6928560733795166,0,"(1, 2)",138,0,False,0.0,1,0,0,0.0,True,True,-0.1,0.1,-1.0,0.6,-0.3669329876830682,0.2501373954583734,0,False,True,0.49972520908325324,0.07034439288336497,0,False,True,0.8593112142332701,0.39169559866232884,0,False,True,024
138,"{'mean': 0.3, 'sd': 0.37}",0.1,1,0.8103899955749512,1,"(1, 2)",139,1,True,1.0,1,0,0,0.0,False,True,0.1,0.1,1.0,0.2,-0.21023967116958084,0.5430116170833925,1,True,False,0.08602323416678503,0.2367704672328344,0,False,True,0.5264590655343312,0.6235710566026291,1,True,False,024
139,"{'mean': 0.3, 'sd': 0.37}",0.3,2,0.5332520008087158,1,"(1, 2)",140,1,False,0.0,0,1,1,1.0,True,True,0.3,0.3,1.0,0.19999999999999998,-0.6287611695351081,0.8169818432790179,1,False,True,0.6339636865580358,0.6330806381141818,1,True,True,0.2661612762283636,0.8083525901114329,1,False,True,024
140,"{'mean': 0.3, 'sd': 0.37}",0.3,3,0.8385119438171387,1,"(1, 3)",141,1,False,0.0,0,1,1,0.0,True,True,0.3,0.3,1.0,0.0,-0.17612645355420561,0.8656759924015878,1,False,True,0.7313519848031755,0.8664497398779502,1,False,True,0.7328994797559003,0.8083525901114329,1,False,True,024
141,"{'mean': 0.3, 'sd': 0.37}",0.1,2,1.0324101448059082,1,"(0, 3)",142,1,False,0.0,0,0,1,0.0,False,False,0.1,0.1,1.0,-0.19999999999999998,0.03189601524363221,0.7303179328923047,1,False,True,0.46063586578460947,0.8630972495139622,1,False,True,0.7261944990279243,0.6235710566026291,1,False,True,024
142,"{'mean': 0.3, 'sd': 0.37}",0.3,2,0.698477029800415,1,"(0, 2)",143,1,True,0.0,0,1,1,0.0,True,True,0.3,0.3,1.0,0.19999999999999998,-0.35885298586462117,0.8513447024157079,1,False,True,0.7026894048314158,0.9404607033897302,1,False,True,0.8809214067794604,0.8083525901114329,1,False,True,024
143,"{'mean': 0.3, 'sd': 0.37}",0.9,2,0.6769061088562012,1,"(0, 3)",144,1,True,0.0,0,0,1,0.0,False,False,0.9,0.9,1.0,0.6000000000000001,-0.3902227027539751,0.9905549041307339,1,False,True,0.9811098082614678,0.997329327943383,1,False,True,0.994658655886766,0.9849507989697606,1,False,True,024
144,"{'mean': 0.3, 'sd': 0.37}",0.7,3,0.4757659435272217,1,"(0, 3)",145,1,False,0.0,0,1,1,0.0,True,True,0.7,0.7,1.0,-0.20000000000000007,-0.7428292609612651,0.9810724992150536,1,False,True,0.9621449984301071,0.995649327161386,1,False,True,0.991298654322772,0.963652584628436,1,False,True,024
145,"{'mean': 0.3, 'sd': 0.37}",-0.1,1,0.8249740600585938,1,"(1, 3)",146,1,False,0.0,1,0,0,1.0,False,True,-0.1,0.1,-1.0,-0.7999999999999999,-0.1924033354949969,0.5538679581260787,1,False,False,0.1077359162521574,0.8456605997680907,1,False,False,0.6913211995361814,0.39169559866232884,0,True,True,024
146,"{'mean': 0.3, 'sd': 0.37}",0.3,2,0.9159719944000244,1,"(1, 2)",147,1,False,0.0,0,1,1,1.0,True,True,0.3,0.3,1.0,0.4,-0.08776948857449489,0.8191132584374637,1,False,True,0.6382265168749275,0.9357249900962066,1,False,True,0.8714499801924132,0.8083525901114329,1,True,True,024
147,"{'mean': 0.3, 'sd': 0.37}",0.7,2,1.1139750480651855,1,"(1, 2)",148,1,True,0.0,0,1,1,0.0,True,True,0.7,0.7,1.0,0.39999999999999997,0.10793474274902258,0.9759777667126074,1,False,True,0.9519555334252148,0.9932380914225855,1,False,True,0.9864761828451709,0.963652584628436,1,False,True,024
148,"{'mean': 0.3, 'sd': 0.37}",0.5,3,0.7126998901367188,1,"(1, 3)",149,1,False,0.0,0,1,1,0.0,True,True,0.5,0.5,1.0,-0.19999999999999996,-0.33869485862513243,0.9531436977011042,1,False,True,0.9062873954022084,0.988843760141721,1,False,True,0.9776875202834421,0.9140117289686287,1,False,True,024
149,"{'mean': 0.3, 'sd': 0.37}",-0.3,1,1.030555009841919,1,"(1, 2)",150,1,False,0.0,1,0,0,1.0,False,True,-0.3,0.3,-1.0,-0.8,0.030097501623691326,0.3144100816761635,0,True,True,0.37117983664767296,0.6658286866944014,1,False,False,0.33165737338880286,0.19854223211145114,0,True,True,024
150,"{'mean': 0.3, 'sd': 0.37}",-0.1,1,0.7720291614532471,1,"(1, 2)",151,1,True,0.0,1,0,0,0.0,False,True,-0.1,0.1,-1.0,0.19999999999999998,-0.258732955767607,0.334930810732837,0,False,True,0.33013837853432604,0.5252409140027501,1,False,False,0.05048182800550016,0.39169559866232884,0,False,True,024
151,"{'mean': 0.3, 'sd': 0.37}",0.3,2,0.8125109672546387,1,"(1, 2)",152,1,False,0.0,0,1,1,1.0,True,True,0.3,0.3,1.0,0.4,-0.20762586670978855,0.7722342266289661,1,True,True,0.5444684532579323,0.8205109619433387,1,False,True,0.6410219238866774,0.8083525901114329,1,True,True,024
152,"{'mean': 0.3, 'sd': 0.37}",0.5,3,1.0763449668884277,1,"(0, 3)",153,1,False,0.0,0,1,1,0.0,True,True,0.5,0.5,1.0,0.2,0.07357101155543402,0.9385591444631063,1,False,True,0.8771182889262126,0.9704258741074185,1,False,True,0.9408517482148371,0.9140117289686287,1,False,True,024
153,"{'mean': 0.3, 'sd': 0.37}",1.0,2,0.875248908996582,1,"(0, 2)",154,1,False,0.0,0,1,1,0.0,True,True,1.0,1.0,1.0,0.5,-0.13324696565304373,0.9946433419126525,1,False,True,0.9892866838253049,0.9986040984746185,1,False,True,0.997208196949237,0.9903320857704108,1,False,True,024
154,"{'mean': 0.3, 'sd': 0.37}",0.5,3,0.765739917755127,1,"(0, 3)",155,1,False,0.0,0,1,1,0.0,True,True,0.5,0.5,1.0,-0.5,-0.2669126998526642,0.9543521682409748,1,False,True,0.9087043364819496,0.9893348464013128,1,False,True,0.9786696928026255,0.9140117289686287,1,False,True,024
155,"{'mean': 0.3, 'sd': 0.37}",0.5,3,0.8222939968109131,1,"(1, 3)",156,1,True,0.0,0,1,1,0.0,True,True,0.5,0.5,1.0,0.0,-0.195657287517266,0.9517189236782075,1,False,True,0.9034378473564151,0.9884838884216739,1,False,True,0.9769677768433478,0.9140117289686287,1,False,True,024
156,"{'mean': 0.3, 'sd': 0.37}",0.3,2,0.9264068603515625,1,"(0, 2)",157,1,False,0.0,0,1,1,0.0,True,True,0.3,0.3,1.0,-0.2,-0.07644176680269722,0.8862634565038753,1,False,True,0.7725269130077506,0.9712860704096247,1,False,True,0.9425721408192493,0.8083525901114329,1,False,True,024
157,"{'mean': 0.3, 'sd': 0.37}",0.1,3,0.8178839683532715,1,"(0, 3)",158,1,False,0.0,0,1,1,0.0,True,True,0.1,0.1,1.0,-0.19999999999999998,-0.20103480041965174,0.7359721396652588,1,False,True,0.4719442793305175,0.9208966445431187,1,False,True,0.8417932890862374,0.6235710566026291,1,False,True,024
158,"{'mean': 0.3, 'sd': 0.37}",0.7,3,0.9307849407196045,1,"(0, 3)",159,1,True,0.0,0,1,1,0.0,True,True,0.7,0.7,1.0,0.6,-0.07172702654220171,0.9731711989918491,1,False,True,0.9463423979836982,0.9926172895403141,1,False,True,0.9852345790806283,0.963652584628436,1,False,True,024
159,"{'mean': 0.3, 'sd': 0.37}",0.1,2,0.9603300094604492,1,"(1, 3)",160,1,False,0.0,0,0,1,0.0,False,False,0.1,0.1,1.0,-0.6,-0.04047829373750205,0.7594528703247576,1,False,True,0.5189057406495152,0.932167848836972,1,False,True,0.864335697673944,0.6235710566026291,1,False,True,024
160,"{'mean': 0.3, 'sd': 0.37}",-0.1,0,0.9058430194854736,1,"(0, 2)",161,1,False,0.0,1,0,0,1.0,False,True,-0.1,0.1,-1.0,-0.2,-0.09888925562781334,0.47628609917644527,0,True,True,0.04742780164710947,0.7773263275305151,1,False,False,0.5546526550610302,0.39169559866232884,0,True,True,024
161,"{'mean': 0.3, 'sd': 0.37}",0.3,3,0.9874000549316406,1,"(0, 3)",162,1,False,0.0,0,1,1,1.0,True,True,0.3,0.3,1.0,0.4,-0.012679997524764557,0.8034647231160346,1,True,True,0.6069294462320691,0.9159365782972544,1,False,True,0.8318731565945088,0.8083525901114329,1,True,True,024
162,"{'mean': -0.3, 'sd': 0.37}",-1.0,0,1.3003709316253662,0,"(0, 2)",163,0,False,1.0,1,0,0,1.0,True,True,-1.0,1.0,-1.0,-1.3,0.26264955578756455,0.01195376019758832,0,True,True,0.9760924796048234,0.038240783455386146,0,True,True,0.9235184330892277,0.008002150533589058,0,True,True,024
163,"{'mean': -0.3, 'sd': 0.37}",-0.5,0,0.599186897277832,0,"(0, 3)",164,0,True,0.0,1,0,0,0.0,True,True,-0.5,0.5,-1.0,0.5,-0.5121817140445293,0.04618915283218753,0,False,True,0.9076216943356249,0.014161033683601335,0,False,True,0.9716779326327973,0.08619644561471856,0,False,True,024
164,"{'mean': -0.3, 'sd': 0.37}",0.1,0,0.8791441917419434,0,"(0, 2)",165,0,True,0.0,1,0,0,0.0,True,True,0.1,0.1,1.0,0.6,-0.12880635408810662,0.4720091128678188,0,False,True,0.05598177426436235,0.17422628828893694,0,False,True,0.6515474234221261,0.6235710566026291,1,True,False,024
165,"{'mean': 0.3, 'sd': 0.37}",0.1,0,0.9660639762878418,1,"(0, 3)",166,1,True,1.0,1,0,0,0.0,False,True,0.1,0.1,1.0,0.0,-0.03452521892135486,0.6148738994155717,1,True,False,0.22974779883114338,0.344052380081096,0,False,True,0.311895239837808,0.6235710566026291,1,False,False,024
166,"{'mean': 0.3, 'sd': 0.37}",-0.1,1,1.1789250373840332,1,"(1, 2)",167,1,False,0.0,1,0,0,0.0,False,True,-0.1,0.1,-1.0,-0.2,0.16460303801054646,0.4283627773147962,0,True,True,0.14327444537040757,0.279341617428747,0,False,True,0.44131676514250595,0.39169559866232884,0,True,True,024
167,"{'mean': 0.3, 'sd': 0.37}",0.3,3,1.0160210132598877,1,"(1, 3)",168,1,False,0.0,0,1,1,1.0,True,True,0.3,0.3,1.0,0.4,0.015894031284822602,0.7932907209462572,1,True,True,0.5865814418925144,0.6692736357939799,1,True,True,0.33854727158795983,0.8083525901114329,1,True,True,024
168,"{'mean': 0.3, 'sd': 0.37}",-0.3,1,0.9061050415039062,1,"(1, 3)",169,1,False,0.0,1,0,0,1.0,False,True,-0.3,0.3,-1.0,-0.6,-0.09860003980987651,0.2681462010564744,0,True,True,0.4637075978870512,0.3010356460763938,0,True,True,0.39792870784721235,0.19854223211145114,0,True,True,024
169,"{'mean': 0.3, 'sd': 0.37}",0.1,0,0.9020540714263916,1,"(0, 2)",170,1,False,0.0,1,0,0,0.0,False,True,0.1,0.1,1.0,0.4,-0.10308081456721907,0.549045724263281,1,True,False,0.09809144852656204,0.462105256932953,0,False,True,0.07578948613409398,0.6235710566026291,1,True,False,024
170,"{'mean': 0.3, 'sd': 0.37}",0.3,2,0.8270680904388428,1,"(0, 2)",171,1,False,0.0,0,1,1,1.0,True,True,0.3,0.3,1.0,0.19999999999999998,-0.18986825308068464,0.8181687896172241,1,False,True,0.6363375792344481,0.7889228242974029,1,True,True,0.5778456485948058,0.8083525901114329,1,False,True,024
171,"{'mean': 0.3, 'sd': 0.37}",0.3,2,0.6618130207061768,1,"(0, 2)",172,1,True,0.0,0,1,1,0.0,True,True,0.3,0.3,1.0,0.0,-0.41277220900370765,0.8658660692060492,1,False,True,0.7317321384120985,0.9194405356183026,1,False,True,0.8388810712366053,0.8083525901114329,1,False,True,024
172,"{'mean': 0.3, 'sd': 0.37}",0.1,3,1.0568020343780518,1,"(0, 3)",173,1,False,0.0,0,1,1,0.0,True,True,0.1,0.1,1.0,-0.19999999999999998,0.05524739926013222,0.7303702998231227,1,False,True,0.4607405996462455,0.8928245280167747,1,False,True,0.7856490560335494,0.6235710566026291,1,False,True,024
173,"{'mean': 0.3, 'sd': 0.37}",0.7,2,1.4177830219268799,1,"(1, 2)",174,1,False,0.0,0,1,1,0.0,True,True,0.7,0.7,1.0,0.6,0.3490943994248313,0.9729731120463716,1,False,True,0.9459462240927432,0.9913948907732991,1,False,True,0.9827897815465982,0.963652584628436,1,False,True,024
174,"{'mean': -0.3, 'sd': 0.37}",-0.1,1,1.1409862041473389,0,"(1, 2)",175,0,False,1.0,1,0,0,1.0,True,True,-0.1,0.1,-1.0,-0.7999999999999999,0.1318929797878573,0.5509399744345094,1,False,False,0.10187994886901874,0.8409682140052755,1,False,False,0.6819364280105511,0.39169559866232884,0,True,True,024
175,"{'mean': -0.3, 'sd': 0.37}",-0.5,0,0.829369068145752,0,"(0, 2)",176,0,False,0.0,1,0,0,0.0,True,True,-0.5,0.5,-1.0,-0.4,-0.18709002611928052,0.09163448239503622,0,True,True,0.8167310352099275,0.2416760464640701,0,True,True,0.5166479070718598,0.08619644561471856,0,False,True,024
176,"{'mean': -0.3, 'sd': 0.37}",-0.5,0,0.6089248657226562,0,"(0, 2)",177,0,True,0.0,1,0,0,0.0,True,True,-0.5,0.5,-1.0,0.0,-0.49606039208094777,0.05153140190866402,0,False,True,0.896937196182672,0.03783398402028657,0,False,True,0.9243320319594268,0.08619644561471856,0,False,True,024
177,"{'mean': -0.3, 'sd': 0.37}",-0.5,0,0.7351710796356201,0,"(0, 3)",178,0,True,0.0,1,0,0,0.0,True,True,-0.5,0.5,-1.0,0.0,-0.3076520454450274,0.04879604074909547,0,False,True,0.902407918501809,0.014121601713390277,0,False,True,0.9717567965732195,0.08619644561471856,0,False,True,024
178,"{'mean': -0.3, 'sd': 0.37}",-0.3,0,0.48487091064453125,0,"(0, 3)",179,0,True,0.0,1,0,0,0.0,True,True,-0.3,0.3,-1.0,0.2,-0.7238725870919998,0.11831602321862666,0,False,True,0.7633679535627467,0.030577289875034868,0,False,True,0.9388454202499302,0.19854223211145114,0,False,True,024
179,"{'mean': -0.3, 'sd': 0.37}",-0.3,0,0.4339408874511719,0,"(0, 3)",180,0,True,0.0,1,0,0,0.0,True,True,-0.3,0.3,-1.0,0.0,-0.8348469581879012,0.12904964354830267,0,False,True,0.7419007129033947,0.034497998735614786,0,False,True,0.9310040025287705,0.19854223211145114,0,False,True,024
180,"{'mean': -0.3, 'sd': 0.37}",-0.1,0,0.44501495361328125,0,"(0, 3)",181,0,True,0.0,1,0,0,0.0,True,True,-0.1,0.1,-1.0,0.19999999999999998,-0.8096473937551348,0.28108662950600904,0,False,True,0.4378267409879819,0.08718895957449162,0,False,True,0.8256220808510167,0.39169559866232884,0,False,True,024
181,"{'mean': 0.3, 'sd': 0.37}",0.7,3,0.8788669109344482,1,"(1, 3)",182,1,False,1.0,0,1,1,1.0,True,True,0.7,0.7,1.0,0.7999999999999999,-0.12912180239144475,0.9519891185132017,1,True,True,0.9039782370264033,0.8455494439061221,1,True,True,0.6910988878122442,0.963652584628436,1,True,True,024
182,"{'mean': -0.3, 'sd': 0.37}",-1.0,2,1.2003381252288818,0,"(0, 2)",183,0,False,1.0,0,1,1,0.0,False,True,-1.0,1.0,-1.0,-1.7,0.18260328812802332,0.014689389256859961,0,True,False,0.97062122148628,0.027074655896389722,0,True,False,0.9458506882072205,0.008002150533589058,0,True,False,024
183,"{'mean': 0.3, 'sd': 0.37}",0.1,3,1.1363651752471924,1,"(1, 3)",184,1,False,1.0,0,1,1,0.0,True,True,0.1,0.1,1.0,1.1,0.12783472572649723,0.4605863011573448,0,False,False,0.07882739768531044,0.1889029019448828,0,False,False,0.6221941961102344,0.6235710566026291,1,True,True,024
184,"{'mean': 0.3, 'sd': 0.37}",0.7,2,0.7296099662780762,1,"(1, 2)",185,1,False,0.0,0,1,1,0.0,True,True,0.7,0.7,1.0,0.6,-0.3152451803947025,0.9617886331877122,1,True,True,0.9235772663754245,0.8993996774475598,1,True,True,0.7987993548951196,0.963652584628436,1,False,True,024
185,"{'mean': 0.3, 'sd': 0.37}",-0.1,0,0.9328229427337646,1,"(1, 2)",186,1,False,0.0,0,0,0,1.0,False,False,-0.1,0.1,-1.0,-0.7999999999999999,-0.06953986813330981,0.5469086211430332,1,False,False,0.09381724228606636,0.7434121710475138,1,False,False,0.48682434209502756,0.39169559866232884,0,True,True,024
186,"{'mean': 0.3, 'sd': 0.37}",0.1,2,0.8757410049438477,1,"(1, 3)",187,1,False,0.0,0,0,1,1.0,False,False,0.1,0.1,1.0,0.2,-0.13268488821752739,0.6379698107635143,1,False,True,0.27593962152702867,0.7897088181993568,1,False,True,0.5794176363987136,0.6235710566026291,1,True,True,024
187,"{'mean': -0.3, 'sd': 0.37}",-0.9,0,0.8461399078369141,0,"(0, 2)",188,0,False,1.0,1,0,0,1.0,True,True,-0.9,0.9,-1.0,-1.0,-0.16707055735521453,0.015661793217919225,0,True,True,0.9686764135641616,0.034742244750983406,0,True,True,0.9305155104980332,0.013085899476143139,0,True,True,024
188,"{'mean': -0.3, 'sd': 0.37}",-0.3,1,0.4748189449310303,0,"(1, 2)",189,0,False,0.0,1,0,0,0.0,True,True,-0.3,0.3,-1.0,0.6000000000000001,-0.744821716176951,0.11337516865235016,0,False,True,0.7732496626952997,0.03550391966111645,0,False,True,0.9289921606777671,0.19854223211145114,0,False,True,024
189,"{'mean': -0.3, 'sd': 0.37}",-0.7,0,0.8207359313964844,0,"(0, 2)",190,0,False,0.0,1,0,0,0.0,True,True,-0.7,0.7,-1.0,-0.39999999999999997,-0.19755386390301566,0.020678357723071042,0,False,True,0.9586432845538579,0.0052827324936443295,0,False,True,0.9894345350127114,0.0343281253064721,0,False,True,024
190,"{'mean': -0.3, 'sd': 0.37}",-0.5,1,0.6175141334533691,0,"(1, 2)",191,0,False,0.0,1,0,0,0.0,True,True,-0.5,0.5,-1.0,0.19999999999999996,-0.48205332255834155,0.046756157486622575,0,False,True,0.9064876850267548,0.011049322775079242,0,False,True,0.9779013544498415,0.08619644561471856,0,False,True,024
191,"{'mean': -0.3, 'sd': 0.37}",-0.7,0,0.6953611373901367,0,"(0, 2)",192,0,False,0.0,1,0,0,0.0,True,True,-0.7,0.7,-1.0,-0.19999999999999996,-0.3633239462301006,0.018838158758638198,0,False,True,0.9623236824827236,0.0043965256960064765,0,False,True,0.9912069486079871,0.0343281253064721,0,False,True,024
192,"{'mean': -0.3, 'sd': 0.37}",-0.3,1,1.08760404586792,0,"(1, 3)",193,0,False,0.0,1,0,0,0.0,True,True,-0.3,0.3,-1.0,0.39999999999999997,0.08397715376550798,0.11384408438142007,0,False,True,0.7723118312371599,0.02829968467723673,0,False,True,0.9434006306455265,0.19854223211145114,0,False,True,024
193,"{'mean': -0.3, 'sd': 0.37}",-0.5,1,0.5463311672210693,0,"(1, 3)",194,0,True,0.0,1,0,0,0.0,True,True,-0.5,0.5,-1.0,-0.2,-0.6045299537323319,0.053088798015834625,0,False,True,0.8938224039683308,0.013204889743715729,0,False,True,0.9735902205125685,0.08619644561471856,0,False,True,024
194,"{'mean': -0.3, 'sd': 0.37}",-0.5,0,0.501370906829834,0,"(0, 3)",195,0,False,0.0,1,0,0,0.0,True,True,-0.5,0.5,-1.0,0.0,-0.6904091188148803,0.048900472855127955,0,False,True,0.9021990542897441,0.011782249062345967,0,False,True,0.976435501875308,0.08619644561471856,0,False,True,024
195,"{'mean': -0.3, 'sd': 0.37}",-0.7,1,0.6914768218994141,0,"(1, 3)",196,0,False,0.0,1,0,0,0.0,True,True,-0.7,0.7,-1.0,-0.19999999999999996,-0.3689256470227228,0.018895555287580842,0,False,True,0.9622088894248383,0.004422543962036774,0,False,True,0.9911549120759264,0.0343281253064721,0,False,True,024
196,"{'mean': 0.3, 'sd': 0.37}",0.3,2,1.3516061305999756,1,"(0, 2)",197,1,False,1.0,0,1,1,1.0,True,True,0.3,0.3,1.0,1.0,0.30129361165710405,0.6862816500537277,1,True,True,0.3725633001074553,0.33154509522421305,0,False,False,0.3369098095515739,0.8083525901114329,1,True,True,024
197,"{'mean': 0.3, 'sd': 0.37}",-0.1,1,1.3770661354064941,1,"(1, 2)",198,1,False,0.0,1,0,0,1.0,False,True,-0.1,0.1,-1.0,-0.4,0.31995524721082347,0.4517782593989866,0,True,True,0.09644348120202684,0.27082569316458927,0,False,True,0.45834861367082147,0.39169559866232884,0,True,True,024
198,"{'mean': 0.3, 'sd': 0.37}",0.1,3,0.9013090133666992,1,"(1, 3)",199,1,False,0.0,0,1,1,1.0,True,True,0.1,0.1,1.0,0.2,-0.1039071130629208,0.6085381455395811,1,True,True,0.21707629107916215,0.43515720135092867,0,False,False,0.12968559729814266,0.6235710566026291,1,True,True,024
199,"{'mean': 0.3, 'sd': 0.37}",0.7,2,0.8286011219024658,1,"(0, 2)",200,1,False,0.0,0,1,1,0.0,True,True,0.7,0.7,1.0,0.6,-0.1880163953662236,0.9683504493847356,1,False,True,0.9367008987694712,0.9556487785851147,1,True,True,0.9112975571702293,0.963652584628436,1,False,True,024
200,"{'mean': 0.3, 'sd': 0.37}",0.3,2,0.6085431575775146,1,"(0, 3)",201,1,True,0.0,0,0,1,0.0,False,False,0.3,0.3,1.0,-0.39999999999999997,-0.49668744453792163,0.88867340296842,1,False,True,0.77734680593684,0.9637208592465334,1,False,True,0.9274417184930668,0.8083525901114329,1,False,True,024
201,"{'mean': 0.3, 'sd': 0.37}",0.3,3,0.5645310878753662,1,"(0, 3)",202,1,False,0.0,0,1,1,0.0,True,True,0.3,0.3,1.0,0.0,-0.5717598253846802,0.8768726042621193,1,False,True,0.7537452085242387,0.9656117538134272,1,False,True,0.9312235076268545,0.8083525901114329,1,False,True,024
202,"{'mean': 0.3, 'sd': 0.37}",0.5,2,0.5380830764770508,1,"(0, 2)",203,1,False,0.0,0,1,1,0.0,True,True,0.5,0.5,1.0,0.2,-0.6197423134978792,0.9463853668561634,1,False,True,0.8927707337123267,0.9862472830803785,1,False,True,0.9724945661607569,0.9140117289686287,1,False,True,024
203,"{'mean': 0.3, 'sd': 0.37}",0.9,3,0.5826969146728516,1,"(1, 3)",204,1,False,0.0,0,1,1,0.0,True,True,0.9,0.9,1.0,0.4,-0.5400880997281089,0.9917344015221716,1,False,True,0.9834688030443433,0.9980640434829375,1,False,True,0.9961280869658751,0.9849507989697606,1,False,True,024
204,"{'mean': 0.3, 'sd': 0.37}",0.1,2,1.3636350631713867,1,"(1, 2)",205,1,False,0.0,0,1,1,0.0,True,True,0.1,0.1,1.0,-0.8,0.31015397462906835,0.7643885290156746,1,False,True,0.5287770580313491,0.9350204895268363,1,False,True,0.8700409790536725,0.6235710566026291,1,False,True,024
205,"{'mean': 0.3, 'sd': 0.37}",-0.5,0,0.673267126083374,1,"(0, 2)",206,1,False,0.0,1,0,0,1.0,False,True,-0.5,0.5,-1.0,-0.6,-0.39561310968842106,0.11825914006346544,0,True,True,0.7634817198730691,0.3422562415707291,0,True,True,0.3154875168585418,0.08619644561471856,0,True,True,024
206,"{'mean': 0.3, 'sd': 0.37}",0.3,3,0.9668779373168945,1,"(1, 3)",207,1,False,0.0,0,1,1,1.0,True,True,0.3,0.3,1.0,0.8,-0.03368301971046742,0.7161215327768634,1,True,True,0.4322430655537268,0.7162015337003493,1,True,True,0.43240306740069867,0.8083525901114329,1,True,True,024
207,"{'mean': -0.3, 'sd': 0.37}",-0.1,0,0.7620358467102051,0,"(0, 2)",208,0,False,1.0,1,0,0,1.0,True,True,-0.1,0.1,-1.0,-0.4,-0.27176168147519625,0.46170900616607796,0,True,True,0.07658198766784408,0.5690780118069453,1,False,False,0.13815602361389057,0.39169559866232884,0,True,True,024
208,"{'mean': -0.3, 'sd': 0.37}",0.1,1,0.7102479934692383,0,"(1, 2)",209,0,False,0.0,1,0,0,0.0,True,True,0.1,0.1,1.0,0.2,-0.3421410833567395,0.6116534343881093,1,True,False,0.22330686877621853,0.6738701069189106,1,False,False,0.34774021383782117,0.6235710566026291,1,True,False,024
209,"{'mean': -0.3, 'sd': 0.37}",-0.1,1,1.0549259185791016,0,"(1, 3)",210,0,True,0.0,1,0,0,0.0,True,True,-0.1,0.1,-1.0,-0.2,0.053470545106233565,0.42731817613823986,0,True,True,0.14536364772352028,0.5321302209676022,1,False,False,0.06426044193520442,0.39169559866232884,0,True,True,024
210,"{'mean': -0.3, 'sd': 0.37}",-0.5,1,0.7226839065551758,0,"(1, 2)",211,0,True,0.0,1,0,0,0.0,True,True,-0.5,0.5,-1.0,-0.4,-0.32478334944097437,0.07894045217584242,0,False,True,0.8421190956483151,0.09461741386999871,0,True,True,0.8107651722600026,0.08619644561471856,0,False,True,024
211,"{'mean': -0.3, 'sd': 0.37}",-0.7,1,0.7083451747894287,0,"(1, 3)",212,0,True,0.0,1,0,0,0.0,True,True,-0.7,0.7,-1.0,-0.19999999999999996,-0.34482376908168116,0.019712249285702078,0,False,True,0.9605755014285958,0.007590803371384928,0,False,True,0.9848183932572302,0.0343281253064721,0,False,True,024
212,"{'mean': -0.3, 'sd': 0.37}",-0.1,0,0.7208259105682373,0,"(0, 2)",213,0,False,0.0,1,0,0,0.0,True,True,-0.1,0.1,-1.0,0.6,-0.32735762637482163,0.2505759583736923,0,False,True,0.4988480832526154,0.07214429186761978,0,False,True,0.8557114162647604,0.39169559866232884,0,False,True,024
213,"{'mean': -0.3, 'sd': 0.37}",-0.7,1,0.5665719509124756,0,"(1, 2)",214,0,False,0.0,1,0,0,0.0,True,True,-0.7,0.7,-1.0,-0.6,-0.568151197024869,0.02487928283973122,0,False,True,0.9502414343205375,0.006684165963986775,0,False,True,0.9866316680720264,0.0343281253064721,0,False,True,024
214,"{'mean': 0.3, 'sd': 0.37}",0.9,2,0.7322368621826172,1,"(0, 2)",215,1,False,1.0,0,1,1,1.0,True,True,0.9,0.9,1.0,1.6,-0.31165123514556997,0.971625273325276,1,True,True,0.9432505466505521,0.8869254949862002,1,True,True,0.7738509899724004,0.9849507989697606,1,True,True,024
215,"{'mean': 0.3, 'sd': 0.37}",-0.3,0,0.7093198299407959,1,"(0, 3)",216,1,False,0.0,1,0,0,1.0,False,True,-0.3,0.3,-1.0,-1.2,-0.3434487541075125,0.3202251832759834,0,True,True,0.35954963344803315,0.510776242000016,1,False,False,0.02155248400003207,0.19854223211145114,0,True,True,024
216,"{'mean': 0.3, 'sd': 0.37}",0.7,2,1.331157922744751,1,"(0, 2)",217,1,False,0.0,0,1,1,1.0,True,True,0.7,0.7,1.0,1.0,0.2860491820701866,0.9543316648844888,1,True,True,0.9086633297689777,0.9648364636653507,1,False,True,0.9296729273307014,0.963652584628436,1,True,True,024
217,"{'mean': 0.3, 'sd': 0.37}",0.5,3,0.8416979312896729,1,"(1, 3)",218,1,False,0.0,0,1,1,0.0,True,True,0.5,0.5,1.0,-0.19999999999999996,-0.1723340805439453,0.9517175600584142,1,False,True,0.9034351201168285,0.9861727246349827,1,False,True,0.9723454492699655,0.9140117289686287,1,False,True,024
218,"{'mean': 0.3, 'sd': 0.37}",0.5,2,0.6578159332275391,1,"(0, 2)",219,1,False,0.0,0,1,1,0.0,True,True,0.5,0.5,1.0,0.0,-0.41883012352670174,0.951543502922738,1,False,True,0.9030870058454761,0.9881906912791776,1,False,True,0.9763813825583552,0.9140117289686287,1,False,True,024
219,"{'mean': 0.3, 'sd': 0.37}",-0.1,1,0.8483271598815918,1,"(1, 3)",220,1,False,0.0,1,0,0,1.0,False,True,-0.1,0.1,-1.0,-0.6,-0.16448891584543213,0.543227919474957,1,False,False,0.08645583894991393,0.837445115729808,1,False,False,0.6748902314596159,0.39169559866232884,0,True,True,024
220,"{'mean': 0.3, 'sd': 0.37}",0.3,2,0.7039358615875244,1,"(1, 2)",221,1,False,0.0,0,1,1,1.0,True,True,0.3,0.3,1.0,0.4,-0.35106803267401016,0.8170244901420014,1,False,True,0.6340489802840028,0.9334514676332191,1,False,True,0.8669029352664381,0.8083525901114329,1,True,True,024
221,"{'mean': 0.3, 'sd': 0.37}",0.1,3,0.9861390590667725,1,"(1, 3)",222,1,False,0.0,0,1,1,0.0,True,True,0.1,0.1,1.0,-0.19999999999999998,-0.013957900787515451,0.71681288356819,1,False,True,0.4336257671363799,0.9005073821956889,1,False,True,0.8010147643913779,0.6235710566026291,1,False,True,024
222,"{'mean': 0.3, 'sd': 0.37}",0.5,2,0.8501369953155518,1,"(0, 2)",223,1,False,0.0,0,1,1,0.0,True,True,0.5,0.5,1.0,0.4,-0.162357771524946,0.9340903524023569,1,False,True,0.8681807048047139,0.9796386463257749,1,False,True,0.9592772926515498,0.9140117289686287,1,False,True,024
223,"{'mean': 0.3, 'sd': 0.37}",1.0,2,0.6255040168762207,1,"(0, 2)",224,1,True,0.0,0,1,1,0.0,True,True,1.0,1.0,1.0,0.5,-0.46919752723132974,0.9946090336930969,1,False,True,0.9892180673861939,0.9986967009608512,1,False,True,0.9973934019217023,0.9903320857704108,1,False,True,024
224,"{'mean': -0.3, 'sd': 0.37}",0.1,3,1.0128660202026367,0,"(0, 3)",225,0,False,1.0,0,1,1,0.0,False,True,0.1,0.1,1.0,-0.9,0.01278395610735957,0.7651503786257255,1,False,True,0.5303007572514511,0.9353511696721802,1,False,True,0.8707023393443605,0.6235710566026291,1,False,True,024
225,"{'mean': 0.3, 'sd': 0.37}",0.7,2,0.7422330379486084,1,"(0, 2)",226,1,False,1.0,0,1,1,0.0,True,True,0.7,0.7,1.0,0.6,-0.2980920178073884,0.9741841047840951,1,False,True,0.9483682095681902,0.9932226444919623,1,False,True,0.9864452889839246,0.963652584628436,1,False,True,024
226,"{'mean': 0.3, 'sd': 0.37}",0.5,2,1.0056278705596924,1,"(1, 2)",227,1,True,0.0,0,1,1,0.0,True,True,0.5,0.5,1.0,-0.19999999999999996,0.005612093263548893,0.953026540403611,1,False,True,0.906053080807222,0.9888423403894105,1,False,True,0.9776846807788211,0.9140117289686287,1,False,True,024
227,"{'mean': -0.3, 'sd': 0.37}",-0.3,1,0.8853850364685059,0,"(1, 3)",228,0,False,1.0,1,0,0,1.0,True,True,-0.3,0.3,-1.0,-0.8,-0.12173265913354264,0.31437355103035564,0,True,True,0.37125289793928873,0.6658261281184147,1,False,False,0.33165225623682937,0.19854223211145114,0,True,True,024
228,"{'mean': -0.3, 'sd': 0.37}",-0.5,0,0.7192411422729492,0,"(0, 2)",229,0,False,0.0,1,0,0,0.0,True,True,-0.5,0.5,-1.0,-0.2,-0.32955859185335595,0.06870128132788335,0,False,True,0.8625974373442333,0.13946321662673472,0,True,True,0.7210735667465306,0.08619644561471856,0,False,True,024
229,"{'mean': -0.3, 'sd': 0.37}",0.9,3,1.2259490489959717,0,"(0, 3)",230,0,False,0.0,0,1,1,1.0,False,True,0.9,0.9,1.0,1.4,0.2037152779195766,0.9733219371903414,1,True,True,0.9466438743806829,0.9465002275892118,1,True,True,0.8930004551784236,0.9849507989697606,1,True,True,024
230,"{'mean': -0.3, 'sd': 0.37}",-0.1,0,1.3880510330200195,0,"(0, 3)",231,0,False,0.0,1,0,0,1.0,True,True,-0.1,0.1,-1.0,-1.0,0.3279006287142015,0.5510659275188396,1,False,False,0.1021318550376793,0.7924449821436768,1,False,False,0.5848899642873535,0.39169559866232884,0,True,True,024
231,"{'mean': -0.3, 'sd': 0.37}",-0.1,0,0.8164730072021484,0,"(0, 2)",232,0,True,0.0,1,0,0,0.0,True,True,-0.1,0.1,-1.0,0.0,-0.20276142627038138,0.4078460715646155,0,True,True,0.184307856870769,0.6386537945987044,1,False,False,0.27730758919740883,0.39169559866232884,0,False,True,024
232,"{'mean': -0.3, 'sd': 0.37}",-0.1,0,0.7020869255065918,0,"(0, 2)",233,0,True,0.0,1,0,0,0.0,True,True,-0.1,0.1,-1.0,0.0,-0.3536980571141058,0.3631383067764334,0,False,True,0.27372338644713323,0.5022566002374992,1,False,False,0.004513200474998369,0.39169559866232884,0,False,True,024
233,"{'mean': 0.3, 'sd': 0.37}",-0.3,1,0.9033989906311035,1,"(1, 2)",234,1,False,1.0,1,0,0,0.0,False,True,-0.3,0.3,-1.0,-0.19999999999999998,-0.1015909730623421,0.1713257213932853,0,False,True,0.6573485572134294,0.19968889676450047,0,True,True,0.6006222064709991,0.19854223211145114,0,False,True,024
234,"{'mean': 0.3, 'sd': 0.37}",0.9,3,0.9341108798980713,1,"(0, 3)",235,1,False,0.0,0,1,1,1.0,True,True,0.9,0.9,1.0,1.2,-0.06816013270507885,0.9768245856406436,1,True,True,0.9536491712812871,0.9584847139820726,1,True,True,0.9169694279641452,0.9849507989697606,1,True,True,024
235,"{'mean': 0.3, 'sd': 0.37}",0.5,3,1.2828640937805176,1,"(1, 2)",236,1,True,0.0,0,0,1,0.0,False,False,0.5,0.5,1.0,-0.4,0.24909515155855055,0.9531989464666355,1,False,True,0.906397892933271,0.9855583081028849,1,False,True,0.9711166162057698,0.9140117289686287,1,False,True,024
236,"{'mean': 0.3, 'sd': 0.37}",-0.1,0,1.25996994972229,1,"(0, 3)",237,1,False,0.0,1,0,0,1.0,False,True,-0.1,0.1,-1.0,-0.6,0.2310878712522306,0.5438218805018119,1,False,False,0.08764376100362381,0.8345577474621857,1,False,False,0.6691154949243714,0.39169559866232884,0,True,True,024
237,"{'mean': -0.3, 'sd': 0.37}",-0.1,1,0.9255828857421875,0,"(1, 3)",238,0,False,1.0,1,0,0,0.0,True,True,-0.1,0.1,-1.0,0.0,-0.07733159318049539,0.40554059981812174,0,True,True,0.18891880036375652,0.6788582738371748,1,False,False,0.35771654767434957,0.39169559866232884,0,False,True,024
238,"{'mean': 0.3, 'sd': 0.37}",0.3,3,0.719635009765625,1,"(0, 3)",239,1,False,1.0,0,1,1,1.0,True,True,0.3,0.3,1.0,0.4,-0.3290111263860116,0.7883008013557217,1,True,True,0.5766016027114433,0.8834471688544644,1,False,True,0.7668943377089288,0.8083525901114329,1,True,True,024
239,"{'mean': 0.3, 'sd': 0.37}",0.1,2,0.8972799777984619,1,"(0, 2)",240,1,False,0.0,0,1,1,0.0,True,True,0.1,0.1,1.0,-0.19999999999999998,-0.10838733875917643,0.7087435966917512,1,False,True,0.4174871933835025,0.8727500406494314,1,False,True,0.7455000812988628,0.6235710566026291,1,False,True,024
240,"{'mean': 0.3, 'sd': 0.37}",0.5,3,0.8796029090881348,1,"(1, 3)",241,1,False,0.0,0,1,1,0.0,True,True,0.5,0.5,1.0,0.4,-0.12828471302171718,0.9334194690522233,1,False,True,0.8668389381044466,0.9765896563189006,1,False,True,0.9531793126378012,0.9140117289686287,1,False,True,024
241,"{'mean': 0.3, 'sd': 0.37}",0.1,3,1.1806199550628662,1,"(1, 3)",242,1,True,0.0,0,1,1,0.0,True,True,0.1,0.1,1.0,-0.4,0.16603968615735312,0.748789778509481,1,False,True,0.49757955701896206,0.923713897687166,1,False,True,0.8474277953743321,0.6235710566026291,1,False,True,024
242,"{'mean': 0.3, 'sd': 0.37}",0.7,2,0.661592960357666,1,"(0, 2)",243,1,False,0.0,0,1,1,0.0,True,True,0.7,0.7,1.0,0.6,-0.4131047756592732,0.9736200166613062,1,False,True,0.9472400333226123,0.9927365235557419,1,False,True,0.9854730471114839,0.963652584628436,1,False,True,024
243,"{'mean': -0.3, 'sd': 0.37}",-0.5,1,1.0317161083221436,0,"(1, 3)",244,0,False,1.0,1,0,0,1.0,True,True,-0.5,0.5,-1.0,-1.2,0.031223540380364727,0.15246685165848958,0,True,True,0.6950662966830208,0.4392383516206261,0,True,True,0.12152329675874785,0.08619644561471856,0,True,True,024
244,"{'mean': 0.3, 'sd': 0.37}",-0.1,0,1.0332770347595215,1,"(0, 2)",245,1,False,1.0,1,0,0,0.0,False,True,-0.1,0.1,-1.0,0.4,0.0327353388479804,0.28773916706734043,0,False,True,0.42452166586531914,0.3465107947413101,0,False,True,0.30697841051737984,0.39169559866232884,0,False,True,024
245,"{'mean': -0.3, 'sd': 0.37}",0.3,3,1.1941158771514893,0,"(1, 2)",246,0,False,1.0,0,0,1,1.0,False,False,0.3,0.3,1.0,0.4,0.17740605980201912,0.7609337550593267,1,True,True,0.5218675101186534,0.7191283631758499,1,True,True,0.4382567263516999,0.8083525901114329,1,True,True,024
246,"{'mean': -0.3, 'sd': 0.37}",0.1,1,1.3107149600982666,0,"(1, 2)",247,0,False,0.0,1,0,0,1.0,True,True,0.1,0.1,1.0,-0.19999999999999998,0.270572759401577,0.700988073892071,1,False,False,0.4019761477841419,0.774450727530565,1,False,False,0.54890145506113,0.6235710566026291,1,False,False,024
247,"{'mean': -0.3, 'sd': 0.37}",-0.7,1,0.8104360103607178,0,"(1, 3)",248,0,True,0.0,1,0,0,0.0,True,True,-0.7,0.7,-1.0,-0.7999999999999999,-0.21018289174278185,0.04434241450343213,0,True,True,0.9113151709931357,0.08323510793153487,0,True,True,0.8335297841369302,0.0343281253064721,0,True,True,024
248,"{'mean': -0.3, 'sd': 0.37}",-0.3,1,0.7124769687652588,0,"(1, 2)",249,0,True,0.0,1,0,0,0.0,True,True,-0.3,0.3,-1.0,0.39999999999999997,-0.3390076919017683,0.11764550881935094,0,False,True,0.7647089823612981,0.047638980757148466,0,False,True,0.9047220384857031,0.19854223211145114,0,False,True,024
249,"{'mean': -0.3, 'sd': 0.37}",-1.0,1,0.5472099781036377,0,"(1, 3)",250,0,True,0.0,1,0,0,0.0,True,True,-1.0,1.0,-1.0,-0.7,-0.6029226780015298,0.004797213662947894,0,False,True,0.9904055726741042,0.0013075973520307723,0,False,True,0.9973848052959384,0.008002150533589058,0,False,True,024
250,"{'mean': -0.3, 'sd': 0.37}",-0.3,0,0.6819920539855957,0,"(0, 3)",251,0,False,0.0,1,0,0,0.0,True,True,-0.3,0.3,-1.0,0.7,-0.38273727225406257,0.11177874395257546,0,False,True,0.776442512094849,0.027582280576868224,0,False,True,0.9448354388462635,0.19854223211145114,0,False,True,024
251,"{'mean': -0.3, 'sd': 0.37}",-0.5,0,0.36127495765686035,0,"(0, 3)",252,0,True,0.0,1,0,0,0.0,True,True,-0.5,0.5,-1.0,-0.2,-1.018115955002482,0.05294265802542166,0,False,True,0.8941146839491567,0.013136486685992751,0,False,True,0.9737270266280145,0.08619644561471856,0,False,True,024
252,"{'mean': -0.3, 'sd': 0.37}",-0.1,1,0.687877893447876,0,"(1, 3)",253,0,False,0.0,1,0,0,0.0,True,True,-0.1,0.1,-1.0,0.4,-0.3741439372539815,0.2597542501391548,0,False,True,0.48049149972169036,0.07522548902692476,0,False,True,0.8495490219461505,0.39169559866232884,0,False,True,024
253,"{'mean': -0.3, 'sd': 0.37}",-0.5,1,0.8330910205841064,0,"(1, 2)",254,0,True,0.0,1,0,0,0.0,True,True,-0.5,0.5,-1.0,-0.4,-0.182612374376361,0.06414968990451526,0,False,True,0.8717006201909695,0.01785933880098171,0,False,True,0.9642813223980365,0.08619644561471856,0,False,True,024
254,"{'mean': -0.3, 'sd': 0.37}",-0.3,0,0.6197900772094727,0,"(0, 3)",255,0,False,0.0,1,0,0,0.0,True,True,-0.3,0.3,-1.0,0.2,-0.47837444342190394,0.12064309049913464,0,False,True,0.7587138190017307,0.031460402081385924,0,False,True,0.9370791958372282,0.19854223211145114,0,False,True,024
255,"{'mean': -0.3, 'sd': 0.37}",-0.3,1,0.6126739978790283,0,"(1, 3)",256,0,False,0.0,1,0,0,0.0,True,True,-0.3,0.3,-1.0,0.0,-0.48992229873597604,0.12941784495424816,0,False,True,0.7411643100915037,0.034710824519310464,0,False,True,0.9305783509613791,0.19854223211145114,0,False,True,024
256,"{'mean': -0.3, 'sd': 0.37}",-0.3,0,0.8606798648834229,0,"(0, 3)",257,0,False,0.0,1,0,0,0.0,True,True,-0.3,0.3,-1.0,0.0,-0.15003266148506786,0.13081157197589016,0,False,True,0.7383768560482197,0.03549631021502541,0,False,True,0.9290073795699492,0.19854223211145114,0,False,True,024
257,"{'mean': 0.3, 'sd': 0.37}",0.7,3,1.0217418670654297,1,"(0, 3)",258,1,False,1.0,0,1,1,1.0,True,True,0.7,0.7,1.0,1.0,0.021508883621839767,0.9416507850520407,1,True,True,0.8833015701040814,0.7984119091369951,1,True,True,0.5968238182739902,0.963652584628436,1,True,True,024
258,"{'mean': 0.3, 'sd': 0.37}",0.7,2,0.8597691059112549,1,"(1, 2)",259,1,False,0.0,0,1,1,0.0,True,True,0.7,0.7,1.0,0.0,-0.15109140728073422,0.9797048946658368,1,False,True,0.9594097893316735,0.9867673745986343,1,False,True,0.9735347491972686,0.963652584628436,1,False,True,024
259,"{'mean': 0.3, 'sd': 0.37}",0.9,2,0.7554328441619873,1,"(0, 2)",260,1,True,0.0,0,1,1,0.0,True,True,0.9,0.9,1.0,0.20000000000000007,-0.28046439048298416,0.9921219520530599,1,False,True,0.9842439041061197,0.9980720483228592,1,False,True,0.9961440966457185,0.9849507989697606,1,False,True,024
260,"{'mean': -0.3, 'sd': 0.37}",0.3,2,0.7018182277679443,0,"(0, 2)",261,0,True,1.0,0,1,1,0.0,False,True,0.3,0.3,1.0,-0.6000000000000001,-0.35408084328922834,0.8920708251345009,1,False,True,0.7841416502690017,0.9734333571412594,1,False,True,0.9468667142825189,0.8083525901114329,1,False,True,024
261,"{'mean': -0.3, 'sd': 0.37}",-1.0,0,1.1739580631256104,0,"(0, 3)",262,0,False,0.0,1,0,0,1.0,True,True,-1.0,1.0,-1.0,-1.3,0.16038099940979864,0.013500771348227842,0,True,True,0.9729984573035443,0.054455734381429054,0,True,True,0.8910885312371419,0.008002150533589058,0,True,True,024
262,"{'mean': -0.3, 'sd': 0.37}",0.3,3,1.4324331283569336,0,"(1, 3)",263,0,False,0.0,0,1,1,1.0,False,True,0.3,0.3,1.0,1.3,0.35937448674186506,0.6845755945447263,1,True,True,0.36915118908945255,0.41716493085007134,0,False,False,0.16567013829985733,0.8083525901114329,1,True,True,024
263,"{'mean': -0.3, 'sd': 0.37}",0.1,3,0.9835848808288574,0,"(1, 3)",264,0,True,0.0,0,1,1,0.0,False,True,0.1,0.1,1.0,-0.19999999999999998,-0.01655134001804193,0.6789941997472021,1,False,True,0.3579883994944042,0.5595253028465735,1,True,True,0.11905060569314707,0.6235710566026291,1,False,True,024
264,"{'mean': -0.3, 'sd': 0.37}",0.1,3,0.7202229499816895,0,"(1, 3)",265,0,True,0.0,0,1,1,0.0,False,True,0.1,0.1,1.0,0.0,-0.32819446215220843,0.6773657173609191,1,False,True,0.3547314347218382,0.6670736138171428,1,False,True,0.3341472276342856,0.6235710566026291,1,False,True,024
265,"{'mean': -0.3, 'sd': 0.37}",-0.3,0,0.6414260864257812,0,"(0, 2)",266,0,False,0.0,1,0,0,1.0,True,True,-0.3,0.3,-1.0,-0.4,-0.44406132147781563,0.23854960362203245,0,True,True,0.522900792755935,0.2994489041674129,0,True,True,0.40110219166517425,0.19854223211145114,0,True,True,024
266,"{'mean': -0.3, 'sd': 0.37}",-0.7,1,0.7549648284912109,0,"(1, 3)",267,0,False,0.0,1,0,0,0.0,True,True,-0.7,0.7,-1.0,-0.39999999999999997,-0.28108411559806995,0.024486677205033478,0,False,True,0.951026645589933,0.01800231429977575,0,False,True,0.9639953714004486,0.0343281253064721,0,False,True,024
267,"{'mean': -0.3, 'sd': 0.37}",-0.1,0,0.5973429679870605,0,"(0, 3)",268,0,False,0.0,1,0,0,0.0,True,True,-0.1,0.1,-1.0,0.6,-0.5152638448028254,0.2518896480819373,0,False,True,0.4962207038361254,0.07793728485884516,0,False,True,0.8441254302823097,0.39169559866232884,0,False,True,024
268,"{'mean': -0.3, 'sd': 0.37}",-0.3,0,0.5725948810577393,0,"(0, 3)",269,0,True,0.0,1,0,0,0.0,True,True,-0.3,0.3,-1.0,-0.19999999999999998,-0.5575768261804034,0.15118739063308032,0,False,True,0.6976252187338394,0.04627409092728007,0,False,True,0.9074518181454398,0.19854223211145114,0,False,True,024
269,"{'mean': -0.3, 'sd': 0.37}",-0.5,1,0.6533381938934326,0,"(1, 2)",270,0,False,0.0,1,0,0,0.0,True,True,-0.5,0.5,-1.0,-0.2,-0.4256603758205527,0.0557788523880207,0,False,True,0.8884422952239586,0.014945141996381209,0,False,True,0.9701097160072376,0.08619644561471856,0,False,True,024
270,"{'mean': -0.3, 'sd': 0.37}",-0.1,1,0.5180149078369141,0,"(1, 2)",271,0,True,0.0,1,0,0,0.0,True,True,-0.1,0.1,-1.0,0.4,-0.6577512575288368,0.2605414031722457,0,False,True,0.47891719365550856,0.07623256770643053,0,False,True,0.847534864587139,0.39169559866232884,0,False,True,024
271,"{'mean': -0.3, 'sd': 0.37}",-0.3,0,0.5811748504638672,0,"(0, 3)",272,0,False,0.0,1,0,0,0.0,True,True,-0.3,0.3,-1.0,-0.19999999999999998,-0.5427036199637116,0.15269525621185187,0,False,True,0.6946094875762963,0.04583700044716905,0,False,True,0.9083259991056619,0.19854223211145114,0,False,True,024
272,"{'mean': -0.3, 'sd': 0.37}",0.1,2,0.9377999305725098,0,"(1, 2)",273,0,False,0.0,0,1,1,1.0,False,True,0.1,0.1,1.0,0.4,-0.06421864635895311,0.509711692122195,1,True,True,0.01942338424439005,0.20990283712142246,0,False,False,0.5801943257571551,0.6235710566026291,1,True,True,024
273,"{'mean': -0.3, 'sd': 0.37}",-0.3,1,0.9018170833587646,0,"(1, 3)",274,0,False,0.0,1,0,0,1.0,True,True,-0.3,0.3,-1.0,-0.4,-0.10334356955208789,0.20058639208468815,0,True,True,0.5988272158306237,0.0835078859697184,0,False,True,0.8329842280605632,0.19854223211145114,0,True,True,024
274,"{'mean': -0.3, 'sd': 0.37}",0.1,2,0.886836051940918,0,"(0, 3)",275,0,False,0.0,0,0,1,1.0,False,False,0.1,0.1,1.0,0.4,-0.12009514809596784,0.5262168471970718,1,True,True,0.05243369439414369,0.25094565033747296,0,False,False,0.4981086993250541,0.6235710566026291,1,True,True,024
275,"{'mean': 0.3, 'sd': 0.37}",-0.1,1,1.1674659252166748,1,"(1, 3)",276,1,False,1.0,1,0,0,1.0,False,True,-0.1,0.1,-1.0,-0.2,0.15483552402507803,0.39995761104398336,0,True,True,0.20008477791203327,0.21757114212399548,0,False,True,0.564857715752009,0.39169559866232884,0,True,True,024
276,"{'mean': -0.3, 'sd': 0.37}",-0.3,0,0.959568977355957,0,"(0, 2)",277,0,False,1.0,1,0,0,0.0,True,True,-0.3,0.3,-1.0,-0.19999999999999998,-0.041271077263695326,0.17836781391644155,0,False,True,0.643264372167117,0.08589975377008932,0,False,True,0.8282004924598214,0.19854223211145114,0,False,True,024
277,"{'mean': -0.3, 'sd': 0.37}",-0.5,0,0.6966099739074707,0,"(0, 2)",278,0,True,0.0,1,0,0,0.0,True,True,-0.5,0.5,-1.0,-0.2,-0.3615296031690013,0.05779542264154931,0,False,True,0.8844091547169014,0.018970103486734155,0,False,True,0.9620597930265317,0.08619644561471856,0,False,True,024
278,"{'mean': -0.3, 'sd': 0.37}",-0.3,1,0.7386660575866699,0,"(1, 2)",279,0,False,0.0,1,0,0,0.0,True,True,-0.3,0.3,-1.0,0.2,-0.30290934435019484,0.11967708112194454,0,False,True,0.7606458377561109,0.0317236775731094,0,False,True,0.9365526448537812,0.19854223211145114,0,False,True,024
279,"{'mean': -0.3, 'sd': 0.37}",-0.5,1,0.6645050048828125,0,"(1, 3)",280,0,True,0.0,1,0,0,0.0,True,True,-0.5,0.5,-1.0,-0.2,-0.4087128690546238,0.05350300317895691,0,False,True,0.8929939936420862,0.013532462873500767,0,False,True,0.9729350742529985,0.08619644561471856,0,False,True,024
280,"{'mean': -0.3, 'sd': 0.37}",-0.3,0,0.823307991027832,0,"(0, 2)",281,0,False,0.0,1,0,0,0.0,True,True,-0.3,0.3,-1.0,0.2,-0.19442491863008096,0.1190268687737813,0,False,True,0.7619462624524374,0.030438488793934487,0,False,True,0.939123022412131,0.19854223211145114,0,False,True,024
281,"{'mean': -0.3, 'sd': 0.37}",-0.3,1,0.9032001495361328,0,"(1, 3)",282,0,False,0.0,1,0,0,0.0,True,True,-0.3,0.3,-1.0,0.0,-0.1018111005841068,0.1291620547311917,0,False,True,0.7416758905376166,0.034464570973305145,0,False,True,0.9310708580533897,0.19854223211145114,0,False,True,024
282,"{'mean': -0.3, 'sd': 0.37}",0.3,2,0.8055229187011719,0,"(0, 2)",283,0,False,0.0,0,1,1,1.0,False,True,0.3,0.3,1.0,0.6,-0.2162636240061659,0.719223069711726,1,True,True,0.438446139423452,0.38481591963160855,0,False,False,0.2303681607367829,0.8083525901114329,1,True,True,024
283,"{'mean': -0.3, 'sd': 0.37}",0.5,3,0.7607018947601318,0,"(1, 2)",284,0,False,0.0,0,0,1,0.0,False,False,0.5,0.5,1.0,0.2,-0.2735137261707153,0.9342897129227509,1,False,True,0.8685794258455017,0.8799967929685988,1,True,True,0.7599935859371976,0.9140117289686287,1,False,True,024
284,"{'mean': -0.3, 'sd': 0.37}",-0.5,0,1.15647292137146,0,"(0, 3)",285,0,False,0.0,1,0,0,1.0,True,True,-0.5,0.5,-1.0,-1.0,0.1453747881233746,0.14525613414997,0,True,True,0.7094877317000601,0.27734448921225985,0,True,True,0.4453110215754803,0.08619644561471856,0,True,True,024
285,"{'mean': -0.3, 'sd': 0.37}",-0.7,1,0.8936200141906738,0,"(1, 3)",286,0,False,0.0,1,0,0,0.0,True,True,-0.7,0.7,-1.0,-0.19999999999999996,-0.11247463421892578,0.021602708121094192,0,False,True,0.9567945837578116,0.016649769479791226,0,False,True,0.9667004610404175,0.0343281253064721,0,False,True,024
286,"{'mean': -0.3, 'sd': 0.37}",-0.5,1,1.104858160018921,0,"(1, 3)",287,0,True,0.0,1,0,0,0.0,True,True,-0.5,0.5,-1.0,0.19999999999999996,0.09971696475678567,0.04681648095043062,0,False,True,0.9063670380991388,0.01210387299716009,0,False,True,0.9757922540056798,0.08619644561471856,0,False,True,024
287,"{'mean': -0.3, 'sd': 0.37}",-0.7,0,0.785228967666626,0,"(0, 2)",288,0,False,0.0,1,0,0,0.0,True,True,-0.7,0.7,-1.0,-0.19999999999999996,-0.2417799251734374,0.01883977181113759,0,False,True,0.9623204563777248,0.0044339717040729875,0,False,True,0.991132056591854,0.0343281253064721,0,False,True,024
288,"{'mean': -0.3, 'sd': 0.37}",-0.9,1,0.6424989700317383,0,"(1, 2)",289,0,False,0.0,1,0,0,0.0,True,True,-0.9,0.9,-1.0,-0.20000000000000007,-0.4423900652774895,0.006829316081402034,0,False,True,0.986341367837196,0.001556905126856446,0,False,True,0.9968861897462871,0.013085899476143139,0,False,True,024
289,"{'mean': -0.3, 'sd': 0.37}",-0.3,0,0.6314229965209961,0,"(0, 2)",290,0,False,0.0,1,0,0,0.0,True,True,-0.3,0.3,-1.0,0.6000000000000001,-0.4597792820438292,0.11207646197451378,0,False,True,0.7758470760509725,0.027640075545893414,0,False,True,0.9447198489082131,0.19854223211145114,0,False,True,024
290,"{'mean': -0.3, 'sd': 0.37}",-0.1,0,0.6493549346923828,0,"(0, 3)",291,0,True,0.0,1,0,0,0.0,True,True,-0.1,0.1,-1.0,0.19999999999999998,-0.4317758170210444,0.2762910955380831,0,False,True,0.44741780892383376,0.08333166438500124,0,False,True,0.8333366712299975,0.39169559866232884,0,False,True,024
291,"{'mean': 0.3, 'sd': 0.37}",0.3,2,0.8891150951385498,1,"(0, 2)",292,1,False,1.0,0,1,1,1.0,True,True,0.3,0.3,1.0,0.4,-0.11752858600057448,0.7581205643589373,1,True,True,0.5162411287178745,0.4600922848826268,0,False,False,0.07981543023474635,0.8083525901114329,1,True,True,024
292,"{'mean': -0.3, 'sd': 0.37}",-0.5,1,0.9920248985290527,0,"(1, 2)",293,0,False,1.0,1,0,0,1.0,True,True,-0.5,0.5,-1.0,-0.8,-0.008007072688605142,0.11737451240785761,0,True,True,0.7652509751842848,0.07668091566462479,0,False,True,0.8466381686707505,0.08619644561471856,0,True,True,024
293,"{'mean': -0.3, 'sd': 0.37}",-0.3,1,0.6763160228729248,0,"(1, 2)",294,0,True,0.0,1,0,0,0.0,True,True,-0.3,0.3,-1.0,0.2,-0.3910948227213357,0.12890084041926442,0,False,True,0.7421983191614712,0.04595185849844871,0,False,True,0.9080962830031025,0.19854223211145114,0,False,True,024
294,"{'mean': 0.3, 'sd': 0.37}",0.7,2,1.019953966140747,1,"(1, 2)",295,1,False,1.0,0,1,1,1.0,True,True,0.7,0.7,1.0,1.0,0.019757495043173208,0.9415035289810819,1,True,True,0.8830070579621638,0.8097106435231715,1,True,True,0.6194212870463429,0.963652584628436,1,True,True,024
295,"{'mean': 0.3, 'sd': 0.37}",0.5,2,0.5094161033630371,1,"(1, 2)",296,1,True,0.0,0,1,1,0.0,True,True,0.5,0.5,1.0,-0.19999999999999996,-0.674490104523727,0.9508595779552484,1,False,True,0.9017191559104969,0.9690762871002433,1,False,True,0.9381525742004866,0.9140117289686287,1,False,True,024
296,"{'mean': 0.3, 'sd': 0.37}",-0.1,0,1.3759949207305908,1,"(0, 2)",297,1,False,0.0,1,0,0,1.0,False,True,-0.1,0.1,-1.0,-0.6,0.31917704817482645,0.5429826197587968,1,False,False,0.0859652395175936,0.8166214886288851,1,False,False,0.6332429772577701,0.39169559866232884,0,True,True,024
297,"{'mean': 0.3, 'sd': 0.37}",0.5,3,0.9418439865112305,1,"(0, 3)",298,1,False,0.0,0,1,1,1.0,True,True,0.5,0.5,1.0,0.6,-0.05991563753701342,0.9183610926530537,1,False,True,0.8367221853061073,0.9699429785249353,1,False,True,0.9398859570498705,0.9140117289686287,1,True,True,024
298,"{'mean': 0.3, 'sd': 0.37}",0.5,2,0.7816548347473145,1,"(0, 2)",299,1,False,0.0,0,1,1,0.0,True,True,0.5,0.5,1.0,0.0,-0.24634202366824873,0.9492870168813928,1,False,True,0.8985740337627857,0.9866620780750547,1,False,True,0.9733241561501094,0.9140117289686287,1,False,True,024
299,"{'mean': 0.3, 'sd': 0.37}",0.5,3,1.1341290473937988,1,"(1, 3)",300,1,False,0.0,0,1,1,0.0,True,True,0.5,0.5,1.0,0.0,0.1258649972382428,0.9513813103263026,1,False,True,0.9027626206526052,0.9882361623697895,1,False,True,0.976472324739579,0.9140117289686287,1,False,True,024
300,"{'mean': 0.3, 'sd': 0.37}",0.3,2,1.0209097862243652,1,"(1, 2)",301,1,False,0.0,0,1,1,0.0,True,True,0.3,0.3,1.0,-0.2,0.02069417702637245,0.8862142505277296,1,False,True,0.7724285010554592,0.9712302293477719,1,False,True,0.9424604586955438,0.8083525901114329,1,False,True,024
301,"{'mean': 0.3, 'sd': 0.37}",0.7,3,0.8052821159362793,1,"(1, 3)",302,1,False,0.0,0,1,1,0.0,True,True,0.7,0.7,1.0,0.39999999999999997,-0.21656260837920713,0.9780746528726624,1,False,True,0.9561493057453248,0.9946593820594192,1,False,True,0.9893187641188383,0.963652584628436,1,False,True,024
302,"{'mean': 0.3, 'sd': 0.37}",0.3,2,0.8840591907501221,1,"(0, 2)",303,1,False,0.0,0,1,1,0.0,True,True,0.3,0.3,1.0,-0.39999999999999997,-0.12323126072394217,0.8900698277643204,1,False,True,0.7801396555286408,0.9726722046760299,1,False,True,0.9453444093520598,0.8083525901114329,1,False,True,024
303,"{'mean': 0.3, 'sd': 0.37}",0.5,3,0.9455130100250244,1,"(0, 3)",304,1,False,0.0,0,1,1,0.0,True,True,0.5,0.5,1.0,0.2,-0.05602763103643646,0.947320109088979,1,False,True,0.894640218177958,0.9869219525391351,1,False,True,0.9738439050782701,0.9140117289686287,1,False,True,024
304,"{'mean': 0.3, 'sd': 0.37}",0.3,3,0.7523119449615479,1,"(0, 3)",305,1,True,0.0,0,1,1,0.0,True,True,0.3,0.3,1.0,-0.2,-0.28460422061891444,0.8856214493238898,1,False,True,0.7712428986477795,0.9709336797881963,1,False,True,0.9418673595763927,0.8083525901114329,1,False,True,024
305,"{'mean': 0.3, 'sd': 0.37}",-0.1,0,1.1495192050933838,1,"(0, 2)",306,1,False,0.0,1,0,0,1.0,False,True,-0.1,0.1,-1.0,-0.4,0.1393437724267995,0.5198169557759583,1,False,False,0.039633911551916645,0.8186305812015549,1,False,False,0.6372611624031097,0.39169559866232884,0,True,True,024
306,"{'mean': 0.3, 'sd': 0.37}",1.0,3,0.8845438957214355,1,"(0, 3)",307,1,False,0.0,0,1,1,1.0,True,True,1.0,1.0,1.0,1.1,-0.12268313889021204,0.9905789357615451,1,False,True,0.9811578715230902,0.9968220688192952,1,False,True,0.9936441376385905,0.9903320857704108,1,True,True,024
307,"{'mean': 0.3, 'sd': 0.37}",0.7,2,0.7653090953826904,1,"(1, 2)",308,1,False,0.0,0,1,1,0.0,True,True,0.7,0.7,1.0,-0.30000000000000004,-0.2674754805084245,0.9810731558035978,1,False,True,0.9621463116071955,0.9956305062324138,1,False,True,0.9912610124648276,0.963652584628436,1,False,True,024
308,"{'mean': 0.3, 'sd': 0.37}",0.7,2,0.6162080764770508,1,"(1, 2)",309,1,True,0.0,0,1,1,0.0,True,True,0.7,0.7,1.0,0.0,-0.4841705859969106,0.9808122775946015,1,False,True,0.9616245551892031,0.9955862314089056,1,False,True,0.9911724628178111,0.963652584628436,1,False,True,024
309,"{'mean': 0.3, 'sd': 0.37}",0.7,2,0.5401489734649658,1,"(1, 2)",310,1,True,0.0,0,1,1,0.0,True,True,0.7,0.7,1.0,0.0,-0.6159103006838467,0.9808050849890104,1,False,True,0.9616101699780208,0.9955845845577396,1,False,True,0.9911691691154791,0.963652584628436,1,False,True,024
310,"{'mean': 0.3, 'sd': 0.37}",0.3,2,0.55607008934021,1,"(1, 2)",311,1,True,0.0,0,1,1,0.0,True,True,0.3,0.3,1.0,-0.39999999999999997,-0.5868609327120379,0.8904602660985812,1,False,True,0.7809205321971624,0.9728788986867816,1,False,True,0.9457577973735631,0.8083525901114329,1,False,True,024
311,"{'mean': 0.3, 'sd': 0.37}",0.3,3,0.9267840385437012,1,"(0, 3)",312,1,False,0.0,0,1,1,0.0,True,True,0.3,0.3,1.0,0.0,-0.0760347086873443,0.8771444814152075,1,False,True,0.754288962830415,0.9677322385120308,1,False,True,0.9354644770240617,0.8083525901114329,1,False,True,024
312,"{'mean': 0.3, 'sd': 0.37}",0.3,2,0.6209728717803955,1,"(0, 2)",313,1,False,0.0,0,1,1,0.0,True,True,0.3,0.3,1.0,0.0,-0.4764678827365267,0.8751102110948714,1,False,True,0.7502204221897428,0.9665437806532278,1,False,True,0.9330875613064555,0.8083525901114329,1,False,True,024
313,"{'mean': 0.3, 'sd': 0.37}",0.7,2,0.5173518657684326,1,"(0, 2)",314,1,True,0.0,0,1,1,0.0,True,True,0.7,0.7,1.0,0.39999999999999997,-0.6590320445427204,0.9777373127537167,1,False,True,0.9554746255074333,0.9944768379033027,1,False,True,0.9889536758066053,0.963652584628436,1,False,True,024
314,"{'mean': 0.3, 'sd': 0.37}",0.5,3,0.5661129951477051,1,"(0, 3)",315,1,False,0.0,0,1,1,0.0,True,True,0.5,0.5,1.0,-0.19999999999999996,-0.5689615826338316,0.9532584499181443,1,False,True,0.9065168998362887,0.9889575013196713,1,False,True,0.9779150026393426,0.9140117289686287,1,False,True,024
315,"{'mean': 0.3, 'sd': 0.37}",0.1,2,0.8553881645202637,1,"(0, 2)",316,1,False,0.0,0,1,1,0.0,True,True,0.1,0.1,1.0,-0.4,-0.1561999194783352,0.754127499138328,1,False,True,0.508254998276656,0.9302453364017194,1,False,True,0.8604906728034387,0.6235710566026291,1,False,True,024
316,"{'mean': 0.3, 'sd': 0.37}",0.3,2,0.8399608135223389,1,"(0, 3)",317,1,True,0.0,0,0,1,0.0,False,False,0.3,0.3,1.0,0.19999999999999998,-0.17440003880159358,0.8553731432051053,1,False,True,0.7107462864102105,0.9576325002510094,1,False,True,0.9152650005020189,0.8083525901114329,1,False,True,024
317,"{'mean': 0.3, 'sd': 0.37}",0.3,3,1.3481950759887695,1,"(1, 3)",318,1,False,0.0,0,1,1,0.0,True,True,0.3,0.3,1.0,0.0,0.2987667171450916,0.8717427406032308,1,False,True,0.7434854812064615,0.9641874660077716,1,False,True,0.9283749320155432,0.8083525901114329,1,False,True,024
318,"{'mean': 0.3, 'sd': 0.37}",-0.1,1,1.0889959335327148,1,"(1, 2)",319,1,False,0.0,1,0,0,1.0,False,True,-0.1,0.1,-1.0,-0.4,0.0852561098141131,0.5149474713848645,1,False,False,0.029894942769729038,0.8113480400591752,1,False,False,0.6226960801183503,0.39169559866232884,0,True,True,024
319,"{'mean': 0.3, 'sd': 0.37}",0.3,3,1.0386359691619873,1,"(1, 3)",320,1,False,0.0,0,1,1,1.0,True,True,0.3,0.3,1.0,0.4,0.03790828418155092,0.8113854316242164,1,False,True,0.6227708632484328,0.926043015459126,1,False,True,0.8520860309182521,0.8083525901114329,1,True,True,024
320,"{'mean': 0.3, 'sd': 0.37}",0.3,2,0.6680231094360352,1,"(1, 2)",321,1,False,0.0,0,1,1,0.0,True,True,0.3,0.3,1.0,0.0,-0.4034325110797588,0.8647775940757614,1,False,True,0.7295551881515228,0.9566046917772166,1,False,True,0.9132093835544333,0.8083525901114329,1,False,True,024
321,"{'mean': -0.3, 'sd': 0.37}",-0.7,1,1.0223519802093506,0,"(1, 3)",322,0,False,1.0,1,0,0,1.0,True,True,-0.7,0.7,-1.0,-1.0,0.022105835824256723,0.05485666765782535,0,True,True,0.8902866646843492,0.18389371837024887,0,True,True,0.6322125632595023,0.0343281253064721,0,True,True,024
322,"{'mean': -0.3, 'sd': 0.37}",0.1,2,1.1027259826660156,0,"(0, 2)",323,0,False,0.0,0,1,1,1.0,False,True,0.1,0.1,1.0,0.7999999999999999,0.09778528027447785,0.4751300648960618,0,False,False,0.0497398702078764,0.3535263833170997,0,False,False,0.29294723336580064,0.6235710566026291,1,True,True,024
323,"{'mean': -0.3, 'sd': 0.37}",-0.5,0,0.7490689754486084,0,"(0, 3)",324,0,False,0.0,1,0,0,1.0,True,True,-0.5,0.5,-1.0,-0.6,-0.2889242096533995,0.08364976212162677,0,False,True,0.8327004757567464,0.05538457223262722,0,False,True,0.8892308555347456,0.08619644561471856,0,True,True,024
324,"{'mean': -0.3, 'sd': 0.37}",-0.5,1,1.117722988128662,0,"(1, 2)",325,0,False,0.0,1,0,0,0.0,True,True,-0.5,0.5,-1.0,0.0,0.11129356954932579,0.05097900484746824,0,False,True,0.8980419903050635,0.01584706254808109,0,False,True,0.9683058749038378,0.08619644561471856,0,False,True,024
325,"{'mean': -0.3, 'sd': 0.37}",-1.0,0,1.1070818901062012,0,"(0, 2)",326,0,False,0.0,1,0,0,0.0,True,True,-1.0,1.0,-1.0,-0.5,0.10172762579284882,0.00436439885828526,0,False,True,0.9912712022834295,0.0010401224296112351,0,False,True,0.9979197551407776,0.008002150533589058,0,False,True,024
326,"{'mean': -0.3, 'sd': 0.37}",-0.1,0,1.1580519676208496,0,"(0, 3)",327,0,True,0.0,1,0,0,0.0,True,True,-0.1,0.1,-1.0,0.9,0.14673925519122474,0.24636430428096412,0,False,True,0.5072713914380718,0.06851767680483277,0,False,True,0.8629646463903344,0.39169559866232884,0,False,True,024
327,"{'mean': 0.3, 'sd': 0.37}",0.1,2,1.080820083618164,1,"(0, 2)",328,1,False,1.0,0,1,1,1.0,True,True,0.1,0.1,1.0,0.2,0.07772008966937359,0.5417427121224415,1,True,True,0.08348542424488303,0.23478937046231688,0,False,False,0.5304212590753663,0.6235710566026291,1,True,True,024
328,"{'mean': 0.3, 'sd': 0.37}",0.7,3,0.7648751735687256,1,"(0, 3)",329,1,False,0.0,0,1,1,0.0,True,True,0.7,0.7,1.0,0.6,-0.26804263027515607,0.9655312343587188,1,False,True,0.9310624687174376,0.9149826806078176,1,True,True,0.8299653612156352,0.963652584628436,1,False,True,024
329,"{'mean': 0.3, 'sd': 0.37}",0.5,3,1.1445040702819824,1,"(1, 3)",330,1,True,0.0,0,1,1,0.0,True,True,0.5,0.5,1.0,-0.19999999999999996,0.13497141678859242,0.9524587889757571,1,False,True,0.9049175779515142,0.9811714303552953,1,False,True,0.9623428607105906,0.9140117289686287,1,False,True,024
330,"{'mean': -0.3, 'sd': 0.37}",0.3,2,0.889646053314209,0,"(1, 2)",331,0,False,1.0,0,1,1,0.0,False,True,0.3,0.3,1.0,-0.2,-0.11693158826213076,0.8863712494301862,1,False,True,0.7727424988603724,0.9696299669259338,1,False,True,0.9392599338518677,0.8083525901114329,1,False,True,024
331,"{'mean': -0.3, 'sd': 0.37}",0.1,2,1.0035779476165771,0,"(1, 2)",332,0,True,0.0,0,1,1,0.0,False,True,0.1,0.1,1.0,-0.19999999999999998,0.0035715619890978926,0.7360016504031778,1,False,True,0.47200330080635555,0.9200148914748572,1,False,True,0.8400297829497143,0.6235710566026291,1,False,True,024
332,"{'mean': -0.3, 'sd': 0.37}",-0.9,1,0.9806661605834961,0,"(1, 3)",333,0,False,0.0,1,0,0,1.0,True,True,-0.9,0.9,-1.0,-1.0,-0.019523182549334165,0.017818627617937555,0,True,True,0.9643627447641249,0.06270552756401838,0,True,True,0.8745889448719633,0.013085899476143139,0,True,True,024
333,"{'mean': -0.3, 'sd': 0.37}",-0.3,1,0.7639927864074707,0,"(1, 3)",334,0,True,0.0,1,0,0,0.0,True,True,-0.3,0.3,-1.0,0.6000000000000001,-0.2691969317352297,0.1136934663464419,0,False,True,0.7726130673071162,0.042404394823854705,0,False,True,0.9151912103522906,0.19854223211145114,0,False,True,024
334,"{'mean': -0.3, 'sd': 0.37}",0.1,1,0.7668230533599854,0,"(1, 3)",335,0,True,0.0,1,0,0,0.0,True,True,0.1,0.1,1.0,0.4,-0.2654992038911772,0.4960672104715468,0,False,True,0.007865579056906435,0.20608914756293034,0,False,True,0.5878217048741393,0.6235710566026291,1,True,False,024
335,"{'mean': -0.3, 'sd': 0.37}",-0.1,0,0.7338199615478516,0,"(0, 3)",336,0,False,0.0,1,0,0,0.0,True,True,-0.1,0.1,-1.0,-0.2,-0.30949156444941317,0.390461543743099,0,False,True,0.219076912513802,0.18909808840123812,0,False,True,0.6218038231975238,0.39169559866232884,0,True,True,024
336,"{'mean': -0.3, 'sd': 0.37}",-0.7,0,0.7805080413818359,0,"(0, 3)",337,0,True,0.0,1,0,0,0.0,True,True,-0.7,0.7,-1.0,-0.6,-0.24781023622022927,0.029844772491530572,0,False,True,0.9403104550169389,0.011855108549127316,0,False,True,0.9762897829017454,0.0343281253064721,0,False,True,024
337,"{'mean': -0.3, 'sd': 0.37}",-0.1,1,0.7552738189697266,0,"(1, 3)",338,0,False,0.0,1,0,0,0.0,True,True,-0.1,0.1,-1.0,0.6,-0.2806749213513904,0.25336593237421223,0,False,True,0.49326813525157553,0.07451265509095319,0,False,True,0.8509746898180937,0.39169559866232884,0,False,True,024
338,"{'mean': 0.3, 'sd': 0.37}",0.5,2,0.7221310138702393,1,"(0, 2)",339,1,False,1.0,0,1,1,1.0,True,True,0.5,0.5,1.0,0.6,-0.32554869689705146,0.884499072891153,1,True,True,0.7689981457823061,0.6711110416863375,1,True,True,0.342222083372675,0.9140117289686287,1,True,True,024
339,"{'mean': 0.3, 'sd': 0.37}",0.3,3,1.265139102935791,1,"(0, 3)",340,1,False,0.0,0,1,1,0.0,True,True,0.3,0.3,1.0,-0.2,0.2351820789291103,0.8762361355940542,1,False,True,0.7524722711881084,0.8806626066744929,1,False,True,0.7613252133489858,0.8083525901114329,1,False,True,024
340,"{'mean': 0.3, 'sd': 0.37}",0.1,2,0.7820498943328857,1,"(1, 2)",341,1,False,0.0,0,1,1,0.0,True,True,0.1,0.1,1.0,-0.19999999999999998,-0.24583673697744357,0.7332226662458831,1,False,True,0.4664453324917661,0.8711763919702104,1,False,True,0.7423527839404207,0.6235710566026291,1,False,True,024
341,"{'mean': 0.3, 'sd': 0.37}",-0.1,1,0.9087347984313965,1,"(1, 3)",342,1,False,0.0,1,0,0,1.0,False,True,-0.1,0.1,-1.0,-0.2,-0.09570197827278575,0.4674397209290096,0,True,True,0.06512055814198081,0.7149070073608513,1,False,False,0.42981401472170266,0.39169559866232884,0,True,True,024
342,"{'mean': 0.3, 'sd': 0.37}",0.1,3,1.2526631355285645,1,"(0, 3)",343,1,False,0.0,0,1,1,1.0,True,True,0.1,0.1,1.0,0.2,0.2252717934223556,0.6134465586204029,1,True,True,0.22689311724080574,0.771770902290727,1,False,True,0.543541804581454,0.6235710566026291,1,True,True,024
343,"{'mean': 0.3, 'sd': 0.37}",0.3,2,0.9223740100860596,1,"(0, 2)",344,1,False,0.0,0,1,1,0.0,True,True,0.3,0.3,1.0,0.19999999999999998,-0.08080448682704759,0.83049027039892,1,False,True,0.66098054079784,0.9142356432867814,1,False,True,0.8284712865735628,0.8083525901114329,1,False,True,024
344,"{'mean': -0.3, 'sd': 0.37}",-0.3,3,0.9890780448913574,0,"(1, 3)",346,0,False,1.0,0,1,1,0.0,False,True,-0.3,0.3,-1.0,-0.6,-0.010982037539259368,0.2783085170506373,0,True,False,0.4433829658987254,0.5473788602537933,1,False,True,0.09475772050758668,0.19854223211145114,0,True,False,024
345,"{'mean': -0.3, 'sd': 0.37}",-0.5,1,0.8315708637237549,0,"(1, 3)",347,0,False,0.0,1,0,0,1.0,True,True,-0.5,0.5,-1.0,-0.2,-0.1844387600192896,0.06566874674459296,0,False,True,0.8686625065108141,0.09888021539141895,0,True,True,0.8022395692171621,0.08619644561471856,0,False,True,024
346,"{'mean': 0.3, 'sd': 0.37}",-0.3,0,1.2415969371795654,1,"(0, 2)",348,1,False,1.0,1,0,0,0.0,False,True,-0.3,0.3,-1.0,0.2,0.21639840361030604,0.12087464153884216,0,False,True,0.7582507169223157,0.05172819750150205,0,False,True,0.8965436049969959,0.19854223211145114,0,False,True,024
347,"{'mean': 0.3, 'sd': 0.37}",0.1,2,0.97747802734375,1,"(1, 2)",349,1,False,0.0,0,1,1,1.0,True,True,0.1,0.1,1.0,0.4,-0.022779465795975812,0.4985933634992368,0,False,False,0.0028132730015264507,0.2164188883844619,0,False,False,0.5671622232310762,0.6235710566026291,1,True,True,024
348,"{'mean': 0.3, 'sd': 0.37}",0.3,3,0.9379758834838867,1,"(1, 3)",350,1,False,0.0,0,1,1,0.0,True,True,0.3,0.3,1.0,0.19999999999999998,-0.06403104087798413,0.8080652860507986,1,True,True,0.6161305721015973,0.614295303018209,1,True,True,0.228590606036418,0.8083525901114329,1,False,True,024
