,c_dis,context,response,rt,state,stim,trial_count,ts,rep_resp,switch,con_1dim,con_2dim,subj_ts,subj_switch,correct,stim_conform,true_context,abs_context,context_sign,context_diff,opt_observer_posterior,opt_observer_choices,opt_observer_switch,conform_opt_observer,opt_certainty,midline_observer_choices,midline_observer_switch,conform_midline_observer,id,log_rt
0,"{'mean': -0.3, 'sd': 0.37}",-0.1,3,1.0594608783721924,0,"(1, 2)",1,1,False,,0,0,1,,False,False,0.1,0.1,-1.0,,0.3763414969170681,0,,False,0.24731700616586383,0,,False,023,0.05776017343117104
1,"{'mean': -0.3, 'sd': 0.37}",0.7,2,1.3030741214752197,0,"(0, 2)",2,1,False,0.0,0,1,1,0.0,True,True,-0.7,0.7,1.0,0.7999999999999999,0.9598828100162108,1,True,True,0.9197656200324216,1,1.0,True,023,0.26472618177055957
2,"{'mean': -0.3, 'sd': 0.37}",-0.1,2,0.9266571998596191,0,"(1, 2)",3,1,True,0.0,0,1,1,0.0,True,True,0.1,0.1,-1.0,-0.7999999999999999,0.8006238405330522,1,False,True,0.6012476810661045,0,1.0,False,023,-0.07617157699657573
3,"{'mean': -0.3, 'sd': 0.37}",0.3,2,0.7215261459350586,0,"(1, 2)",4,1,True,0.0,0,1,1,0.0,True,True,-0.3,0.3,1.0,0.4,0.9262369549771157,1,False,True,0.8524739099542313,1,1.0,True,023,-0.32638666312257336
4,"{'mean': -0.3, 'sd': 0.37}",0.9,2,0.683711051940918,0,"(1, 2)",5,1,True,0.0,0,1,1,0.0,True,True,-0.9,0.9,1.0,0.6000000000000001,0.998253515127821,1,False,True,0.996507030255642,1,0.0,True,023,-0.3802198892948121
5,"{'mean': -0.3, 'sd': 0.37}",0.7,1,1.4304511547088623,0,"(1, 2)",6,1,False,0.0,1,0,0,1.0,False,True,-0.7,0.7,1.0,-0.20000000000000007,0.9969110174820649,1,False,False,0.9938220349641298,1,0.0,False,023,0.35798988731782677
6,"{'mean': -0.3, 'sd': 0.37}",-0.1,1,0.7544550895690918,0,"(1, 3)",7,1,True,0.0,1,0,0,0.0,False,True,0.1,0.1,-1.0,-0.7999999999999999,0.8431881425639719,1,False,False,0.6863762851279438,0,1.0,True,023,-0.281759525979764
7,"{'mean': -0.3, 'sd': 0.37}",0.9,1,0.5798549652099609,0,"(1, 3)",8,1,True,0.0,1,0,0,0.0,False,True,-0.9,0.9,1.0,1.0,0.9973034841342221,1,False,False,0.9946069682684442,1,1.0,False,023,-0.5449772666947086
8,"{'mean': -0.3, 'sd': 0.37}",0.3,0,0.8335411548614502,0,"(0, 3)",9,1,False,0.0,1,0,0,0.0,False,True,-0.3,0.3,1.0,-0.6000000000000001,0.9750955422553204,1,False,False,0.9501910845106407,1,0.0,False,023,-0.18207220205169236
9,"{'mean': -0.3, 'sd': 0.37}",0.1,0,0.5062699317932129,0,"(0, 2)",10,1,True,0.0,1,0,0,0.0,False,True,-0.1,0.1,1.0,-0.19999999999999998,0.922613946598455,1,False,False,0.8452278931969099,1,0.0,False,023,-0.6806852898930396
10,"{'mean': -0.3, 'sd': 0.37}",0.3,1,0.552725076675415,0,"(1, 3)",11,1,False,0.0,1,0,0,0.0,False,True,-0.3,0.3,1.0,0.19999999999999998,0.9581424912901056,1,False,False,0.9162849825802113,1,0.0,False,023,-0.592894549948325
11,"{'mean': -0.3, 'sd': 0.37}",0.1,1,0.6760289669036865,0,"(1, 3)",12,1,True,0.0,1,0,0,0.0,False,True,-0.1,0.1,1.0,-0.19999999999999998,0.913251968446987,1,False,False,0.826503936893974,1,0.0,False,023,-0.3915193534079868
12,"{'mean': -0.3, 'sd': 0.37}",0.7,1,0.6018528938293457,0,"(1, 3)",13,1,True,0.0,1,0,0,0.0,False,True,-0.7,0.7,1.0,0.6,0.9943858344473324,1,False,False,0.9887716688946648,1,0.0,False,023,-0.5077422259443992
13,"{'mean': 0.3, 'sd': 0.37}",-0.1,0,0.8528611660003662,1,"(0, 3)",14,0,False,1.0,1,0,0,0.0,True,True,0.1,0.1,-1.0,-0.7999999999999999,0.840235906856993,1,False,False,0.680471813713986,0,1.0,True,023,-0.15915850440856807
14,"{'mean': 0.3, 'sd': 0.37}",-0.5,0,0.6532220840454102,1,"(0, 2)",15,0,True,0.0,1,0,0,0.0,True,True,0.5,0.5,-1.0,-0.4,0.24211157967984287,0,True,True,0.5157768406403143,0,0.0,True,023,-0.42583810944721906
15,"{'mean': 0.3, 'sd': 0.37}",-0.5,1,0.6686801910400391,1,"(1, 3)",16,0,False,0.0,1,0,0,0.0,True,True,0.5,0.5,-1.0,0.0,0.0373472654568594,0,False,True,0.9253054690862812,0,0.0,True,023,-0.4024493734504949
16,"{'mean': 0.3, 'sd': 0.37}",-0.5,0,0.7032101154327393,1,"(0, 2)",17,0,False,0.0,1,0,0,0.0,True,True,0.5,0.5,-1.0,0.0,0.013613253582253482,0,False,True,0.9727734928354931,0,0.0,True,023,-0.3520995478557867
17,"{'mean': 0.3, 'sd': 0.37}",-0.7,0,0.5306148529052734,1,"(0, 3)",18,0,True,0.0,1,0,0,0.0,True,True,0.7,0.7,-1.0,-0.19999999999999996,0.0047156978763354535,0,False,True,0.9905686042473291,0,0.0,True,023,-0.6337188450105159
18,"{'mean': 0.3, 'sd': 0.37}",-0.5,1,0.7534220218658447,1,"(1, 3)",19,0,False,0.0,1,0,0,0.0,True,True,0.5,0.5,-1.0,0.19999999999999996,0.010551296279755627,0,False,True,0.9788974074404887,0,0.0,True,023,-0.283129754172827
19,"{'mean': 0.3, 'sd': 0.37}",-0.5,0,0.9094560146331787,1,"(0, 3)",20,0,False,0.0,1,0,0,0.0,True,True,0.5,0.5,-1.0,0.0,0.01108704845613821,0,False,True,0.9778259030877235,0,0.0,True,023,-0.09490864433398631
20,"{'mean': 0.3, 'sd': 0.37}",-0.7,0,0.6622409820556641,1,"(0, 3)",21,0,True,0.0,1,0,0,0.0,True,True,0.7,0.7,-1.0,-0.19999999999999996,0.004618136518726969,0,False,True,0.9907637269625461,0,0.0,True,023,-0.412125768052662
21,"{'mean': 0.3, 'sd': 0.37}",-0.9,1,0.7883861064910889,1,"(1, 2)",22,0,False,0.0,1,0,0,0.0,True,True,0.9,0.9,-1.0,-0.20000000000000007,0.0018594484067754919,0,False,True,0.996281103186449,0,0.0,True,023,-0.2377673262699483
22,"{'mean': 0.3, 'sd': 0.37}",0.1,0,0.8666081428527832,1,"(0, 2)",23,0,False,0.0,1,0,0,0.0,True,True,-0.1,0.1,1.0,1.0,0.15094216271828653,0,False,True,0.6981156745634269,1,1.0,False,023,-0.14316837339831393
23,"{'mean': 0.3, 'sd': 0.37}",-0.3,1,0.6918258666992188,1,"(1, 3)",24,0,False,0.0,1,0,0,0.0,True,True,0.3,0.3,-1.0,-0.4,0.061854841320871545,0,False,True,0.8762903173582569,0,1.0,True,023,-0.36842099274844237
24,"{'mean': 0.3, 'sd': 0.37}",-0.5,0,0.5224609375,1,"(0, 2)",25,0,False,0.0,1,0,0,0.0,True,True,0.5,0.5,-1.0,-0.2,0.016023381343511237,0,False,True,0.9679532373129776,0,0.0,True,023,-0.6492050587034466
25,"{'mean': 0.3, 'sd': 0.37}",-0.1,0,0.8190240859985352,1,"(0, 3)",26,0,True,0.0,1,0,0,0.0,True,True,0.1,0.1,-1.0,0.4,0.07025752712389526,0,False,True,0.8594849457522095,0,0.0,True,023,-0.1996417865278843
26,"{'mean': 0.3, 'sd': 0.37}",-0.5,0,0.5726850032806396,1,"(0, 2)",27,0,True,0.0,1,0,0,0.0,True,True,0.5,0.5,-1.0,-0.4,0.01687274732258034,0,False,True,0.9662545053548394,0,0.0,True,023,-0.5574194459202262
27,"{'mean': 0.3, 'sd': 0.37}",0.1,0,0.5938670635223389,1,"(0, 2)",28,0,True,0.0,1,0,0,0.0,True,True,-0.1,0.1,1.0,0.6,0.16800905876640987,0,False,True,0.6639818824671803,1,1.0,False,023,-0.5210997834501183
28,"{'mean': 0.3, 'sd': 0.37}",-1.0,1,0.8216822147369385,1,"(1, 3)",29,0,False,0.0,1,0,0,0.0,True,True,1.0,1.0,-1.0,-1.1,0.003273407727037606,0,False,True,0.9934531845459248,0,1.0,True,023,-0.19640155875174992
29,"{'mean': 0.3, 'sd': 0.37}",-0.3,1,0.780310869216919,1,"(1, 2)",30,0,True,0.0,1,0,0,0.0,True,True,0.3,0.3,-1.0,0.7,0.02565490784776223,0,False,True,0.9486901843044755,0,0.0,True,023,-0.2480628884204646
30,"{'mean': 0.3, 'sd': 0.37}",-0.1,0,0.8010170459747314,1,"(0, 3)",31,0,False,0.0,1,0,0,0.0,True,True,0.1,0.1,-1.0,0.19999999999999998,0.07538298856980506,0,False,True,0.8492340228603898,0,0.0,True,023,-0.22187305127288212
31,"{'mean': 0.3, 'sd': 0.37}",-0.1,1,0.720919132232666,1,"(1, 3)",32,0,False,0.0,1,0,0,0.0,True,True,0.1,0.1,-1.0,0.0,0.10237998818408042,0,False,True,0.7952400236318391,0,0.0,True,023,-0.3272283085526115
32,"{'mean': 0.3, 'sd': 0.37}",-0.1,0,0.5888550281524658,1,"(0, 3)",33,0,False,0.0,1,0,0,0.0,True,True,0.1,0.1,-1.0,0.0,0.117422251522606,0,False,True,0.765155496954788,0,0.0,True,023,-0.5295752577950323
33,"{'mean': 0.3, 'sd': 0.37}",-0.1,1,0.7223091125488281,1,"(1, 2)",34,0,False,0.0,1,0,0,0.0,True,True,0.1,0.1,-1.0,0.0,0.12592504944536362,0,False,True,0.7481499011092727,0,0.0,True,023,-0.32530209798826465
34,"{'mean': 0.3, 'sd': 0.37}",-0.5,0,0.5299961566925049,1,"(1, 3)",35,0,False,0.0,0,0,0,0.0,False,False,0.5,0.5,-1.0,-0.4,0.02282015083310391,0,False,True,0.9543596983337922,0,0.0,True,023,-0.6348855239858376
35,"{'mean': 0.3, 'sd': 0.37}",-0.3,1,0.5332620143890381,1,"(1, 3)",36,0,False,0.0,1,0,0,0.0,True,True,0.3,0.3,-1.0,0.2,0.030031997978025377,0,False,True,0.9399360040439493,0,0.0,True,023,-0.6287423913846479
36,"{'mean': 0.3, 'sd': 0.37}",0.3,0,0.6241161823272705,1,"(0, 2)",37,0,False,0.0,1,0,0,0.0,True,True,-0.3,0.3,1.0,0.6,0.37946356901195555,0,False,True,0.2410728619760889,1,1.0,False,023,-0.4714187383168107
37,"{'mean': 0.3, 'sd': 0.37}",-0.7,0,0.6931800842285156,1,"(0, 3)",38,0,True,0.0,1,0,0,0.0,True,True,0.7,0.7,-1.0,-1.0,0.02540773178677808,0,False,True,0.9491845364264438,0,1.0,True,023,-0.36646545174885375
38,"{'mean': 0.3, 'sd': 0.37}",-1.0,1,0.675482988357544,1,"(1, 3)",39,0,False,0.0,1,0,0,0.0,True,True,1.0,1.0,-1.0,-0.30000000000000004,0.0014528303669593841,0,False,True,0.9970943392660813,0,0.0,True,023,-0.3923273056776176
39,"{'mean': 0.3, 'sd': 0.37}",-0.5,1,0.863408088684082,1,"(1, 2)",40,0,True,0.0,1,0,0,0.0,True,True,0.5,0.5,-1.0,0.5,0.010253921105282445,0,False,True,0.9794921577894351,0,0.0,True,023,-0.14686782749593108
40,"{'mean': -0.3, 'sd': 0.37}",0.3,1,0.925774097442627,0,"(1, 3)",41,1,True,1.0,1,0,0,0.0,False,True,-0.3,0.3,1.0,0.8,0.34330425351002664,0,False,True,0.31339149297994673,1,1.0,False,023,-0.07712502934342232
41,"{'mean': -0.3, 'sd': 0.37}",0.1,1,1.4241909980773926,0,"(1, 2)",42,1,True,0.0,1,0,0,0.0,False,True,-0.1,0.1,1.0,-0.19999999999999998,0.4891244035200583,0,False,True,0.02175119295988337,1,0.0,False,023,0.3536039318587839
42,"{'mean': -0.3, 'sd': 0.37}",0.3,0,0.6990368366241455,0,"(0, 2)",43,1,False,0.0,1,0,0,0.0,False,True,-0.3,0.3,1.0,0.19999999999999998,0.8087358651361525,1,True,False,0.617471730272305,1,0.0,False,023,-0.35805183910375976
43,"{'mean': -0.3, 'sd': 0.37}",-0.3,0,0.7765538692474365,0,"(0, 3)",44,1,True,0.0,1,0,0,0.0,False,True,0.3,0.3,-1.0,-0.6,0.41008117277991657,0,True,True,0.17983765444016686,0,1.0,True,023,-0.25288926436641695
44,"{'mean': -0.3, 'sd': 0.37}",0.9,0,0.70607590675354,0,"(0, 3)",45,1,True,0.0,1,0,0,0.0,False,True,-0.9,0.9,1.0,1.2,0.987651282850858,1,True,False,0.975302565701716,1,1.0,False,023,-0.3480325306203218
45,"{'mean': -0.3, 'sd': 0.37}",0.5,1,0.6332130432128906,0,"(1, 2)",46,1,False,0.0,1,0,0,0.0,False,True,-0.5,0.5,1.0,-0.4,0.9902447430204925,1,False,False,0.980489486040985,1,0.0,False,023,-0.45694835230415765
46,"{'mean': -0.3, 'sd': 0.37}",0.1,1,0.7255048751831055,0,"(1, 3)",47,1,True,0.0,1,0,0,0.0,False,True,-0.1,0.1,1.0,-0.4,0.9308954029408911,1,False,False,0.8617908058817823,1,0.0,False,023,-0.32088748692429625
47,"{'mean': -0.3, 'sd': 0.37}",0.3,1,0.7262630462646484,0,"(1, 2)",48,1,True,0.0,1,0,0,0.0,False,True,-0.3,0.3,1.0,0.19999999999999998,0.9601100061329044,1,False,False,0.9202200122658089,1,0.0,False,023,-0.3198430071017729
48,"{'mean': -0.3, 'sd': 0.37}",-0.3,1,0.633699893951416,0,"(1, 3)",49,1,True,0.0,1,0,0,0.0,False,True,0.3,0.3,-1.0,-0.6,0.6095684466684397,1,False,False,0.21913689333687936,0,1.0,True,023,-0.45617979000092657
49,"{'mean': -0.3, 'sd': 0.37}",0.7,3,1.5010488033294678,0,"(1, 3)",50,1,False,0.0,0,1,1,1.0,True,True,-0.7,0.7,1.0,1.0,0.980797689763238,1,False,True,0.961595379526476,1,1.0,True,023,0.40616406599982074
50,"{'mean': -0.3, 'sd': 0.37}",0.7,2,0.6111769676208496,0,"(0, 2)",51,1,False,0.0,0,1,1,0.0,True,True,-0.7,0.7,1.0,0.0,0.9964231976521402,1,False,True,0.9928463953042803,1,0.0,True,023,-0.49236872570629203
51,"{'mean': -0.3, 'sd': 0.37}",0.1,2,0.6712429523468018,0,"(0, 2)",52,1,True,0.0,0,1,1,0.0,True,True,-0.1,0.1,1.0,-0.6,0.934250325273191,1,False,True,0.8685006505463819,1,0.0,True,023,-0.39862413251131024
52,"{'mean': -0.3, 'sd': 0.37}",0.3,3,1.3698129653930664,0,"(0, 3)",53,1,False,0.0,0,1,1,0.0,True,True,-0.3,0.3,1.0,0.19999999999999998,0.9609005638133569,1,False,True,0.9218011276267137,1,0.0,True,023,0.3146742089092097
53,"{'mean': -0.3, 'sd': 0.37}",0.3,2,0.7111890316009521,0,"(0, 2)",54,1,False,0.0,0,1,1,0.0,True,True,-0.3,0.3,1.0,0.0,0.9670506792481008,1,False,True,0.9341013584962017,1,0.0,True,023,-0.3408170172847315
54,"{'mean': -0.3, 'sd': 0.37}",-0.1,2,0.774954080581665,0,"(0, 2)",55,1,True,0.0,0,1,1,0.0,True,True,0.1,0.1,-1.0,-0.4,0.8087433696388452,1,False,True,0.6174867392776904,0,1.0,False,023,-0.25495150224655944
55,"{'mean': -0.3, 'sd': 0.37}",0.1,2,0.7536990642547607,0,"(0, 2)",56,1,True,0.0,0,1,1,0.0,True,True,-0.1,0.1,1.0,0.2,0.826176318072844,1,False,True,0.652352636145688,1,1.0,True,023,-0.28276210966889453
56,"{'mean': -0.3, 'sd': 0.37}",0.7,2,0.6865341663360596,0,"(0, 3)",57,1,True,0.0,0,0,1,0.0,False,False,-0.7,0.7,1.0,0.6,0.9913469013047905,1,False,True,0.9826938026095811,1,0.0,True,023,-0.37609928613262894
57,"{'mean': -0.3, 'sd': 0.37}",0.5,2,0.4772529602050781,0,"(0, 3)",58,1,True,0.0,0,0,1,0.0,False,False,-0.5,0.5,1.0,-0.19999999999999996,0.9905406628145528,1,False,True,0.9810813256291055,1,0.0,True,023,-0.7397086137657035
58,"{'mean': -0.3, 'sd': 0.37}",0.1,3,0.7683889865875244,0,"(0, 3)",59,1,False,0.0,0,1,1,0.0,True,True,-0.1,0.1,1.0,-0.4,0.9310563853830569,1,False,True,0.8621127707661138,1,0.0,True,023,-0.26345918110621996
59,"{'mean': -0.3, 'sd': 0.37}",1.0,3,0.6133129596710205,0,"(0, 3)",60,1,True,0.0,0,1,1,0.0,True,True,-1.0,1.0,1.0,0.9,0.9990293084372405,1,False,True,0.9980586168744809,1,0.0,True,023,-0.48887993552662695
60,"{'mean': -0.3, 'sd': 0.37}",0.9,2,0.8426260948181152,0,"(0, 2)",61,1,False,0.0,0,1,1,0.0,True,True,-0.9,0.9,1.0,-0.09999999999999998,0.9989717141915556,1,False,True,0.9979434283831112,1,0.0,True,023,-0.17123196051477474
61,"{'mean': 0.3, 'sd': 0.37}",-0.3,2,0.803062915802002,1,"(0, 3)",62,0,True,1.0,0,0,1,0.0,False,False,0.3,0.3,-1.0,-1.2,0.6800962937072544,1,False,True,0.3601925874145089,0,1.0,False,023,-0.21932221716815908
62,"{'mean': 0.3, 'sd': 0.37}",0.1,3,1.1564750671386719,1,"(1, 2)",63,0,False,0.0,0,0,1,0.0,False,False,-0.1,0.1,1.0,0.4,0.7439380670759921,1,False,True,0.48787613415198416,1,1.0,True,023,0.14537664356259983
63,"{'mean': 0.3, 'sd': 0.37}",0.5,3,0.6356370449066162,1,"(1, 3)",64,0,True,0.0,0,1,1,0.0,False,True,-0.5,0.5,1.0,0.4,0.9657846939843701,1,False,True,0.9315693879687401,1,0.0,True,023,-0.45312756265326515
64,"{'mean': 0.3, 'sd': 0.37}",-0.9,2,0.7339739799499512,1,"(1, 2)",65,0,False,0.0,0,1,1,0.0,False,True,0.9,0.9,-1.0,-1.4,0.10209779061402838,0,True,False,0.7958044187719433,0,1.0,False,023,-0.3092817006554426
65,"{'mean': 0.3, 'sd': 0.37}",-0.7,3,0.7767729759216309,1,"(0, 3)",66,0,False,0.0,0,1,1,0.0,False,True,0.7,0.7,-1.0,0.20000000000000007,0.00842349296185528,0,False,False,0.9831530140762894,0,0.0,False,023,-0.2526071515885055
66,"{'mean': 0.3, 'sd': 0.37}",-0.1,2,0.3226289749145508,1,"(0, 2)",67,0,False,0.0,0,1,1,0.0,False,True,0.1,0.1,-1.0,0.6,0.06623637346521204,0,False,False,0.8675272530695759,0,0.0,False,023,-1.1312523004782233
67,"{'mean': 0.3, 'sd': 0.37}",0.1,3,0.8509130477905273,1,"(0, 2)",68,0,False,0.0,0,0,1,0.0,False,False,-0.1,0.1,1.0,0.2,0.22252548516115708,0,False,False,0.5549490296776858,1,1.0,True,023,-0.16144533213850662
68,"{'mean': 0.3, 'sd': 0.37}",-0.5,2,0.9934768676757812,1,"(1, 2)",69,0,False,0.0,0,1,1,0.0,False,True,0.5,0.5,-1.0,-0.6,0.03466839780674087,0,False,False,0.9306632043865183,0,1.0,False,023,-0.006544500929395468
69,"{'mean': 0.3, 'sd': 0.37}",-0.1,2,1.1156871318817139,1,"(1, 2)",70,0,True,0.0,0,1,1,0.0,False,True,0.1,0.1,-1.0,0.4,0.08020954450887517,0,False,False,0.8395809109822496,0,0.0,False,023,0.10947047687809314
70,"{'mean': 0.3, 'sd': 0.37}",0.3,2,0.6848869323730469,1,"(1, 2)",71,0,True,0.0,0,1,1,0.0,False,True,-0.3,0.3,1.0,0.4,0.4599667258549119,0,False,False,0.08006654829017623,1,1.0,True,023,-0.3785015165733094
71,"{'mean': 0.3, 'sd': 0.37}",-0.9,0,1.3968820571899414,1,"(0, 3)",72,0,False,0.0,1,0,0,1.0,True,True,0.9,0.9,-1.0,-1.2,0.014194280457356984,0,False,True,0.971611439085286,0,1.0,True,023,0.3342426509340621
72,"{'mean': 0.3, 'sd': 0.37}",0.1,1,0.7449369430541992,1,"(1, 2)",73,0,False,0.0,1,0,0,0.0,True,True,-0.1,0.1,1.0,1.0,0.1649812375437842,0,False,True,0.6700375249124316,1,1.0,False,023,-0.29445570438046675
73,"{'mean': 0.3, 'sd': 0.37}",0.1,1,0.7302989959716797,1,"(1, 2)",74,0,True,0.0,1,0,0,0.0,True,True,-0.1,0.1,1.0,0.0,0.3247264299280202,0,False,True,0.3505471401439596,1,0.0,False,023,-0.3143012451732857
74,"{'mean': 0.3, 'sd': 0.37}",-0.1,1,0.9629149436950684,1,"(0, 2)",75,0,True,0.0,0,0,0,0.0,False,False,0.1,0.1,-1.0,-0.2,0.2527828732086057,0,False,True,0.4944342535827886,0,1.0,True,023,-0.037790195389019086
75,"{'mean': 0.3, 'sd': 0.37}",-0.3,0,0.6021170616149902,1,"(0, 2)",76,0,False,0.0,1,0,0,0.0,True,True,0.3,0.3,-1.0,-0.19999999999999998,0.09180120307382159,0,False,True,0.8163975938523569,0,0.0,True,023,-0.507303398067193
76,"{'mean': 0.3, 'sd': 0.37}",-0.1,1,0.5872559547424316,1,"(1, 2)",77,0,False,0.0,1,0,0,0.0,True,True,0.1,0.1,-1.0,0.19999999999999998,0.11149485371917037,0,False,True,0.7770102925616593,0,0.0,True,023,-0.5322945154478128
77,"{'mean': -0.3, 'sd': 0.37}",0.7,0,0.6836948394775391,0,"(0, 3)",78,1,False,1.0,1,0,0,0.0,False,True,-0.7,0.7,1.0,0.7999999999999999,0.892291438722199,1,True,False,0.7845828774443979,1,1.0,False,023,-0.38024360202485286
78,"{'mean': -0.3, 'sd': 0.37}",0.1,1,0.43926286697387695,0,"(1, 3)",79,1,False,0.0,1,0,0,0.0,False,True,-0.1,0.1,1.0,-0.6,0.8759109124776134,1,False,False,0.7518218249552269,1,0.0,False,023,-0.8226572592901743
79,"{'mean': -0.3, 'sd': 0.37}",0.5,0,0.6268391609191895,0,"(0, 3)",80,1,False,0.0,1,0,0,0.0,False,True,-0.5,0.5,1.0,0.4,0.9803654246852733,1,False,False,0.9607308493705466,1,0.0,False,023,-0.46706529291651006
80,"{'mean': 0.3, 'sd': 0.37}",-0.7,1,0.5866060256958008,1,"(1, 2)",81,0,False,1.0,1,0,0,0.0,True,True,0.7,0.7,-1.0,-1.2,0.23038522719151477,0,True,True,0.5392295456169705,0,1.0,True,023,-0.5334018502518578
81,"{'mean': 0.3, 'sd': 0.37}",-0.5,0,0.41072797775268555,1,"(0, 3)",82,0,False,0.0,1,0,0,0.0,True,True,0.5,0.5,-1.0,0.19999999999999996,0.035731057222145285,0,False,True,0.9285378855557094,0,0.0,True,023,-0.8898241382246961
82,"{'mean': 0.3, 'sd': 0.37}",-0.1,1,0.47467589378356934,1,"(1, 2)",83,0,False,0.0,1,0,0,0.0,True,True,0.1,0.1,-1.0,0.4,0.08078050194339363,0,False,True,0.8384389961132127,0,0.0,True,023,-0.7451230367164854
83,"{'mean': 0.3, 'sd': 0.37}",-0.5,1,0.5979831218719482,1,"(1, 2)",84,0,True,0.0,1,0,0,0.0,True,True,0.5,0.5,-1.0,-0.4,0.01795363730614844,0,False,True,0.9640927253877031,0,0.0,True,023,-0.5141927497242191
84,"{'mean': 0.3, 'sd': 0.37}",0.3,1,1.1457669734954834,1,"(1, 3)",85,0,True,0.0,1,0,0,0.0,True,True,-0.3,0.3,1.0,0.8,0.3577153191047936,0,False,True,0.2845693617904128,1,1.0,False,023,0.1360742586071918
85,"{'mean': 0.3, 'sd': 0.37}",-0.1,0,0.6784651279449463,1,"(0, 3)",86,0,False,0.0,1,0,0,0.0,True,True,0.1,0.1,-1.0,-0.4,0.27479410633776463,0,False,True,0.45041178732447074,0,1.0,True,023,-0.38792219683502915
86,"{'mean': 0.3, 'sd': 0.37}",-0.1,1,0.7008810043334961,1,"(1, 2)",87,0,False,0.0,1,0,0,0.0,True,True,0.1,0.1,-1.0,0.0,0.22047382812530655,0,False,True,0.5590523437493868,0,0.0,True,023,-0.3554171576643544
87,"{'mean': -0.3, 'sd': 0.37}",0.3,1,0.7818100452423096,0,"(1, 2)",88,1,True,1.0,1,0,0,0.0,False,True,-0.3,0.3,1.0,0.4,0.6247702943147214,1,True,False,0.24954058862944284,1,1.0,False,023,-0.24614347684127297
88,"{'mean': -0.3, 'sd': 0.37}",0.5,3,0.903195858001709,0,"(1, 3)",90,1,False,0.0,0,1,1,1.0,True,True,-0.5,0.5,1.0,0.2,0.948761227809419,1,False,True,0.8975224556188379,1,0.0,True,023,-0.10181585207204846
89,"{'mean': -0.3, 'sd': 0.37}",0.3,3,0.5435848236083984,0,"(0, 3)",91,1,True,0.0,0,1,1,0.0,True,True,-0.3,0.3,1.0,-0.2,0.9642775001434276,1,False,True,0.9285550002868552,1,0.0,True,023,-0.6095695154017178
90,"{'mean': -0.3, 'sd': 0.37}",0.5,3,0.5617070198059082,0,"(1, 3)",92,1,True,0.0,0,1,1,0.0,True,True,-0.5,0.5,1.0,0.2,0.988330793988693,1,False,True,0.9766615879773859,1,0.0,True,023,-0.576774882092773
91,"{'mean': -0.3, 'sd': 0.37}",0.5,3,1.115574836730957,0,"(0, 3)",93,1,True,0.0,0,1,1,0.0,True,True,-0.5,0.5,1.0,0.0,0.9902992880490286,1,False,True,0.9805985760980571,1,0.0,True,023,0.10936982070017114
92,"{'mean': -0.3, 'sd': 0.37}",-0.1,2,0.6453337669372559,0,"(0, 2)",94,1,False,0.0,0,1,1,0.0,True,True,0.1,0.1,-1.0,-0.6,0.8354738387023276,1,False,True,0.6709476774046552,0,1.0,False,023,-0.43798762790704543
93,"{'mean': -0.3, 'sd': 0.37}",0.3,3,0.7072038650512695,0,"(0, 3)",95,1,False,0.0,0,1,1,0.0,True,True,-0.3,0.3,1.0,0.4,0.9359504467577483,1,False,True,0.8719008935154966,1,1.0,True,023,-0.34643630238620937
94,"{'mean': -0.3, 'sd': 0.37}",0.5,3,0.4109950065612793,0,"(0, 3)",96,1,True,0.0,0,1,1,0.0,True,True,-0.5,0.5,1.0,0.2,0.9859086067089557,1,False,True,0.9718172134179115,1,0.0,True,023,-0.8891742140456464
95,"{'mean': -0.3, 'sd': 0.37}",0.7,3,0.3787710666656494,0,"(0, 3)",97,1,True,0.0,0,1,1,0.0,True,True,-0.7,0.7,1.0,0.19999999999999996,0.996567568092184,1,False,True,0.9931351361843681,1,0.0,True,023,-0.9708233021459093
96,"{'mean': -0.3, 'sd': 0.37}",0.1,3,0.472243070602417,0,"(1, 3)",98,1,True,0.0,0,1,1,0.0,True,True,-0.1,0.1,1.0,-0.6,0.9343285634934088,1,False,True,0.8686571269868175,1,0.0,True,023,-0.7502614458634542
97,"{'mean': -0.3, 'sd': 0.37}",0.3,3,0.5248808860778809,0,"(0, 3)",99,1,True,0.0,0,1,1,0.0,True,True,-0.3,0.3,1.0,0.19999999999999998,0.9609189555504736,1,False,True,0.9218379111009471,1,0.0,True,023,-0.6445839257936842
98,"{'mean': -0.3, 'sd': 0.37}",0.7,2,0.48420190811157227,0,"(1, 2)",100,1,False,0.0,0,1,1,0.0,True,True,-0.7,0.7,1.0,0.39999999999999997,0.9958491366180638,1,False,True,0.9916982732361277,1,0.0,True,023,-0.7252532937350716
99,"{'mean': -0.3, 'sd': 0.37}",0.3,3,0.4195718765258789,0,"(0, 3)",101,1,False,0.0,0,1,1,0.0,True,True,-0.3,0.3,1.0,-0.39999999999999997,0.9747816931296309,1,False,True,0.9495633862592618,1,0.0,True,023,-0.8685204291917488
100,"{'mean': -0.3, 'sd': 0.37}",-0.1,2,0.5975511074066162,0,"(0, 2)",102,1,False,0.0,0,1,1,0.0,True,True,0.1,0.1,-1.0,-0.4,0.8175646944260282,1,False,True,0.6351293888520564,0,1.0,False,023,-0.5149154634258531
101,"{'mean': -0.3, 'sd': 0.37}",0.7,3,0.6213359832763672,0,"(1, 3)",103,1,False,0.0,0,1,1,0.0,True,True,-0.7,0.7,1.0,0.7999999999999999,0.9910168877060795,1,False,True,0.9820337754121591,1,1.0,True,023,-0.4758833074840295
102,"{'mean': -0.3, 'sd': 0.37}",0.9,3,0.585669994354248,0,"(0, 3)",104,1,True,0.0,0,1,1,0.0,True,True,-0.9,0.9,1.0,0.20000000000000007,0.9988972112297181,1,False,True,0.9977944224594362,1,0.0,True,023,-0.5349987975995281
103,"{'mean': 0.3, 'sd': 0.37}",-0.3,3,0.8543679714202881,1,"(0, 3)",105,0,True,1.0,0,1,1,0.0,False,True,0.3,0.3,-1.0,-1.2,0.6799506873419027,1,False,True,0.35990137468380534,0,1.0,False,023,-0.15739329811240602
104,"{'mean': 0.3, 'sd': 0.37}",0.1,3,0.5930018424987793,1,"(0, 3)",106,0,True,0.0,0,1,1,0.0,False,True,-0.1,0.1,1.0,0.4,0.7438408140113938,1,False,True,0.4876816280227876,1,1.0,True,023,-0.5225577729086663
105,"{'mean': 0.3, 'sd': 0.37}",0.1,2,0.7234659194946289,1,"(1, 2)",107,0,False,0.0,0,1,1,0.0,False,True,-0.1,0.1,1.0,0.0,0.7855877530157972,1,False,True,0.5711755060315944,1,0.0,True,023,-0.3237018390724206
106,"{'mean': -0.3, 'sd': 0.37}",0.3,3,0.7653391361236572,0,"(0, 3)",108,1,False,1.0,0,1,1,0.0,True,True,-0.3,0.3,1.0,0.19999999999999998,0.9218822887603868,1,False,True,0.8437645775207736,1,0.0,True,023,-0.2674362281964271
107,"{'mean': -0.3, 'sd': 0.37}",0.7,3,0.7523000240325928,0,"(0, 3)",109,1,True,0.0,0,1,1,0.0,True,True,-0.7,0.7,1.0,0.39999999999999997,0.9946603461040454,1,False,True,0.9893206922080908,1,0.0,True,023,-0.28462006647047083
108,"{'mean': -0.3, 'sd': 0.37}",0.3,2,0.8801150321960449,0,"(1, 2)",110,1,False,0.0,0,1,1,0.0,True,True,-0.3,0.3,1.0,-0.39999999999999997,0.9745246949762812,1,False,True,0.9490493899525625,1,0.0,True,023,-0.12770266164819458
109,"{'mean': -0.3, 'sd': 0.37}",0.5,3,0.8474559783935547,0,"(0, 3)",111,1,False,0.0,0,1,1,0.0,True,True,-0.5,0.5,1.0,0.2,0.9891790057124832,1,False,True,0.9783580114249664,1,0.0,True,023,-0.16551638397507135
110,"{'mean': -0.3, 'sd': 0.37}",0.7,3,0.8470430374145508,0,"(1, 3)",112,1,True,0.0,0,1,1,0.0,True,True,-0.7,0.7,1.0,0.19999999999999996,0.9966592738299589,1,False,True,0.9933185476599178,1,0.0,True,023,-0.1660037740335205
111,"{'mean': -0.3, 'sd': 0.37}",0.7,3,0.8074650764465332,0,"(0, 3)",113,1,True,0.0,0,1,1,0.0,True,True,-0.7,0.7,1.0,0.0,0.9968670767201293,1,False,True,0.9937341534402586,1,0.0,True,023,-0.21385547380321107
112,"{'mean': 0.3, 'sd': 0.37}",-0.3,2,0.7722790241241455,1,"(0, 2)",114,0,False,1.0,0,1,1,0.0,False,True,0.3,0.3,-1.0,-1.0,0.6759995384765884,1,False,True,0.3519990769531769,0,1.0,False,023,-0.2584093640449026
113,"{'mean': 0.3, 'sd': 0.37}",-0.9,3,1.0522751808166504,1,"(1, 2)",115,0,False,0.0,0,0,1,0.0,False,False,0.9,0.9,-1.0,-0.6000000000000001,0.02845462601300215,0,True,False,0.9430907479739957,0,0.0,False,023,0.050954658832820514
114,"{'mean': 0.3, 'sd': 0.37}",-0.9,2,1.1924660205841064,1,"(0, 3)",116,0,False,0.0,0,0,1,0.0,False,False,0.9,0.9,-1.0,0.0,0.0022552183313564113,0,False,False,0.9954895633372872,0,0.0,False,023,0.17602344910529671
115,"{'mean': 0.3, 'sd': 0.37}",-0.9,2,1.3707988262176514,1,"(1, 2)",117,0,True,0.0,0,1,1,0.0,False,True,0.9,0.9,-1.0,0.0,0.0018211164595286018,0,False,False,0.9963577670809428,0,0.0,False,023,0.315393654742528
116,"{'mean': 0.3, 'sd': 0.37}",-0.3,2,0.988408088684082,1,"(1, 2)",119,0,True,0.0,0,1,1,0.0,False,True,0.3,0.3,-1.0,0.6000000000000001,0.02533424511026834,0,False,False,0.9493315097794633,0,0.0,False,023,-0.011659621287163148
117,"{'mean': 0.3, 'sd': 0.37}",-0.1,3,0.8987059593200684,1,"(1, 3)",120,0,False,0.0,0,1,1,0.0,False,True,0.1,0.1,-1.0,0.19999999999999998,0.07521181535667247,0,False,False,0.849576369286655,0,0.0,False,023,-0.10679937329487597
118,"{'mean': 0.3, 'sd': 0.37}",0.3,3,0.7384250164031982,1,"(1, 3)",121,0,True,0.0,0,1,1,0.0,False,True,-0.3,0.3,1.0,0.4,0.4525882812699747,0,False,False,0.09482343746005062,1,1.0,True,023,-0.30323571716478404
119,"{'mean': 0.3, 'sd': 0.37}",0.1,3,1.3297719955444336,1,"(1, 3)",122,0,True,0.0,0,1,1,0.0,False,True,-0.1,0.1,1.0,-0.19999999999999998,0.5789195214317912,1,True,True,0.1578390428635823,1,0.0,True,023,0.28500749561605243
120,"{'mean': 0.3, 'sd': 0.37}",-0.1,1,0.8637399673461914,1,"(1, 2)",123,0,False,0.0,1,0,0,1.0,True,True,0.1,0.1,-1.0,-0.2,0.43777555212260777,0,True,True,0.12444889575478446,0,1.0,True,023,-0.14648351919643665
121,"{'mean': 0.3, 'sd': 0.37}",-0.3,0,0.4605140686035156,1,"(0, 3)",124,0,False,0.0,1,0,0,0.0,True,True,0.3,0.3,-1.0,-0.19999999999999998,0.16084054940161954,0,False,True,0.678318901196761,0,0.0,True,023,-0.7754118730400501
122,"{'mean': 0.3, 'sd': 0.37}",-0.7,0,0.6376979351043701,1,"(0, 2)",125,0,True,0.0,1,0,0,0.0,True,True,0.7,0.7,-1.0,-0.39999999999999997,0.011243228585831289,0,False,True,0.9775135428283375,0,0.0,True,023,-0.44989056370226754
123,"{'mean': 0.3, 'sd': 0.37}",-0.5,0,0.6295671463012695,1,"(0, 2)",126,0,True,0.0,1,0,0,0.0,True,True,0.5,0.5,-1.0,0.19999999999999996,0.011150907495576238,0,False,True,0.9776981850088475,0,0.0,True,023,-0.46272276509994714
124,"{'mean': 0.3, 'sd': 0.37}",-0.3,1,0.6063580513000488,1,"(1, 2)",127,0,False,0.0,1,0,0,0.0,True,True,0.3,0.3,-1.0,0.2,0.02740511718364423,0,False,True,0.9451897656327115,0,0.0,True,023,-0.500284623662802
125,"{'mean': 0.3, 'sd': 0.37}",-0.5,0,0.76590895652771,1,"(0, 2)",128,0,False,0.0,1,0,0,0.0,True,True,0.5,0.5,-1.0,-0.2,0.012663043881793434,0,False,True,0.9746739122364131,0,0.0,True,023,-0.26669197201339556
126,"{'mean': 0.3, 'sd': 0.37}",-0.3,0,0.6249740123748779,1,"(0, 3)",129,0,True,0.0,1,0,0,0.0,True,True,0.3,0.3,-1.0,0.2,0.027743197161311742,0,False,True,0.9445136056773765,0,0.0,True,023,-0.47004521031041135
127,"{'mean': 0.3, 'sd': 0.37}",-0.3,0,0.5154829025268555,1,"(0, 3)",130,0,True,0.0,1,0,0,0.0,True,True,0.3,0.3,-1.0,0.0,0.031152693271565855,0,False,True,0.9376946134568683,0,0.0,True,023,-0.6626511428513782
128,"{'mean': 0.3, 'sd': 0.37}",0.1,1,0.5775830745697021,1,"(1, 2)",131,0,False,0.0,1,0,0,0.0,True,True,-0.1,0.1,1.0,0.4,0.18402843657739187,0,False,True,0.6319431268452163,1,1.0,False,023,-0.5489029948631569
129,"{'mean': 0.3, 'sd': 0.37}",-0.3,0,0.899648904800415,1,"(0, 2)",132,0,False,0.0,1,0,0,0.0,True,True,0.3,0.3,-1.0,-0.4,0.07107689773470999,0,False,True,0.85784620453058,0,1.0,True,023,-0.10575069754619655
130,"{'mean': 0.3, 'sd': 0.37}",-0.1,1,1.1537089347839355,1,"(1, 2)",133,0,False,0.0,1,0,0,0.0,True,True,0.1,0.1,-1.0,0.19999999999999998,0.10000620146181073,0,False,True,0.7999875970763786,0,0.0,True,023,0.14298191338149455
131,"{'mean': -0.3, 'sd': 0.37}",0.7,0,0.8864789009094238,0,"(0, 3)",134,1,False,1.0,1,0,0,0.0,False,True,-0.7,0.7,1.0,0.7999999999999999,0.8862231501847772,1,True,False,0.7724463003695543,1,1.0,False,023,-0.12049795419169171
132,"{'mean': -0.3, 'sd': 0.37}",0.1,0,0.7640941143035889,0,"(0, 3)",135,1,True,0.0,1,0,0,0.0,False,True,-0.1,0.1,1.0,-0.6,0.8723894848910518,1,False,False,0.7447789697821037,1,0.0,False,023,-0.269064311141179
133,"{'mean': -0.3, 'sd': 0.37}",-0.1,1,0.9433619976043701,0,"(1, 3)",136,1,False,0.0,1,0,0,0.0,False,True,0.1,0.1,-1.0,-0.2,0.7058884881999493,1,False,False,0.41177697639989863,0,1.0,True,023,-0.05830519132157071
134,"{'mean': -0.3, 'sd': 0.37}",0.7,0,0.69840407371521,0,"(0, 3)",137,1,False,0.0,1,0,0,0.0,False,True,-0.7,0.7,1.0,0.7999999999999999,0.9861415769694181,1,False,False,0.9722831539388361,1,1.0,False,023,-0.3589574415481977
135,"{'mean': -0.3, 'sd': 0.37}",0.3,1,0.673987865447998,0,"(1, 2)",138,1,False,0.0,1,0,0,0.0,False,True,-0.3,0.3,1.0,-0.39999999999999997,0.972670966112469,1,False,False,0.9453419322249379,1,0.0,False,023,-0.3945431720182532
136,"{'mean': 0.3, 'sd': 0.37}",-0.3,1,0.9040608406066895,1,"(1, 2)",139,0,True,1.0,1,0,0,0.0,True,True,0.3,0.3,-1.0,-0.6,0.6312349184800309,1,False,False,0.26246983696006176,0,1.0,True,023,-0.10085861929853626
137,"{'mean': 0.3, 'sd': 0.37}",0.5,1,0.8741240501403809,1,"(1, 2)",140,0,True,0.0,1,0,0,0.0,True,True,-0.5,0.5,1.0,0.8,0.9498052325288626,1,False,False,0.8996104650577252,1,1.0,False,023,-0.13453297959918747
138,"{'mean': 0.3, 'sd': 0.37}",-1.0,3,0.7523620128631592,1,"(1, 3)",141,0,False,0.0,0,1,1,1.0,False,True,1.0,1.0,-1.0,-1.5,0.06277521064909918,0,True,False,0.8744495787018016,0,1.0,False,023,-0.2845376707841553
139,"{'mean': 0.3, 'sd': 0.37}",-0.7,2,0.6535279750823975,1,"(0, 3)",142,0,False,0.0,0,0,1,0.0,False,False,0.7,0.7,-1.0,0.30000000000000004,0.006702750928644862,0,False,False,0.9865944981427103,0,0.0,False,023,-0.4253699387508601
140,"{'mean': 0.3, 'sd': 0.37}",0.3,2,0.6005480289459229,1,"(0, 2)",143,0,True,0.0,0,1,1,0.0,False,True,-0.3,0.3,1.0,1.0,0.33650752175484205,0,False,False,0.3269849564903159,1,1.0,True,023,-0.5099126590685776
141,"{'mean': 0.3, 'sd': 0.37}",-0.1,3,0.42163896560668945,1,"(0, 3)",144,0,False,0.0,0,1,1,0.0,False,True,0.1,0.1,-1.0,-0.4,0.2605814022741218,0,False,False,0.4788371954517564,0,1.0,False,023,-0.8636058628599702
142,"{'mean': 0.3, 'sd': 0.37}",-0.3,3,0.6369359493255615,1,"(0, 3)",145,0,True,0.0,0,1,1,0.0,False,True,0.3,0.3,-1.0,-0.19999999999999998,0.09429666706607386,0,False,False,0.8114066658678523,0,0.0,False,023,-0.45108617897483766
143,"{'mean': 0.3, 'sd': 0.37}",0.1,3,0.6037712097167969,1,"(1, 3)",146,0,True,0.0,0,1,1,0.0,False,True,-0.1,0.1,1.0,0.4,0.2524656103799466,0,False,False,0.49506877924010684,1,1.0,True,023,-0.5045599446666883
144,"{'mean': 0.3, 'sd': 0.37}",-0.3,3,0.8975811004638672,1,"(1, 2)",147,0,True,0.0,0,0,1,0.0,False,False,0.3,0.3,-1.0,-0.4,0.09170034027431147,0,False,False,0.8165993194513771,0,1.0,False,023,-0.10805180006832467
145,"{'mean': 0.3, 'sd': 0.37}",-0.7,3,0.7347419261932373,1,"(1, 2)",148,0,True,0.0,0,0,1,0.0,False,False,0.7,0.7,-1.0,-0.39999999999999997,0.007956327717358967,0,False,False,0.984087344565282,0,0.0,False,023,-0.30823596225217814
146,"{'mean': 0.3, 'sd': 0.37}",-0.1,3,0.6828670501708984,1,"(1, 3)",149,0,True,0.0,0,1,1,0.0,False,True,0.1,0.1,-1.0,0.6,0.06598985572886398,0,False,False,0.8680202885422721,0,0.0,False,023,-0.3814550940387272
147,"{'mean': 0.3, 'sd': 0.37}",-0.1,2,0.5955550670623779,1,"(1, 2)",150,0,False,0.0,0,1,1,0.0,False,True,0.1,0.1,-1.0,0.0,0.09721083117745677,0,False,False,0.8055783376450865,0,0.0,False,023,-0.518261422484927
148,"{'mean': 0.3, 'sd': 0.37}",-0.5,3,0.6970949172973633,1,"(1, 2)",151,0,False,0.0,0,0,1,0.0,False,False,0.5,0.5,-1.0,-0.4,0.019680731554304737,0,False,False,0.9606385368913906,0,0.0,False,023,-0.36083369772657403
149,"{'mean': 0.3, 'sd': 0.37}",-0.9,2,0.630669116973877,1,"(1, 2)",152,0,False,0.0,0,1,1,0.0,False,True,0.9,0.9,-1.0,-0.4,0.0021075877727498504,0,False,False,0.9957848244545003,0,0.0,False,023,-0.4609739327808382
150,"{'mean': 0.3, 'sd': 0.37}",-0.5,3,1.2598090171813965,1,"(0, 3)",153,0,False,0.0,0,1,1,0.0,False,True,0.5,0.5,-1.0,0.4,0.010313470582059033,0,False,False,0.9793730588358819,0,0.0,False,023,0.23096013580937932
151,"{'mean': 0.3, 'sd': 0.37}",0.1,2,0.6427359580993652,1,"(0, 2)",154,0,False,0.0,0,1,1,0.0,False,True,-0.1,0.1,1.0,0.6,0.16058118747388606,0,False,False,0.6788376250522279,1,1.0,True,023,-0.44202127967242116
152,"{'mean': 0.3, 'sd': 0.37}",-0.3,3,0.3862569332122803,1,"(0, 3)",155,0,False,0.0,0,1,1,0.0,False,True,0.3,0.3,-1.0,-0.4,0.06449459082913855,0,False,False,0.8710108183417229,0,1.0,False,023,-0.9512525008671262
153,"{'mean': 0.3, 'sd': 0.37}",-0.5,2,0.6348609924316406,1,"(1, 3)",156,0,False,0.0,0,0,1,0.0,False,False,0.5,0.5,-1.0,-0.2,0.016288918509929404,0,False,False,0.9674221629801412,0,0.0,False,023,-0.4543492136101112
154,"{'mean': 0.3, 'sd': 0.37}",-0.5,2,0.8738491535186768,1,"(0, 2)",157,0,True,0.0,0,1,1,0.0,False,True,0.5,0.5,-1.0,0.0,0.011618742196886692,0,False,False,0.9767625156062266,0,0.0,False,023,-0.13484751145058538
155,"{'mean': 0.3, 'sd': 0.37}",0.1,3,0.4440648555755615,1,"(0, 3)",158,0,False,0.0,0,1,1,0.0,False,True,-0.1,0.1,1.0,0.6,0.16206282967705038,0,False,False,0.6758743406458992,1,1.0,True,023,-0.8117846561011295
156,"{'mean': 0.3, 'sd': 0.37}",-0.7,3,0.6420648097991943,1,"(0, 3)",159,0,True,0.0,0,1,1,0.0,False,True,0.7,0.7,-1.0,-0.7999999999999999,0.011305381589626115,0,False,False,0.9773892368207477,0,1.0,False,023,-0.44306603054428656
157,"{'mean': 0.3, 'sd': 0.37}",-1.0,3,0.8740861415863037,1,"(1, 3)",160,0,True,0.0,0,1,1,0.0,False,True,1.0,1.0,-1.0,-0.30000000000000004,0.0012978697460172318,0,False,False,0.9974042605079655,0,0.0,False,023,-0.13457634801594023
158,"{'mean': 0.3, 'sd': 0.37}",-0.7,2,1.1341350078582764,1,"(0, 2)",161,0,False,0.0,0,1,1,0.0,False,True,0.7,0.7,-1.0,0.30000000000000004,0.004244056345514581,0,False,False,0.9915118873089709,0,0.0,False,023,0.12587025276787459
159,"{'mean': 0.3, 'sd': 0.37}",-0.3,2,1.125974178314209,1,"(0, 3)",162,0,True,0.0,0,0,1,0.0,False,False,0.3,0.3,-1.0,0.39999999999999997,0.025869571320770907,0,False,False,0.9482608573584582,0,0.0,False,023,0.11864859722915948
160,"{'mean': -0.3, 'sd': 0.37}",-0.1,2,1.3373429775238037,0,"(0, 2)",163,1,True,1.0,0,1,1,0.0,True,True,0.1,0.1,-1.0,0.19999999999999998,0.07549759874415449,0,False,False,0.849004802511691,0,0.0,False,023,0.2906847929139044
161,"{'mean': -0.3, 'sd': 0.37}",-0.3,0,1.1092610359191895,0,"(0, 3)",164,1,False,0.0,1,0,0,1.0,False,True,0.3,0.3,-1.0,-0.19999999999999998,0.042424676487540745,0,False,True,0.9151506470249186,0,0.0,True,023,0.10369406021922276
162,"{'mean': -0.3, 'sd': 0.37}",-0.1,0,0.7133569717407227,0,"(0, 2)",165,1,True,0.0,1,0,0,0.0,False,True,0.1,0.1,-1.0,0.19999999999999998,0.08438630111718023,0,False,True,0.8312273977656395,0,0.0,True,023,-0.3377733222291154
163,"{'mean': 0.3, 'sd': 0.37}",0.1,1,0.5815510749816895,1,"(0, 3)",166,0,False,1.0,0,0,0,0.0,False,False,-0.1,0.1,1.0,0.2,0.24197561709521256,0,False,True,0.5160487658095749,1,1.0,False,023,-0.5420564777219866
164,"{'mean': 0.3, 'sd': 0.37}",0.1,1,0.6814601421356201,1,"(1, 2)",167,0,True,0.0,1,0,0,0.0,True,True,-0.1,0.1,1.0,0.0,0.39866291006936816,0,False,True,0.20267417986126368,1,0.0,False,023,-0.38351751505021414
165,"{'mean': 0.3, 'sd': 0.37}",0.5,1,0.6254949569702148,1,"(1, 3)",168,0,True,0.0,1,0,0,0.0,True,True,-0.5,0.5,1.0,0.4,0.898788689956697,1,True,False,0.7975773799133941,1,0.0,False,023,-0.4692120115054106
166,"{'mean': 0.3, 'sd': 0.37}",-0.9,1,0.8761191368103027,1,"(1, 3)",169,0,True,0.0,1,0,0,0.0,True,True,0.9,0.9,-1.0,-1.4,0.06955719646018708,0,True,True,0.8608856070796258,0,1.0,True,023,-0.13225319636802987
167,"{'mean': 0.3, 'sd': 0.37}",-0.3,0,0.7420749664306641,1,"(0, 2)",170,0,False,0.0,1,0,0,0.0,True,True,0.3,0.3,-1.0,0.6000000000000001,0.04098160914523985,0,False,True,0.9180367817095203,0,0.0,True,023,-0.2983050079928156
168,"{'mean': 0.3, 'sd': 0.37}",-1.0,0,1.0223569869995117,1,"(0, 2)",171,0,True,0.0,1,0,0,0.0,True,True,1.0,1.0,-1.0,-0.7,0.001628597850008782,0,False,True,0.9967428042999824,0,0.0,True,023,0.02211073313750906
169,"{'mean': 0.3, 'sd': 0.37}",-0.1,0,0.6315078735351562,1,"(0, 2)",172,0,True,0.0,1,0,0,0.0,True,True,0.1,0.1,-1.0,0.9,0.06265830919539,0,False,True,0.87468338160922,0,0.0,True,023,-0.4596448692801533
170,"{'mean': 0.3, 'sd': 0.37}",-0.7,1,0.7957749366760254,1,"(0, 3)",173,0,False,0.0,0,0,0,0.0,False,False,0.7,0.7,-1.0,-0.6,0.006697817147441106,0,False,True,0.9866043657051178,0,0.0,True,023,-0.22843887598637003
171,"{'mean': 0.3, 'sd': 0.37}",-0.1,1,0.8926727771759033,1,"(1, 2)",174,0,True,0.0,1,0,0,0.0,True,True,0.1,0.1,-1.0,0.6,0.06532613482693782,0,False,True,0.8693477303461243,0,0.0,True,023,-0.11353519619189649
172,"{'mean': -0.3, 'sd': 0.37}",0.7,1,0.7061090469360352,0,"(1, 2)",175,1,True,1.0,1,0,0,0.0,False,True,-0.7,0.7,1.0,0.7999999999999999,0.8641238939397882,1,True,False,0.7282477878795763,1,1.0,False,023,-0.34798559599973317
173,"{'mean': -0.3, 'sd': 0.37}",0.3,0,0.7487139701843262,0,"(0, 2)",176,1,False,0.0,1,0,0,0.0,False,True,-0.3,0.3,1.0,-0.39999999999999997,0.9435616948156318,1,False,False,0.8871233896312636,1,0.0,False,023,-0.2893982506644355
174,"{'mean': -0.3, 'sd': 0.37}",0.1,0,0.5891640186309814,0,"(0, 2)",177,1,True,0.0,1,0,0,0.0,False,True,-0.1,0.1,1.0,-0.19999999999999998,0.9051190539857706,1,False,False,0.8102381079715413,1,0.0,False,023,-0.5290506644339225
175,"{'mean': -0.3, 'sd': 0.37}",0.1,0,0.6652538776397705,0,"(0, 3)",178,1,True,0.0,1,0,0,0.0,False,True,-0.1,0.1,1.0,0.0,0.8833093676758426,1,False,False,0.7666187353516851,1,0.0,False,023,-0.4075865402953727
176,"{'mean': -0.3, 'sd': 0.37}",-0.1,0,0.5225450992584229,0,"(0, 3)",179,1,True,0.0,1,0,0,0.0,False,True,0.1,0.1,-1.0,-0.2,0.7172879430135635,1,False,False,0.43457588602712693,0,1.0,True,023,-0.6490439844978546
177,"{'mean': -0.3, 'sd': 0.37}",-0.1,0,0.5843720436096191,0,"(0, 3)",180,1,True,0.0,1,0,0,0.0,False,True,0.1,0.1,-1.0,0.0,0.5556632629492164,1,False,False,0.11132652589843284,0,0.0,True,023,-0.5372174380157361
178,"{'mean': -0.3, 'sd': 0.37}",0.5,0,0.7855868339538574,0,"(0, 3)",181,1,True,0.0,1,0,0,0.0,False,True,-0.5,0.5,1.0,0.6,0.9365305503418461,1,False,False,0.8730611006836921,1,1.0,False,023,-0.24132428130602318
179,"{'mean': -0.3, 'sd': 0.37}",0.3,2,1.4235010147094727,0,"(0, 2)",183,1,False,0.0,0,1,1,1.0,True,True,-0.3,0.3,1.0,-0.2,0.96143575765028,1,False,True,0.92287151530056,1,0.0,True,023,0.3531193405628684
180,"{'mean': 0.3, 'sd': 0.37}",-0.3,3,1.2101380825042725,1,"(1, 3)",184,0,False,1.0,0,1,1,0.0,False,True,0.3,0.3,-1.0,-0.6,0.6118078366194607,1,False,True,0.2236156732389214,0,1.0,False,023,0.1907344708698381
181,"{'mean': 0.3, 'sd': 0.37}",-0.3,3,0.654433012008667,1,"(1, 2)",185,0,True,0.0,0,0,1,0.0,False,False,0.3,0.3,-1.0,0.0,0.25194297844082486,0,True,False,0.4961140431183503,0,0.0,False,023,-0.42398604874245455
182,"{'mean': 0.3, 'sd': 0.37}",0.3,2,0.7447338104248047,1,"(1, 2)",186,0,False,0.0,0,1,1,0.0,False,True,-0.3,0.3,1.0,0.6,0.6531987206546565,1,True,True,0.3063974413093129,1,1.0,True,023,-0.29472842589316234
183,"{'mean': 0.3, 'sd': 0.37}",-0.9,2,0.5980350971221924,1,"(1, 3)",187,0,True,0.0,0,0,1,0.0,False,False,0.9,0.9,-1.0,-1.2,0.026356100294306403,0,True,False,0.9472877994113872,0,1.0,False,023,-0.5141058359139586
184,"{'mean': -0.3, 'sd': 0.37}",0.1,2,0.691990852355957,0,"(0, 2)",188,1,True,1.0,0,1,1,0.0,True,True,-0.1,0.1,1.0,1.0,0.17867057170224337,0,False,False,0.6426588565955133,1,1.0,True,023,-0.3681825425906315
185,"{'mean': -0.3, 'sd': 0.37}",0.1,2,1.0187351703643799,0,"(1, 2)",189,1,True,0.0,0,1,1,0.0,True,True,-0.1,0.1,1.0,0.0,0.3382230482737248,0,False,False,0.3235539034525504,1,0.0,True,023,0.018561828769444445
186,"{'mean': -0.3, 'sd': 0.37}",0.1,2,0.5206320285797119,0,"(0, 2)",190,1,True,0.0,0,1,1,0.0,True,True,-0.1,0.1,1.0,0.0,0.4847606649138492,0,False,False,0.030478670172301547,1,0.0,True,023,-0.6527117658790016
187,"{'mean': -0.3, 'sd': 0.37}",1.0,3,0.8122501373291016,0,"(1, 2)",191,1,False,0.0,0,0,1,0.0,False,False,-1.0,1.0,1.0,0.9,0.9944168689839058,1,True,True,0.9888337379678116,1,0.0,True,023,-0.20794693536048667
188,"{'mean': -0.3, 'sd': 0.37}",-0.3,2,0.6539838314056396,0,"(0, 2)",192,1,False,0.0,0,1,1,0.0,True,True,0.3,0.3,-1.0,-1.3,0.6712727989051062,1,False,True,0.3425455978102123,0,1.0,False,023,-0.4246726504518935
189,"{'mean': -0.3, 'sd': 0.37}",-0.3,3,0.6858329772949219,0,"(1, 3)",193,1,False,0.0,0,1,1,0.0,True,True,0.3,0.3,-1.0,0.0,0.2918064979526436,0,True,False,0.41638700409471285,0,0.0,False,023,-0.37712115423171283
190,"{'mean': -0.3, 'sd': 0.37}",0.5,3,0.5833868980407715,0,"(1, 3)",194,1,True,0.0,0,1,1,0.0,True,True,-0.5,0.5,1.0,0.8,0.8601713942073314,1,True,True,0.7203427884146627,1,1.0,True,023,-0.5389046797356126
191,"{'mean': -0.3, 'sd': 0.37}",0.3,3,0.7073869705200195,0,"(0, 3)",195,1,True,0.0,0,1,1,0.0,True,True,-0.3,0.3,1.0,-0.2,0.942530855932021,1,False,True,0.885061711864042,1,0.0,True,023,-0.34617742120987444
192,"{'mean': -0.3, 'sd': 0.37}",0.3,3,0.6275990009307861,0,"(1, 3)",196,1,True,0.0,0,1,1,0.0,True,True,-0.3,0.3,1.0,0.0,0.9628359604561404,1,False,True,0.9256719209122808,1,0.0,True,023,-0.46585385001301266
193,"{'mean': 0.3, 'sd': 0.37}",-0.3,2,0.6244888305664062,1,"(0, 2)",197,0,False,1.0,0,1,1,0.0,False,True,0.3,0.3,-1.0,-0.6,0.6141849127293075,1,False,True,0.22836982545861506,0,1.0,False,023,-0.47082183497852204
194,"{'mean': 0.3, 'sd': 0.37}",-0.1,2,0.8682990074157715,1,"(1, 2)",198,0,True,0.0,0,1,1,0.0,False,True,0.1,0.1,-1.0,0.19999999999999998,0.466531972990741,0,True,False,0.06693605401851799,0,0.0,False,023,-0.14121914505131536
195,"{'mean': 0.3, 'sd': 0.37}",0.1,3,0.47737908363342285,1,"(1, 3)",199,0,False,0.0,0,1,1,0.0,False,True,-0.1,0.1,1.0,0.2,0.5898456305873814,1,True,True,0.17969126117476275,1,1.0,True,023,-0.7394443791218057
196,"{'mean': 0.3, 'sd': 0.37}",-0.5,2,0.7193319797515869,1,"(0, 2)",200,0,False,0.0,0,1,1,0.0,False,True,0.5,0.5,-1.0,-0.6,0.11132294265736058,0,True,False,0.7773541146852788,0,1.0,False,023,-0.3294323035509156
197,"{'mean': 0.3, 'sd': 0.37}",-0.7,3,0.7804889678955078,1,"(0, 3)",201,0,False,0.0,0,1,1,0.0,False,True,0.7,0.7,-1.0,-0.19999999999999996,0.008845650377093603,0,False,False,0.9823086992458128,0,0.0,False,023,-0.2478346737895721
198,"{'mean': 0.3, 'sd': 0.37}",0.1,3,0.6589350700378418,1,"(0, 3)",202,0,True,0.0,0,1,1,0.0,False,True,-0.1,0.1,1.0,0.7999999999999999,0.15891293387986816,0,False,False,0.6821741322402637,1,1.0,True,023,-0.4171302773492482
199,"{'mean': 0.3, 'sd': 0.37}",-0.5,2,0.6879279613494873,1,"(0, 2)",203,0,False,0.0,0,1,1,0.0,False,True,0.5,0.5,-1.0,-0.6,0.02663055669575378,0,False,False,0.9467388866084925,0,1.0,False,023,-0.3740711538718512
200,"{'mean': 0.3, 'sd': 0.37}",-0.5,3,0.9063069820404053,1,"(1, 3)",204,0,False,0.0,0,1,1,0.0,False,True,0.5,0.5,-1.0,0.0,0.012589663964462275,0,False,False,0.9748206720710755,0,0.0,False,023,-0.09837719805567122
201,"{'mean': 0.3, 'sd': 0.37}",-0.1,2,1.0351510047912598,1,"(1, 2)",205,0,False,0.0,0,1,1,0.0,False,True,0.1,0.1,-1.0,0.4,0.06843820425794217,0,False,False,0.8631235914841157,0,0.0,False,023,0.03454731442424662
202,"{'mean': 0.3, 'sd': 0.37}",-0.3,2,1.1996221542358398,1,"(0, 2)",206,0,True,0.0,0,1,1,0.0,False,True,0.3,0.3,-1.0,-0.19999999999999998,0.04071111617131019,0,False,False,0.9185777676573796,0,0.0,False,023,0.18200663574139148
203,"{'mean': 0.3, 'sd': 0.37}",-0.3,3,0.8355059623718262,1,"(1, 3)",207,0,False,0.0,0,1,1,0.0,False,True,0.3,0.3,-1.0,0.0,0.03414085283981233,0,False,False,0.9317182943203753,0,0.0,False,023,-0.1797177946803192
204,"{'mean': -0.3, 'sd': 0.37}",-0.1,2,0.7767181396484375,0,"(0, 2)",208,1,False,1.0,0,1,1,0.0,True,True,0.1,0.1,-1.0,0.19999999999999998,0.07992625039860099,0,False,False,0.840147499202798,0,0.0,False,023,-0.2526777490610839
205,"{'mean': -0.3, 'sd': 0.37}",-0.7,2,1.0404739379882812,0,"(1, 2)",209,1,True,0.0,0,1,1,0.0,True,True,0.7,0.7,-1.0,-0.6,0.007438044203691631,0,False,False,0.9851239115926167,0,0.0,False,023,0.03967631895331139
206,"{'mean': -0.3, 'sd': 0.37}",0.5,3,1.2271108627319336,0,"(1, 3)",210,1,False,0.0,0,1,1,0.0,True,True,-0.5,0.5,1.0,1.2,0.5897650261917043,1,True,True,0.1795300523834087,1,1.0,True,023,0.20466251432197982
207,"{'mean': -0.3, 'sd': 0.37}",-0.3,2,0.82759690284729,0,"(1, 2)",211,1,False,0.0,0,1,1,0.0,True,True,0.3,0.3,-1.0,-0.8,0.2384844213491196,0,True,False,0.5230311573017608,0,1.0,False,023,-0.1892290754482373
208,"{'mean': -0.3, 'sd': 0.37}",0.1,3,0.8019518852233887,0,"(1, 3)",212,1,False,0.0,0,1,1,0.0,True,True,-0.1,0.1,1.0,0.4,0.39541173983045164,0,False,False,0.20917652033909673,1,1.0,True,023,-0.22070666640235032
209,"{'mean': -0.3, 'sd': 0.37}",0.1,2,0.9992680549621582,0,"(0, 2)",213,1,False,0.0,0,1,1,0.0,True,True,-0.1,0.1,1.0,0.0,0.5328853861566245,1,True,True,0.06577077231324902,1,0.0,True,023,-0.000732213040394413
210,"{'mean': -0.3, 'sd': 0.37}",-0.3,3,0.8846688270568848,0,"(1, 2)",214,1,False,0.0,0,0,1,0.0,False,False,0.3,0.3,-1.0,-0.4,0.20657987506086747,0,True,False,0.586840249878265,0,1.0,False,023,-0.1225419107223966
211,"{'mean': 0.3, 'sd': 0.37}",0.3,2,0.7361090183258057,1,"(0, 2)",215,0,False,1.0,0,1,1,0.0,False,True,-0.3,0.3,1.0,0.6,0.6114026964814915,1,True,True,0.22280539296298296,1,1.0,True,023,-0.3063770484970691
212,"{'mean': 0.3, 'sd': 0.37}",-0.5,0,0.8716909885406494,1,"(0, 2)",217,0,False,0.0,1,0,0,1.0,True,True,0.5,0.5,-1.0,-0.8,0.11855584227576439,0,True,True,0.7628883154484712,0,1.0,True,023,-0.13732028881699884
213,"{'mean': 0.3, 'sd': 0.37}",0.3,1,0.6536691188812256,1,"(1, 3)",218,0,False,0.0,1,0,0,0.0,True,True,-0.3,0.3,1.0,0.8,0.5125543505256354,1,True,False,0.02510870105127072,1,1.0,False,023,-0.4251539899853244
214,"{'mean': 0.3, 'sd': 0.37}",0.1,0,0.46991610527038574,1,"(0, 2)",219,0,False,0.0,1,0,0,0.0,True,True,-0.1,0.1,1.0,-0.19999999999999998,0.6251087549840856,1,False,False,0.25021750996817116,1,0.0,False,023,-0.7552010996356623
215,"{'mean': 0.3, 'sd': 0.37}",-0.5,1,0.5817749500274658,1,"(1, 3)",220,0,False,0.0,1,0,0,0.0,True,True,0.5,0.5,-1.0,-0.6,0.12341354695655381,0,True,True,0.7531729060868924,0,1.0,True,023,-0.5416715898337641
216,"{'mean': 0.3, 'sd': 0.37}",0.3,0,1.393916130065918,1,"(1, 2)",221,0,False,0.0,0,0,0,0.0,False,False,-0.3,0.3,1.0,0.8,0.5187477404880251,1,True,False,0.037495480976050155,1,1.0,False,023,0.33211714558280975
217,"{'mean': 0.3, 'sd': 0.37}",-0.3,1,0.77028489112854,1,"(1, 3)",222,0,False,0.0,1,0,0,0.0,True,True,0.3,0.3,-1.0,-0.6,0.1992218258055431,0,True,True,0.6015563483889138,0,1.0,True,023,-0.2609948440846432
218,"{'mean': 0.3, 'sd': 0.37}",-0.9,0,0.6674289703369141,1,"(0, 2)",223,0,False,0.0,1,0,0,0.0,True,True,0.9,0.9,-1.0,-0.6000000000000001,0.005675024821818004,0,False,True,0.9886499503563639,0,0.0,True,023,-0.40432230585011425
219,"{'mean': 0.3, 'sd': 0.37}",0.3,0,0.9945647716522217,1,"(0, 2)",224,0,True,0.0,1,0,0,0.0,True,True,-0.3,0.3,1.0,1.2,0.33452238186173205,0,False,True,0.3309552362765359,1,1.0,False,023,-0.00545005294248047
220,"{'mean': -0.3, 'sd': 0.37}",0.5,1,1.1062891483306885,0,"(0, 3)",225,1,False,1.0,0,0,0,0.0,False,False,-0.5,0.5,1.0,0.2,0.8773552134625069,1,True,False,0.7547104269250138,1,0.0,False,023,0.10101130503537666
221,"{'mean': 0.3, 'sd': 0.37}",-0.5,0,0.6558730602264404,1,"(0, 2)",226,0,False,1.0,1,0,0,0.0,True,True,0.5,0.5,-1.0,-1.0,0.2764107489913478,0,True,True,0.44717850201730436,0,1.0,True,023,-0.4217880145150791
222,"{'mean': 0.3, 'sd': 0.37}",0.1,1,0.8964438438415527,1,"(1, 2)",227,0,False,0.0,1,0,0,0.0,True,True,-0.1,0.1,1.0,0.6,0.4302379491140015,0,False,True,0.13952410177199703,1,1.0,False,023,-0.1093196272278728
223,"{'mean': -0.3, 'sd': 0.37}",1.0,1,0.7535750865936279,0,"(1, 3)",228,1,True,1.0,1,0,0,0.0,False,True,-1.0,1.0,1.0,0.9,0.9933489654752876,1,True,False,0.9866979309505752,1,0.0,False,023,-0.2829266154574966
224,"{'mean': -0.3, 'sd': 0.37}",0.9,0,0.9308278560638428,0,"(0, 2)",229,1,False,0.0,1,0,0,0.0,False,True,-0.9,0.9,1.0,-0.09999999999999998,0.9989190051338462,1,False,False,0.9978380102676925,1,0.0,False,023,-0.07168092098865154
225,"{'mean': -0.3, 'sd': 0.37}",0.7,0,0.6220159530639648,0,"(0, 3)",230,1,True,0.0,1,0,0,0.0,False,True,-0.7,0.7,1.0,-0.20000000000000007,0.9969293240192562,1,False,False,0.9938586480385123,1,0.0,False,023,-0.47478953855905703
226,"{'mean': -0.3, 'sd': 0.37}",0.5,0,0.5363268852233887,0,"(0, 3)",231,1,True,0.0,1,0,0,0.0,False,True,-0.5,0.5,1.0,-0.19999999999999996,0.9909842913298548,1,False,False,0.9819685826597095,1,0.0,False,023,-0.6230114433092739
227,"{'mean': -0.3, 'sd': 0.37}",0.1,0,1.39341402053833,0,"(0, 2)",232,1,True,0.0,1,0,0,0.0,False,True,-0.1,0.1,1.0,-0.4,0.9312976663394699,1,False,False,0.8625953326789397,1,0.0,False,023,0.3317568656691366
228,"{'mean': -0.3, 'sd': 0.37}",0.3,2,1.1895360946655273,0,"(0, 2)",233,1,False,0.0,0,1,1,1.0,True,True,-0.3,0.3,1.0,0.19999999999999998,0.9602049927086361,1,False,True,0.9204099854172723,1,0.0,True,023,0.17356339470194543
229,"{'mean': 0.3, 'sd': 0.37}",-0.1,0,0.7722749710083008,1,"(0, 3)",235,0,False,1.0,1,0,0,1.0,True,True,0.1,0.1,-1.0,-0.4,0.8009875840137953,1,False,False,0.6019751680275907,0,1.0,True,023,-0.2584146123118554
230,"{'mean': 0.3, 'sd': 0.37}",-0.7,1,0.7446959018707275,1,"(1, 2)",236,0,False,0.0,1,0,0,0.0,True,True,0.7,0.7,-1.0,-0.6,0.09977400354765782,0,True,True,0.8004519929046844,0,0.0,True,023,-0.2947793293413377
231,"{'mean': 0.3, 'sd': 0.37}",-1.0,0,0.7450120449066162,1,"(0, 3)",237,0,False,0.0,1,0,0,0.0,True,True,1.0,1.0,-1.0,-0.30000000000000004,0.002339745335263108,0,False,True,0.9953205093294738,0,0.0,True,023,-0.2943548930733852
232,"{'mean': -0.3, 'sd': 0.37}",0.5,1,0.590407133102417,0,"(1, 3)",238,1,False,1.0,1,0,0,0.0,False,True,-0.5,0.5,1.0,1.5,0.5789388213950322,1,True,False,0.15787764279006433,1,1.0,False,023,-0.5269429239558219
233,"{'mean': 0.3, 'sd': 0.37}",-0.1,0,0.6598567962646484,1,"(0, 3)",239,0,False,1.0,1,0,0,0.0,True,True,0.1,0.1,-1.0,-0.6,0.4377910623737208,0,True,True,0.12441787525255843,0,1.0,True,023,-0.4157324428608173
234,"{'mean': 0.3, 'sd': 0.37}",-0.1,0,0.6858179569244385,1,"(0, 2)",240,0,True,0.0,1,0,0,0.0,True,True,0.1,0.1,-1.0,0.0,0.3305651850863378,0,False,True,0.3388696298273244,0,0.0,True,023,-0.37714305538762544
235,"{'mean': 0.3, 'sd': 0.37}",-0.3,1,0.7800638675689697,1,"(1, 3)",241,0,False,0.0,1,0,0,0.0,True,True,0.3,0.3,-1.0,-0.19999999999999998,0.11817607355977683,0,False,True,0.7636478528804463,0,0.0,True,023,-0.24837948115192743
236,"{'mean': 0.3, 'sd': 0.37}",-0.7,1,0.7104549407958984,1,"(1, 3)",242,0,True,0.0,1,0,0,0.0,True,True,0.7,0.7,-1.0,-0.39999999999999997,0.009164042815067913,0,False,True,0.9816719143698642,0,0.0,True,023,-0.34184975246252847
237,"{'mean': 0.3, 'sd': 0.37}",-0.3,0,0.5907561779022217,1,"(0, 2)",243,0,False,0.0,1,0,0,0.0,True,True,0.3,0.3,-1.0,0.39999999999999997,0.02696193875600618,0,False,True,0.9460761224879877,0,0.0,True,023,-0.5263519052428075
238,"{'mean': -0.3, 'sd': 0.37}",-0.3,1,0.6631009578704834,0,"(1, 3)",244,1,False,1.0,1,0,0,0.0,False,True,0.3,0.3,-1.0,0.0,0.03097434663255254,0,False,True,0.9380513067348949,0,0.0,True,023,-0.4108280260743766
239,"{'mean': 0.3, 'sd': 0.37}",-0.3,0,0.5741989612579346,1,"(0, 2)",245,0,False,1.0,1,0,0,0.0,True,True,0.3,0.3,-1.0,0.0,0.03189231409794523,0,False,True,0.9362153718041095,0,0.0,True,023,-0.5547793203216538
240,"{'mean': -0.3, 'sd': 0.37}",0.7,1,0.6558210849761963,0,"(1, 2)",246,1,False,1.0,1,0,0,0.0,False,True,-0.7,0.7,1.0,1.0,0.8351900205893611,1,True,False,0.6703800411787222,1,1.0,False,023,-0.4218672635541351
241,"{'mean': -0.3, 'sd': 0.37}",1.0,1,0.9194920063018799,0,"(1, 2)",247,1,True,0.0,1,0,0,0.0,False,True,-1.0,1.0,1.0,0.30000000000000004,0.9983985388514179,1,False,False,0.9967970777028359,1,0.0,False,023,-0.08393392850259764
242,"{'mean': -0.3, 'sd': 0.37}",0.1,1,0.8571350574493408,0,"(1, 3)",248,1,True,0.0,1,0,0,0.0,False,True,-0.1,0.1,1.0,-0.9,0.9353202014708499,1,False,False,0.8706404029416999,1,0.0,False,023,-0.15415977951109602
243,"{'mean': -0.3, 'sd': 0.37}",0.7,1,0.9737091064453125,0,"(1, 2)",249,1,True,0.0,1,0,0,0.0,False,True,-0.7,0.7,1.0,0.6,0.9950791518820876,1,False,False,0.9901583037641752,1,0.0,False,023,-0.026642678627364753
244,"{'mean': -0.3, 'sd': 0.37}",0.1,1,0.9823780059814453,0,"(1, 3)",250,1,True,0.0,1,0,0,0.0,False,True,-0.1,0.1,1.0,-0.6,0.9335216106454317,1,False,False,0.8670432212908634,1,0.0,False,023,-0.01777910988807819
245,"{'mean': -0.3, 'sd': 0.37}",0.3,0,0.7966201305389404,0,"(0, 3)",251,1,False,0.0,1,0,0,0.0,False,True,-0.3,0.3,1.0,0.19999999999999998,0.9607291652356239,1,False,False,0.9214583304712478,1,0.0,False,023,-0.22737733798027537
246,"{'mean': -0.3, 'sd': 0.37}",0.1,3,1.1008479595184326,0,"(0, 3)",252,1,False,0.0,0,1,1,1.0,True,True,-0.1,0.1,1.0,-0.19999999999999998,0.9146869148068042,1,False,True,0.8293738296136084,1,0.0,True,023,0.09608075512437292
247,"{'mean': -0.3, 'sd': 0.37}",0.1,2,0.6118178367614746,0,"(1, 3)",253,1,False,0.0,0,0,1,0.0,False,False,-0.1,0.1,1.0,0.0,0.888787951912669,1,False,True,0.777575903825338,1,0.0,True,023,-0.49132069312759585
248,"{'mean': -0.3, 'sd': 0.37}",0.1,2,1.1385869979858398,0,"(1, 2)",254,1,True,0.0,0,1,1,0.0,True,True,-0.1,0.1,1.0,0.0,0.8738795315465692,1,False,True,0.7477590630931383,1,0.0,True,023,0.1297880181703638
249,"{'mean': -0.3, 'sd': 0.37}",-0.3,3,1.0661509037017822,0,"(0, 3)",255,1,False,0.0,0,1,1,0.0,True,True,0.3,0.3,-1.0,-0.4,0.48417084082842277,0,True,False,0.03165831834315447,0,1.0,False,023,0.06405487642073873
250,"{'mean': -0.3, 'sd': 0.37}",0.1,3,1.0649569034576416,0,"(1, 3)",256,1,True,0.0,0,1,1,0.0,True,True,-0.1,0.1,1.0,0.4,0.6035041481636158,1,True,True,0.2070082963272315,1,1.0,True,023,0.06293433210565194
251,"{'mean': -0.3, 'sd': 0.37}",-0.1,3,0.8178930282592773,0,"(0, 3)",257,1,True,0.0,0,1,1,0.0,True,True,0.1,0.1,-1.0,-0.2,0.4577338583074032,0,True,False,0.08453228338519359,0,1.0,False,023,-0.2010237232300046
252,"{'mean': 0.3, 'sd': 0.37}",-0.9,3,0.6634299755096436,1,"(0, 3)",258,0,True,1.0,0,1,1,0.0,False,True,0.9,0.9,-1.0,-0.8,0.014093816079377732,0,False,False,0.9718123678412446,0,0.0,False,023,-0.41033196882063633
253,"{'mean': 0.3, 'sd': 0.37}",0.1,2,1.1769919395446777,1,"(1, 2)",259,0,False,0.0,0,1,1,0.0,False,True,-0.1,0.1,1.0,1.0,0.1648675264964162,0,False,False,0.6702649470071675,1,1.0,True,023,0.16296197994940337
254,"{'mean': 0.3, 'sd': 0.37}",-0.3,3,0.751615047454834,1,"(0, 2)",260,0,False,0.0,0,0,1,0.0,False,False,0.3,0.3,-1.0,-0.4,0.06568066257416919,0,False,False,0.8686386748516617,0,1.0,False,023,-0.2855309910806571
255,"{'mean': -0.3, 'sd': 0.37}",0.3,2,0.7378158569335938,0,"(0, 2)",261,1,False,1.0,0,1,1,0.0,True,True,-0.3,0.3,1.0,0.6,0.4381496536435313,0,False,False,0.12370069271293738,1,1.0,True,023,-0.30406100186619217
256,"{'mean': -0.3, 'sd': 0.37}",-0.1,3,1.3670060634613037,0,"(0, 3)",262,1,False,0.0,0,1,1,0.0,True,True,0.1,0.1,-1.0,-0.4,0.3308227255951912,0,False,False,0.3383545488096176,0,1.0,False,023,0.312622993329125
257,"{'mean': -0.3, 'sd': 0.37}",0.9,3,0.9055690765380859,0,"(1, 3)",263,1,True,0.0,0,1,1,0.0,True,True,-0.9,0.9,1.0,1.0,0.9839391294528818,1,True,True,0.9678782589057635,1,1.0,True,023,-0.09919171904856393
258,"{'mean': -0.3, 'sd': 0.37}",0.7,3,0.5246000289916992,0,"(1, 3)",264,1,True,0.0,0,1,1,0.0,True,True,-0.7,0.7,1.0,-0.20000000000000007,0.996512088354744,1,False,True,0.9930241767094881,1,0.0,True,023,-0.6451191562849748
259,"{'mean': -0.3, 'sd': 0.37}",0.3,3,0.6546339988708496,0,"(1, 3)",265,1,True,0.0,0,1,1,0.0,True,True,-0.3,0.3,1.0,-0.39999999999999997,0.9749248346512757,1,False,True,0.9498496693025513,1,0.0,True,023,-0.4236789798726541
260,"{'mean': -0.3, 'sd': 0.37}",0.7,2,1.4140348434448242,0,"(0, 2)",266,1,False,0.0,0,1,1,0.0,True,True,-0.7,0.7,1.0,0.39999999999999997,0.9962556965173828,1,False,True,0.9925113930347655,1,0.0,True,023,0.34644720892807934
261,"{'mean': -0.3, 'sd': 0.37}",0.1,3,0.8297080993652344,0,"(1, 3)",267,1,False,0.0,0,1,1,0.0,True,True,-0.1,0.1,1.0,-0.6,0.9341595430299535,1,False,True,0.868319086059907,1,0.0,True,023,-0.18668132755981542
262,"{'mean': -0.3, 'sd': 0.37}",0.5,3,0.7286579608917236,0,"(0, 3)",268,1,True,0.0,0,1,1,0.0,True,True,-0.5,0.5,1.0,0.4,0.9857515166255439,1,False,True,0.9715030332510879,1,0.0,True,023,-0.3165508465262282
263,"{'mean': -0.3, 'sd': 0.37}",0.7,2,0.7542679309844971,0,"(0, 3)",269,1,False,0.0,0,0,1,0.0,False,False,-0.7,0.7,1.0,0.19999999999999996,0.9965631499095019,1,False,True,0.9931262998190038,1,0.0,True,023,-0.28200762796138035
264,"{'mean': -0.3, 'sd': 0.37}",-0.7,2,0.6779718399047852,0,"(1, 2)",270,1,True,0.0,0,1,1,0.0,True,True,0.7,0.7,-1.0,-1.4,0.25528869349759803,0,True,False,0.48942261300480394,0,1.0,False,023,-0.3886495259680433
265,"{'mean': -0.3, 'sd': 0.37}",0.3,2,0.9144918918609619,0,"(1, 2)",271,1,True,0.0,0,1,1,0.0,True,True,-0.3,0.3,1.0,1.0,0.6560801645540346,1,True,True,0.31216032910806923,1,1.0,True,023,-0.08938667738957914
266,"{'mean': -0.3, 'sd': 0.37}",1.0,3,0.8871109485626221,0,"(0, 3)",272,1,False,0.0,0,1,1,0.0,True,True,-1.0,1.0,1.0,0.7,0.9968074098558368,1,False,True,0.9936148197116736,1,0.0,True,023,-0.11978522156059053
267,"{'mean': -0.3, 'sd': 0.37}",0.1,2,0.7654469013214111,0,"(1, 2)",273,1,False,0.0,0,1,1,0.0,True,True,-0.1,0.1,1.0,-0.9,0.934458524530477,1,False,True,0.8689170490609539,1,0.0,True,023,-0.26729543099120595
268,"{'mean': -0.3, 'sd': 0.37}",-0.1,3,0.577599048614502,0,"(1, 3)",274,1,False,0.0,0,1,1,0.0,True,True,0.1,0.1,-1.0,-0.2,0.7722747200256033,1,False,True,0.5445494400512065,0,1.0,False,023,-0.5488753385404347
269,"{'mean': -0.3, 'sd': 0.37}",-0.3,3,1.1413178443908691,0,"(0, 3)",275,1,True,0.0,0,1,1,0.0,True,True,0.3,0.3,-1.0,-0.19999999999999998,0.37437577346250484,0,True,False,0.25124845307499033,0,0.0,False,023,0.1321835986000851
270,"{'mean': 0.3, 'sd': 0.37}",-0.1,3,0.5224390029907227,1,"(1, 3)",276,0,True,1.0,0,1,1,0.0,False,True,0.1,0.1,-1.0,0.19999999999999998,0.2861193290369443,0,False,False,0.42776134192611137,0,0.0,False,023,-0.6492470426455076
271,"{'mean': -0.3, 'sd': 0.37}",0.5,2,0.6352939605712891,0,"(0, 2)",277,1,False,1.0,0,1,1,0.0,True,True,-0.5,0.5,1.0,0.6,0.857669983202618,1,True,True,0.715339966405236,1,1.0,True,023,-0.4536674571749695
272,"{'mean': -0.3, 'sd': 0.37}",0.1,2,0.6022019386291504,0,"(0, 2)",278,1,True,0.0,0,1,1,0.0,True,True,-0.1,0.1,1.0,-0.4,0.8556320061719676,1,False,True,0.7112640123439351,1,0.0,True,023,-0.5071624436949985
273,"{'mean': -0.3, 'sd': 0.37}",0.3,2,0.7455639839172363,0,"(1, 2)",279,1,True,0.0,0,1,1,0.0,True,True,-0.3,0.3,1.0,0.19999999999999998,0.9413394871214822,1,False,True,0.8826789742429644,1,0.0,True,023,-0.2936143216095044
274,"{'mean': -0.3, 'sd': 0.37}",0.5,3,0.6218001842498779,0,"(1, 3)",280,1,False,0.0,0,1,1,0.0,True,True,-0.5,0.5,1.0,0.2,0.9863784176888114,1,False,True,0.9727568353776228,1,0.0,True,023,-0.47513648504058004
275,"{'mean': -0.3, 'sd': 0.37}",0.3,2,0.623103141784668,0,"(0, 2)",281,1,False,0.0,0,1,1,0.0,True,True,-0.3,0.3,1.0,-0.2,0.9727227927984348,1,False,True,0.9454455855968695,1,0.0,True,023,-0.47304321726096527
276,"{'mean': -0.3, 'sd': 0.37}",0.5,3,0.6742830276489258,0,"(1, 3)",282,1,False,0.0,0,1,1,0.0,True,True,-0.5,0.5,1.0,0.2,0.9890308984641538,1,False,True,0.9780617969283076,1,0.0,True,023,-0.3941053338847531
277,"{'mean': -0.3, 'sd': 0.37}",0.5,2,0.8465011119842529,0,"(0, 2)",283,1,False,0.0,0,1,1,0.0,True,True,-0.5,0.5,1.0,0.0,0.9903554226489225,1,False,True,0.980710845297845,1,0.0,True,023,-0.16664376378399423
278,"{'mean': -0.3, 'sd': 0.37}",0.3,2,1.3084049224853516,0,"(1, 2)",284,1,True,0.0,0,1,1,0.0,True,True,-0.3,0.3,1.0,-0.2,0.9735905856940789,1,False,True,0.9471811713881577,1,0.0,True,023,0.2688087788924952
279,"{'mean': -0.3, 'sd': 0.37}",0.3,3,0.9010848999023438,0,"(1, 3)",286,1,False,0.0,0,1,1,0.0,True,True,-0.3,0.3,1.0,0.0,0.9699005150333145,1,False,True,0.9398010300666291,1,0.0,True,023,-0.10415579728656423
280,"{'mean': -0.3, 'sd': 0.37}",0.1,3,0.5976760387420654,0,"(1, 3)",287,1,True,0.0,0,1,1,0.0,True,True,-0.1,0.1,1.0,-0.19999999999999998,0.9197557650655662,1,False,True,0.8395115301311324,1,0.0,True,023,-0.5147064130603108
281,"{'mean': -0.3, 'sd': 0.37}",0.1,2,0.7534201145172119,0,"(0, 2)",288,1,False,0.0,0,1,1,0.0,True,True,-0.1,0.1,1.0,0.0,0.8916767397494578,1,False,True,0.7833534794989157,1,0.0,True,023,-0.2831322857567093
282,"{'mean': -0.3, 'sd': 0.37}",0.5,2,1.32511305809021,0,"(1, 2)",289,1,True,0.0,0,1,1,0.0,True,True,-0.5,0.5,1.0,0.4,0.9818783439482658,1,False,True,0.9637566878965316,1,0.0,True,023,0.2814977826585919
283,"{'mean': -0.3, 'sd': 0.37}",-0.3,2,0.6282501220703125,0,"(0, 2)",290,1,True,0.0,0,1,1,0.0,True,True,0.3,0.3,-1.0,-0.8,0.6477796856377874,1,False,True,0.29555937127557486,0,1.0,False,023,-0.46481690825632543
284,"{'mean': -0.3, 'sd': 0.37}",-0.1,2,0.9556500911712646,0,"(0, 3)",291,1,True,0.0,0,0,1,0.0,False,False,0.1,0.1,-1.0,0.19999999999999998,0.4947222593554387,0,True,False,0.010555481289122648,0,0.0,False,023,-0.04536344634917543
285,"{'mean': 0.3, 'sd': 0.37}",-0.1,2,0.6887390613555908,1,"(0, 2)",292,0,True,1.0,0,1,1,0.0,False,True,0.1,0.1,-1.0,0.0,0.37237023080586484,0,False,False,0.2552595383882703,0,0.0,False,023,-0.3728928005204912
286,"{'mean': -0.3, 'sd': 0.37}",0.1,2,1.3259799480438232,0,"(1, 2)",293,1,True,1.0,0,1,1,0.0,True,True,-0.1,0.1,1.0,0.2,0.5137539275317959,1,True,True,0.02750785506359188,1,1.0,True,023,0.2821517695104336
287,"{'mean': 0.3, 'sd': 0.37}",0.1,2,0.6738009452819824,1,"(1, 2)",295,0,True,1.0,0,1,1,0.0,False,True,-0.1,0.1,1.0,0.0,0.6260118526707089,1,False,True,0.2520237053414178,1,0.0,True,023,-0.39482054509885145
288,"{'mean': 0.3, 'sd': 0.37}",-0.3,2,0.8319201469421387,1,"(1, 2)",296,0,True,0.0,0,1,1,0.0,False,True,0.3,0.3,-1.0,-0.4,0.26097372439767735,0,True,False,0.4780525512046453,0,1.0,False,023,-0.18401882000004421
289,"{'mean': 0.3, 'sd': 0.37}",-0.1,0,0.7561380863189697,1,"(0, 2)",299,0,False,0.0,1,0,0,1.0,True,True,0.1,0.1,-1.0,0.19999999999999998,0.21173810421705525,0,False,True,0.5765237915658895,0,0.0,True,023,-0.2795312656207185
290,"{'mean': 0.3, 'sd': 0.37}",-0.3,1,0.5650510787963867,1,"(1, 3)",300,0,False,0.0,1,0,0,0.0,True,True,0.3,0.3,-1.0,-0.19999999999999998,0.0791638728134514,0,False,True,0.8416722543730972,0,0.0,True,023,-0.5708391469726203
291,"{'mean': 0.3, 'sd': 0.37}",-0.5,1,0.6062171459197998,1,"(1, 2)",301,0,True,0.0,1,0,0,0.0,True,True,0.5,0.5,-1.0,-0.2,0.017786319932040152,0,False,True,0.9644273601359197,0,0.0,True,023,-0.5005170304961372
292,"{'mean': 0.3, 'sd': 0.37}",-0.1,1,0.8525190353393555,1,"(1, 3)",302,0,True,0.0,1,0,0,0.0,True,True,0.1,0.1,-1.0,0.4,0.07119322190937653,0,False,True,0.8576135561812469,0,0.0,True,023,-0.15955974122993138
293,"{'mean': 0.3, 'sd': 0.37}",0.1,0,0.4529600143432617,1,"(0, 2)",303,0,False,0.0,1,0,0,0.0,True,True,-0.1,0.1,1.0,0.2,0.22786838618077623,0,False,True,0.5442632276384476,1,1.0,False,023,-0.7919514259529226
294,"{'mean': 0.3, 'sd': 0.37}",-0.5,0,1.3636021614074707,1,"(0, 3)",304,0,True,0.0,1,0,0,0.0,True,True,0.5,0.5,-1.0,-0.6,0.03538899656731266,0,False,True,0.9292220068653747,0,1.0,True,023,0.3101298463547686
295,"{'mean': 0.3, 'sd': 0.37}",-0.7,0,0.4557671546936035,1,"(0, 3)",305,0,True,0.0,1,0,0,0.0,True,True,0.7,0.7,-1.0,-0.19999999999999996,0.005574643892251859,0,False,True,0.9888507122154963,0,0.0,True,023,-0.7857732255533585
296,"{'mean': 0.3, 'sd': 0.37}",-0.5,0,0.4254319667816162,1,"(0, 2)",306,0,True,0.0,1,0,0,0.0,True,True,0.5,0.5,-1.0,0.19999999999999996,0.010629838981295667,0,False,True,0.9787403220374087,0,0.0,True,023,-0.8546502338074418
297,"{'mean': 0.3, 'sd': 0.37}",0.3,0,0.6273860931396484,1,"(0, 3)",307,0,True,0.0,1,0,0,0.0,True,True,-0.3,0.3,1.0,0.8,0.34401810624177903,0,False,True,0.31196378751644194,1,1.0,False,023,-0.46619314933088696
298,"{'mean': 0.3, 'sd': 0.37}",-0.3,1,0.6659221649169922,1,"(1, 2)",308,0,False,0.0,1,0,0,0.0,True,True,0.3,0.3,-1.0,-0.6,0.12309673992344124,0,False,True,0.7538065201531176,0,1.0,True,023,-0.4065824847655251
299,"{'mean': 0.3, 'sd': 0.37}",-0.5,1,0.8768119812011719,1,"(1, 2)",309,0,True,0.0,1,0,0,0.0,True,True,0.5,0.5,-1.0,-0.2,0.022503826983421838,0,False,True,0.9549923460331563,0,0.0,True,023,-0.13146269819062945
300,"{'mean': 0.3, 'sd': 0.37}",-0.5,1,0.7386000156402588,1,"(1, 2)",310,0,True,0.0,1,0,0,0.0,True,True,0.5,0.5,-1.0,0.0,0.01220026744592578,0,False,True,0.9755994651081484,0,0.0,True,023,-0.30299875538812776
301,"{'mean': 0.3, 'sd': 0.37}",-0.7,1,0.6370489597320557,1,"(1, 2)",311,0,True,0.0,1,0,0,0.0,True,True,0.7,0.7,-1.0,-0.19999999999999996,0.004661076380390948,0,False,True,0.9906778472392181,0,0.0,True,023,-0.4509087665016017
302,"{'mean': 0.3, 'sd': 0.37}",-0.7,0,0.9062650203704834,1,"(0, 3)",312,0,False,0.0,1,0,0,0.0,True,True,0.7,0.7,-1.0,0.0,0.0043718695545534435,0,False,True,0.9912562608908931,0,0.0,True,023,-0.09842349874869037
303,"{'mean': 0.3, 'sd': 0.37}",0.3,0,0.6119179725646973,1,"(0, 2)",313,0,True,0.0,1,0,0,0.0,True,True,-0.3,0.3,1.0,1.0,0.3319933843739874,0,False,True,0.3360132312520252,1,1.0,False,023,-0.4911570372099002
304,"{'mean': 0.3, 'sd': 0.37}",0.3,0,0.9181900024414062,1,"(0, 2)",314,0,True,0.0,1,0,0,0.0,True,True,-0.3,0.3,1.0,0.0,0.7157156791018614,1,True,False,0.4314313582037228,1,0.0,False,023,-0.08535093544083582
305,"{'mean': 0.3, 'sd': 0.37}",-0.9,0,0.5905659198760986,1,"(0, 3)",315,0,True,0.0,1,0,0,0.0,True,True,0.9,0.9,-1.0,-1.2,0.03264447622049152,0,True,True,0.934711047559017,0,1.0,True,023,-0.5266740155768577
306,"{'mean': 0.3, 'sd': 0.37}",-0.7,0,0.4752171039581299,1,"(0, 2)",316,0,True,0.0,1,0,0,0.0,True,True,0.7,0.7,-1.0,0.20000000000000007,0.005464578592103558,0,False,True,0.9890708428157928,0,0.0,True,023,-0.743983518403558
307,"{'mean': 0.3, 'sd': 0.37}",-0.5,0,0.5207729339599609,1,"(0, 3)",317,0,True,0.0,1,0,0,0.0,True,True,0.5,0.5,-1.0,0.19999999999999996,0.010619768473199356,0,False,True,0.9787604630536013,0,0.0,True,023,-0.652441159561234
308,"{'mean': 0.3, 'sd': 0.37}",-0.3,1,0.5736649036407471,1,"(1, 3)",318,0,False,0.0,1,0,0,0.0,True,True,0.3,0.3,-1.0,0.2,0.027286528884516912,0,False,True,0.9454269422309661,0,0.0,True,023,-0.5557098447018602
309,"{'mean': 0.3, 'sd': 0.37}",-0.3,1,0.8435511589050293,1,"(1, 2)",319,0,True,0.0,1,0,0,0.0,True,True,0.3,0.3,-1.0,0.0,0.0310484215464121,0,False,True,0.9379031569071759,0,0.0,True,023,-0.17013472808837354
310,"{'mean': 0.3, 'sd': 0.37}",-0.1,1,0.9513847827911377,1,"(1, 3)",320,0,True,0.0,1,0,0,0.0,True,True,0.1,0.1,-1.0,0.19999999999999998,0.0782676134997086,0,False,True,0.8434647730005829,0,0.0,True,023,-0.04983668965555544
311,"{'mean': 0.3, 'sd': 0.37}",0.1,1,0.4902009963989258,1,"(1, 2)",321,0,True,0.0,1,0,0,0.0,True,True,-0.1,0.1,1.0,0.2,0.2354533477021104,0,False,True,0.5290933045957792,1,1.0,False,023,-0.7129397752526432
312,"{'mean': -0.3, 'sd': 0.37}",0.1,1,0.6077859401702881,0,"(1, 3)",322,1,True,1.0,1,0,0,0.0,False,True,-0.1,0.1,1.0,0.0,0.39258147472106875,0,False,True,0.2148370505578625,1,0.0,False,023,-0.4979325310962405
313,"{'mean': -0.3, 'sd': 0.37}",0.7,3,1.0498590469360352,0,"(0, 3)",324,1,False,0.0,0,1,1,1.0,True,True,-0.7,0.7,1.0,0.6,0.9619127522544867,1,True,True,0.9238255045089734,1,0.0,True,023,0.048655914145000874
314,"{'mean': -0.3, 'sd': 0.37}",0.1,2,0.9489209651947021,0,"(1, 2)",325,1,False,0.0,0,1,1,0.0,True,True,-0.1,0.1,1.0,-0.6,0.9153427198748822,1,False,True,0.8306854397497645,1,0.0,True,023,-0.05242976603772733
315,"{'mean': -0.3, 'sd': 0.37}",0.3,2,0.8052000999450684,0,"(0, 2)",326,1,True,0.0,0,1,1,0.0,True,True,-0.3,0.3,1.0,0.19999999999999998,0.9563958838407929,1,False,True,0.9127917676815858,1,0.0,True,023,-0.2166644610919823
316,"{'mean': -0.3, 'sd': 0.37}",-0.1,3,0.6196141242980957,0,"(0, 3)",327,1,False,0.0,0,1,1,0.0,True,True,0.1,0.1,-1.0,-0.4,0.7966943858784356,1,False,True,0.5933887717568711,0,1.0,False,023,-0.4786583748662947
317,"{'mean': 0.3, 'sd': 0.37}",-0.3,2,1.1394340991973877,1,"(0, 2)",328,0,False,1.0,0,1,1,0.0,False,True,0.3,0.3,-1.0,-0.19999999999999998,0.39788182328493354,0,True,False,0.2042363534301329,0,0.0,False,023,0.13053173494422568
318,"{'mean': 0.3, 'sd': 0.37}",0.1,2,0.6821298599243164,1,"(0, 3)",329,0,True,0.0,0,0,1,0.0,False,False,-0.1,0.1,1.0,0.4,0.5349161074023971,1,True,True,0.06983221480479429,1,1.0,True,023,-0.3825352288182314
319,"{'mean': 0.3, 'sd': 0.37}",-0.7,3,1.038888931274414,1,"(1, 3)",330,0,False,0.0,0,1,1,0.0,False,True,0.7,0.7,-1.0,-0.7999999999999999,0.04138843662942156,0,True,False,0.9172231267411569,0,1.0,False,023,0.038151806763276654
320,"{'mean': -0.3, 'sd': 0.37}",1.0,2,1.0942609310150146,0,"(1, 2)",331,1,False,1.0,0,1,1,0.0,True,True,-1.0,1.0,1.0,1.7,0.965941750589998,1,True,True,0.931883501179996,1,1.0,True,023,0.09007918654321292
321,"{'mean': -0.3, 'sd': 0.37}",0.3,2,0.6167891025543213,0,"(1, 2)",332,1,True,0.0,0,1,1,0.0,True,True,-0.3,0.3,1.0,-0.7,0.9681887368099542,1,False,True,0.9363774736199084,1,0.0,True,023,-0.4832281246025801
322,"{'mean': -0.3, 'sd': 0.37}",0.1,3,0.9149861335754395,0,"(1, 3)",333,1,False,0.0,0,1,1,0.0,True,True,-0.1,0.1,1.0,-0.19999999999999998,0.918811926999089,1,False,True,0.837623853998178,1,0.0,True,023,-0.08884636838380854
323,"{'mean': -0.3, 'sd': 0.37}",0.9,3,0.7433669567108154,0,"(1, 3)",334,1,True,0.0,0,1,1,0.0,True,True,-0.9,0.9,1.0,0.8,0.9981746764979552,1,False,True,0.9963493529959104,1,0.0,True,023,-0.29656547097582514
324,"{'mean': -0.3, 'sd': 0.37}",0.1,3,0.6223599910736084,0,"(1, 3)",335,1,True,0.0,0,1,1,0.0,True,True,-0.1,0.1,1.0,-0.8,0.9351990206195483,1,False,True,0.8703980412390966,1,0.0,True,023,-0.47423658987818573
325,"{'mean': -0.3, 'sd': 0.37}",-0.1,2,0.8592278957366943,0,"(0, 3)",336,1,False,0.0,0,0,1,0.0,False,False,0.1,0.1,-1.0,-0.2,0.7730906142894843,1,False,True,0.5461812285789687,0,1.0,False,023,-0.1517210886494907
326,"{'mean': -0.3, 'sd': 0.37}",-0.1,2,0.7714259624481201,0,"(0, 3)",337,1,True,0.0,0,0,1,0.0,False,False,0.1,0.1,-1.0,0.0,0.6073199409047082,1,False,True,0.2146398818094164,0,0.0,False,023,-0.2595145775024998
327,"{'mean': -0.3, 'sd': 0.37}",0.1,3,0.7911229133605957,0,"(1, 3)",338,1,False,0.0,0,1,1,0.0,True,True,-0.1,0.1,1.0,0.2,0.6940684634481955,1,False,True,0.388136926896391,1,1.0,True,023,-0.2343019334498291
328,"{'mean': 0.3, 'sd': 0.37}",0.1,2,0.8483390808105469,1,"(0, 2)",339,0,False,1.0,0,1,1,0.0,False,True,-0.1,0.1,1.0,0.0,0.7532246826073348,1,False,True,0.5064493652146695,1,0.0,True,023,-0.16447486366631833
329,"{'mean': 0.3, 'sd': 0.37}",-0.5,3,1.0250089168548584,1,"(0, 3)",340,0,False,0.0,0,1,1,0.0,False,True,0.5,0.5,-1.0,-0.6,0.18175157705908662,0,True,False,0.6364968458818268,0,1.0,False,023,0.024701311923125756
330,"{'mean': 0.3, 'sd': 0.37}",-0.1,1,1.353745937347412,1,"(1, 3)",342,0,False,0.0,1,0,0,1.0,True,True,0.1,0.1,-1.0,0.4,0.16330577609434951,0,False,True,0.673388447811301,0,0.0,True,023,0.3028755182924842
331,"{'mean': 0.3, 'sd': 0.37}",-0.1,0,0.6562399864196777,1,"(0, 3)",343,0,False,0.0,1,0,0,0.0,True,True,0.1,0.1,-1.0,0.0,0.15241489174135012,0,False,True,0.6951702165172997,0,0.0,True,023,-0.42122872398178257
332,"{'mean': 0.3, 'sd': 0.37}",0.1,0,0.7324368953704834,1,"(0, 2)",344,0,True,0.0,1,0,0,0.0,True,True,-0.1,0.1,1.0,0.2,0.3121982646771388,0,False,True,0.3756034706457224,1,1.0,False,023,-0.3113780914668793
333,"{'mean': -0.3, 'sd': 0.37}",0.7,1,0.7191290855407715,0,"(1, 2)",345,1,False,1.0,1,0,0,0.0,False,True,-0.7,0.7,1.0,0.6,0.9504954176023745,1,True,False,0.9009908352047491,1,0.0,False,023,-0.32971440254831835
334,"{'mean': -0.3, 'sd': 0.37}",0.9,1,0.4947671890258789,0,"(1, 3)",346,1,True,0.0,1,0,0,0.0,False,True,-0.9,0.9,1.0,0.20000000000000007,0.9985035674019792,1,False,False,0.9970071348039584,1,0.0,False,023,-0.7036679522512802
335,"{'mean': -0.3, 'sd': 0.37}",0.9,1,0.6196269989013672,0,"(1, 3)",347,1,True,0.0,1,0,0,0.0,False,True,-0.9,0.9,1.0,0.0,0.9989668579322367,1,False,False,0.9979337158644734,1,0.0,False,023,-0.47863759666093836
336,"{'mean': 0.3, 'sd': 0.37}",-0.1,0,0.8944671154022217,1,"(0, 2)",348,0,False,1.0,1,0,0,0.0,True,True,0.1,0.1,-1.0,-1.0,0.8455971172409983,1,False,False,0.6911942344819966,0,1.0,True,023,-0.11152713981454052
337,"{'mean': 0.3, 'sd': 0.37}",0.1,1,0.7769551277160645,1,"(1, 2)",349,0,False,0.0,1,0,0,0.0,True,True,-0.1,0.1,1.0,0.2,0.8484518505249136,1,False,False,0.6969037010498271,1,1.0,False,023,-0.2523726809693005
338,"{'mean': 0.3, 'sd': 0.37}",-0.5,0,0.7368259429931641,1,"(1, 3)",350,0,False,0.0,0,0,0,0.0,False,False,0.5,0.5,-1.0,-0.6,0.24915852509235792,0,True,True,0.5016829498152842,0,1.0,True,023,-0.30540358430102404
339,"{'mean': 0.3, 'sd': 0.37}",-0.7,1,0.6548089981079102,1,"(1, 2)",351,0,False,0.0,1,0,0,0.0,True,True,0.7,0.7,-1.0,-0.19999999999999996,0.016157811822221556,0,False,True,0.9676843763555569,0,0.0,True,023,-0.42341169181428706
340,"{'mean': 0.3, 'sd': 0.37}",-0.5,1,0.6305558681488037,1,"(1, 3)",352,0,True,0.0,1,0,0,0.0,True,True,0.5,0.5,-1.0,0.19999999999999996,0.011606537656219223,0,False,True,0.9767869246875616,0,0.0,True,023,-0.4611535182262797
341,"{'mean': 0.3, 'sd': 0.37}",-0.5,1,0.5019490718841553,1,"(1, 3)",353,0,True,0.0,1,0,0,0.0,True,True,0.5,0.5,-1.0,0.0,0.01118446615133689,0,False,True,0.9776310676973262,0,0.0,True,023,-0.6892566148668203
342,"{'mean': 0.3, 'sd': 0.37}",0.1,0,0.6069471836090088,1,"(0, 2)",354,0,False,0.0,1,0,0,0.0,True,True,-0.1,0.1,1.0,0.6,0.1615700683344671,0,False,True,0.6768598633310658,1,1.0,False,023,-0.4993135038846801
343,"{'mean': 0.3, 'sd': 0.37}",-0.9,0,0.7193541526794434,1,"(0, 3)",355,0,True,0.0,1,0,0,0.0,True,True,0.9,0.9,-1.0,-1.0,0.004818763421019911,0,False,True,0.9903624731579602,0,1.0,True,023,-0.3294014796938443
344,"{'mean': 0.3, 'sd': 0.37}",-0.9,1,0.84210205078125,1,"(1, 2)",356,0,False,0.0,1,0,0,0.0,True,True,0.9,0.9,-1.0,0.0,0.0018627103635328217,0,False,True,0.9962745792729344,0,0.0,True,023,-0.1718540716312008
345,"{'mean': 0.3, 'sd': 0.37}",-1.0,1,0.5540990829467773,1,"(1, 2)",357,0,True,0.0,1,0,0,0.0,True,True,1.0,1.0,-1.0,-0.09999999999999998,0.001196264829097676,0,False,True,0.9976074703418046,0,0.0,True,023,-0.5904117581421873
346,"{'mean': 0.3, 'sd': 0.37}",0.1,0,0.8314309120178223,1,"(0, 3)",358,0,False,0.0,1,0,0,0.0,True,True,-0.1,0.1,1.0,1.1,0.15018287784267936,0,False,True,0.6996342443146413,1,1.0,False,023,-0.18460707217421873
347,"{'mean': 0.3, 'sd': 0.37}",0.3,0,0.4454340934753418,1,"(0, 3)",359,0,True,0.0,1,0,0,0.0,True,True,-0.3,0.3,1.0,0.19999999999999998,0.5511942570305965,1,True,False,0.10238851406119309,1,0.0,False,023,-0.8087059813421812
348,"{'mean': 0.3, 'sd': 0.37}",-0.1,1,0.5569510459899902,1,"(1, 2)",360,0,False,0.0,1,0,0,0.0,True,True,0.1,0.1,-1.0,-0.4,0.41574506269535316,0,True,True,0.16850987460929368,0,1.0,True,023,-0.5852779316246702
349,"{'mean': 0.3, 'sd': 0.37}",-0.5,0,0.7593269348144531,1,"(0, 2)",361,0,False,0.0,1,0,0,0.0,True,True,0.5,0.5,-1.0,-0.4,0.06658808738718673,0,False,True,0.8668238252256265,0,0.0,True,023,-0.2753228501740748
350,"{'mean': 0.3, 'sd': 0.37}",-0.5,0,1.0416691303253174,1,"(0, 3)",362,0,True,0.0,1,0,0,0.0,True,True,0.5,0.5,-1.0,0.0,0.016500348519616053,0,False,True,0.9669993029607679,0,0.0,True,023,0.04082435962976294
351,"{'mean': 0.3, 'sd': 0.37}",-0.3,0,0.664405107498169,1,"(0, 3)",363,0,True,0.0,1,0,0,0.0,True,True,0.3,0.3,-1.0,0.2,0.028604219518804663,0,False,True,0.9427915609623907,0,0.0,True,023,-0.4088632138881848
352,"{'mean': 0.3, 'sd': 0.37}",-0.5,1,0.5356960296630859,1,"(1, 3)",364,0,False,0.0,1,0,0,0.0,True,True,0.5,0.5,-1.0,-0.2,0.01277682721197894,0,False,True,0.9744463455760421,0,0.0,True,023,-0.6241883876159003
353,"{'mean': 0.3, 'sd': 0.37}",-0.5,0,0.6773490905761719,1,"(0, 2)",365,0,False,0.0,1,0,0,0.0,True,True,0.5,0.5,-1.0,0.0,0.011292699005115547,0,False,True,0.9774146019897689,0,0.0,True,023,-0.3895684955765456
354,"{'mean': 0.3, 'sd': 0.37}",-0.5,1,0.837195873260498,1,"(1, 3)",366,0,False,0.0,1,0,0,0.0,True,True,0.5,0.5,-1.0,0.0,0.01115547589395461,0,False,True,0.9776890482120908,0,0.0,True,023,-0.17769721763828186
355,"{'mean': 0.3, 'sd': 0.37}",-0.5,1,0.8656461238861084,1,"(1, 3)",367,0,True,0.0,1,0,0,0.0,True,True,0.5,0.5,-1.0,0.0,0.011142804776829144,0,False,True,0.9777143904463417,0,0.0,True,023,-0.14427908685885943
356,"{'mean': 0.3, 'sd': 0.37}",0.1,1,0.5486338138580322,1,"(1, 3)",368,0,True,0.0,1,0,0,0.0,True,True,-0.1,0.1,1.0,0.6,0.1615227860839593,0,False,True,0.6769544278320814,1,1.0,False,023,-0.6003240657429637
357,"{'mean': 0.3, 'sd': 0.37}",-0.5,0,0.6391210556030273,1,"(0, 2)",369,0,False,0.0,1,0,0,0.0,True,True,0.5,0.5,-1.0,-0.6,0.026941866770472507,0,False,True,0.946116266459055,0,1.0,True,023,-0.4476613971589645
358,"{'mean': 0.3, 'sd': 0.37}",0.5,0,0.695626974105835,1,"(0, 2)",370,0,True,0.0,1,0,0,0.0,True,True,-0.5,0.5,1.0,1.0,0.6272523758160304,1,True,False,0.2545047516320609,1,1.0,False,023,-0.3629417190683618
359,"{'mean': 0.3, 'sd': 0.37}",-0.1,1,1.1229009628295898,1,"(1, 3)",371,0,False,0.0,1,0,0,0.0,True,True,0.1,0.1,-1.0,-0.6,0.47740305454002374,0,True,True,0.04519389091995252,0,1.0,True,023,0.11591548204508427
360,"{'mean': 0.3, 'sd': 0.37}",0.3,1,0.880079984664917,1,"(1, 2)",372,0,True,0.0,1,0,0,0.0,True,True,-0.3,0.3,1.0,0.4,0.802838787898077,1,True,False,0.6056775757961541,1,1.0,False,023,-0.12774248397560356
361,"{'mean': -0.3, 'sd': 0.37}",-0.1,3,1.1241881847381592,0,"(1, 3)",373,1,False,1.0,0,1,1,1.0,True,True,0.1,0.1,-1.0,-0.4,0.6359218285586529,1,False,True,0.27184365711730574,0,1.0,False,023,0.11706116160191117
362,"{'mean': -0.3, 'sd': 0.37}",-0.1,2,0.6259160041809082,0,"(1, 2)",374,1,False,0.0,0,1,1,0.0,True,True,0.1,0.1,-1.0,0.0,0.48468118026735996,0,True,False,0.030637639465280087,0,0.0,False,023,-0.4685390955095428
363,"{'mean': -0.3, 'sd': 0.37}",0.3,2,0.6031389236450195,0,"(0, 2)",375,1,True,0.0,0,1,1,0.0,True,True,-0.3,0.3,1.0,0.4,0.806517128596082,1,True,True,0.6130342571921641,1,1.0,True,023,-0.5056077213190587
364,"{'mean': 0.3, 'sd': 0.37}",-1.0,3,0.9073328971862793,1,"(1, 3)",376,0,False,1.0,0,1,1,0.0,False,True,1.0,1.0,-1.0,-1.3,0.030743554431428663,0,True,False,0.9385128911371426,0,1.0,False,023,-0.09724586513004645
365,"{'mean': 0.3, 'sd': 0.37}",-0.7,2,1.118124008178711,1,"(1, 2)",377,0,False,0.0,0,1,1,0.0,False,True,0.7,0.7,-1.0,0.30000000000000004,0.00538865484514254,0,False,False,0.9892226903097149,0,0.0,False,023,0.11165228824073123
366,"{'mean': 0.3, 'sd': 0.37}",-1.0,2,0.7546579837799072,1,"(1, 2)",378,0,True,0.0,0,1,1,0.0,False,True,1.0,1.0,-1.0,-0.30000000000000004,0.0012340061286274428,0,False,False,0.9975319877427451,0,0.0,False,023,-0.28149063398535873
367,"{'mean': 0.3, 'sd': 0.37}",0.1,3,1.0877971649169922,1,"(0, 3)",379,0,False,0.0,0,1,1,0.0,False,True,-0.1,0.1,1.0,1.1,0.15022610051757826,0,False,False,0.6995477989648435,1,1.0,True,023,0.08415470174941288
368,"{'mean': -0.3, 'sd': 0.37}",0.5,2,1.222965955734253,0,"(0, 2)",380,1,False,1.0,0,1,1,0.0,True,True,-0.5,0.5,1.0,0.4,0.7757830781634704,1,True,True,0.5515661563269407,1,0.0,True,023,0.2012790196325941
369,"{'mean': -0.3, 'sd': 0.37}",0.1,3,0.8321011066436768,0,"(1, 3)",381,1,False,0.0,0,1,1,0.0,True,True,-0.1,0.1,1.0,-0.4,0.8057855304500641,1,False,True,0.6115710609001281,1,0.0,True,023,-0.18380132313591283
370,"{'mean': -0.3, 'sd': 0.37}",0.1,2,0.6785881519317627,0,"(0, 2)",382,1,False,0.0,0,1,1,0.0,True,True,-0.1,0.1,1.0,0.0,0.8243647704174051,1,False,True,0.6487295408348102,1,0.0,True,023,-0.38774088636037396
371,"{'mean': -0.3, 'sd': 0.37}",0.5,2,0.7917859554290771,0,"(1, 2)",383,1,True,0.0,0,1,1,0.0,True,True,-0.5,0.5,1.0,0.4,0.9751038858367266,1,False,True,0.9502077716734532,1,0.0,True,023,-0.23346418199068558
372,"{'mean': -0.3, 'sd': 0.37}",0.5,3,0.8003039360046387,0,"(0, 3)",384,1,False,0.0,0,1,1,0.0,True,True,-0.5,0.5,1.0,0.0,0.9892265183967479,1,False,True,0.9784530367934958,1,0.0,True,023,-0.22276370345974292
373,"{'mean': 0.3, 'sd': 0.37}",-0.7,3,0.7836341857910156,1,"(1, 3)",385,0,True,1.0,0,1,1,0.0,False,True,0.7,0.7,-1.0,-1.2,0.24346354817908686,0,True,False,0.5130729036418262,0,1.0,False,023,-0.24381296727962698
374,"{'mean': 0.3, 'sd': 0.37}",0.1,2,0.717689037322998,1,"(0, 2)",386,0,False,0.0,0,1,1,0.0,False,True,-0.1,0.1,1.0,0.7999999999999999,0.40004571111112774,0,False,False,0.1999085777777445,1,1.0,True,023,-0.3317188993973423
375,"{'mean': 0.3, 'sd': 0.37}",0.3,3,0.6666989326477051,1,"(1, 3)",387,0,False,0.0,0,1,1,0.0,False,True,-0.3,0.3,1.0,0.19999999999999998,0.7600293141855425,1,True,True,0.5200586283710851,1,0.0,True,023,-0.4054167103077992
376,"{'mean': 0.3, 'sd': 0.37}",0.1,2,1.0098779201507568,1,"(1, 2)",388,0,False,0.0,0,1,1,0.0,False,True,-0.1,0.1,1.0,-0.19999999999999998,0.7958787071032497,1,False,True,0.5917574142064994,1,0.0,True,023,0.00982945240979889
377,"{'mean': 0.3, 'sd': 0.37}",-0.1,2,0.5960609912872314,1,"(1, 2)",389,0,True,0.0,0,1,1,0.0,False,True,0.1,0.1,-1.0,-0.2,0.6291612891162318,1,False,True,0.25832257823246363,0,1.0,False,023,-0.5174122827780427
378,"{'mean': 0.3, 'sd': 0.37}",-0.9,3,0.7154200077056885,1,"(0, 3)",390,0,False,0.0,0,1,1,0.0,False,True,0.9,0.9,-1.0,-0.8,0.024345315757964184,0,True,False,0.9513093684840717,0,0.0,False,023,-0.33488548538909785
379,"{'mean': 0.3, 'sd': 0.37}",-0.9,2,0.7667288780212402,1,"(0, 2)",391,0,False,0.0,0,1,1,0.0,False,True,0.9,0.9,-1.0,0.0,0.002185786357434867,0,False,False,0.9956284272851302,0,0.0,False,023,-0.26562202378000704
380,"{'mean': 0.3, 'sd': 0.37}",-0.5,3,0.634227991104126,1,"(1, 3)",392,0,False,0.0,0,1,1,0.0,False,True,0.5,0.5,-1.0,0.4,0.010320586832111072,0,False,False,0.9793588263357779,0,0.0,False,023,-0.45534678176840526
381,"{'mean': 0.3, 'sd': 0.37}",-0.1,3,0.45415210723876953,1,"(1, 2)",393,0,True,0.0,0,0,1,0.0,False,False,0.1,0.1,-1.0,0.4,0.06723823525478156,0,False,False,0.8655235294904369,0,0.0,False,023,-0.7893230990826191
382,"{'mean': 0.3, 'sd': 0.37}",-0.1,3,0.5084278583526611,1,"(1, 3)",394,0,True,0.0,0,1,1,0.0,False,True,0.1,0.1,-1.0,0.0,0.09789593305343598,0,False,False,0.8042081338931281,0,0.0,False,023,-0.6764319450377585
383,"{'mean': 0.3, 'sd': 0.37}",-0.3,2,1.082885980606079,1,"(0, 3)",395,0,False,0.0,0,0,1,0.0,False,False,0.3,0.3,-1.0,-0.19999999999999998,0.04797548049839518,0,False,False,0.9040490390032097,0,0.0,False,023,0.07962968141092758
384,"{'mean': 0.3, 'sd': 0.37}",0.1,2,0.8641700744628906,1,"(0, 2)",396,0,True,0.0,0,1,1,0.0,False,True,-0.1,0.1,1.0,0.4,0.20263840687294066,0,False,False,0.5947231862541187,1,1.0,True,023,-0.14598568410644314
385,"{'mean': 0.3, 'sd': 0.37}",-0.5,3,0.8190100193023682,1,"(1, 2)",397,0,False,0.0,0,0,1,0.0,False,False,0.5,0.5,-1.0,-0.6,0.032050757032337084,0,False,False,0.9358984859353259,0,1.0,False,023,-0.19965896162347216
386,"{'mean': 0.3, 'sd': 0.37}",-0.1,3,0.5487518310546875,1,"(1, 3)",398,0,True,0.0,0,1,1,0.0,False,True,0.1,0.1,-1.0,0.4,0.07880484340906296,0,False,False,0.8423903131818741,0,0.0,False,023,-0.600108977824405
387,"{'mean': 0.3, 'sd': 0.37}",0.1,3,0.7612509727478027,1,"(0, 3)",399,0,True,0.0,0,1,1,0.0,False,True,-0.1,0.1,1.0,0.2,0.23602741998319665,0,False,False,0.5279451600336067,1,1.0,True,023,-0.2727921821292208
388,"{'mean': 0.3, 'sd': 0.37}",-1.0,3,0.7646768093109131,1,"(0, 3)",400,0,True,0.0,0,1,1,0.0,False,True,1.0,1.0,-1.0,-1.1,0.004344991103500102,0,False,False,0.9913100177929998,0,1.0,False,023,-0.26830200591082576
389,"{'mean': 0.3, 'sd': 0.37}",-0.3,2,0.6261739730834961,1,"(0, 2)",402,0,False,0.0,0,1,1,0.0,False,True,0.3,0.3,-1.0,0.7,0.025891909470438037,0,False,False,0.948216181059124,0,0.0,False,023,-0.46812703421854573
390,"{'mean': 0.3, 'sd': 0.37}",-1.0,3,0.8512859344482422,1,"(1, 3)",403,0,False,0.0,0,1,1,0.0,False,True,1.0,1.0,-1.0,-0.7,0.0014582205480127468,0,False,False,0.9970835589039745,0,0.0,False,023,-0.16100720866696147
391,"{'mean': 0.3, 'sd': 0.37}",0.3,2,0.896895170211792,1,"(1, 2)",404,0,False,0.0,0,1,1,0.0,False,True,-0.3,0.3,1.0,1.3,0.32629053312533457,0,False,False,0.34741893374933086,1,1.0,True,023,-0.10881629085228402
392,"{'mean': 0.3, 'sd': 0.37}",-0.5,3,1.3968350887298584,1,"(0, 3)",405,0,False,0.0,0,1,1,0.0,False,True,0.5,0.5,-1.0,-0.8,0.05015241314219244,0,False,False,0.8996951737156151,0,1.0,False,023,0.3342090265851146
393,"{'mean': 0.3, 'sd': 0.37}",-0.1,3,0.5266408920288086,1,"(0, 3)",406,0,True,0.0,0,1,1,0.0,False,True,0.1,0.1,-1.0,0.4,0.08856940484976306,0,False,False,0.8228611903004739,0,0.0,False,023,-0.6412363820126018
394,"{'mean': 0.3, 'sd': 0.37}",-0.1,3,0.6921091079711914,1,"(1, 2)",407,0,True,0.0,0,0,1,0.0,False,False,0.1,0.1,-1.0,0.0,0.10969258455823641,0,False,False,0.7806148308835272,0,0.0,False,023,-0.3680116653145507
395,"{'mean': 0.3, 'sd': 0.37}",-0.3,2,0.5503199100494385,1,"(1, 2)",408,0,False,0.0,0,1,1,0.0,False,True,0.3,0.3,-1.0,-0.19999999999999998,0.050970680499849444,0,False,False,0.8980586390003011,0,0.0,False,023,-0.5972555152157683
396,"{'mean': 0.3, 'sd': 0.37}",-0.7,2,0.5152561664581299,1,"(1, 2)",409,0,True,0.0,0,1,1,0.0,False,True,0.7,0.7,-1.0,-0.39999999999999997,0.006209737040105206,0,False,False,0.9875805259197896,0,0.0,False,023,-0.6630910913877347
397,"{'mean': 0.3, 'sd': 0.37}",0.1,3,0.7815330028533936,1,"(1, 3)",410,0,False,0.0,0,1,1,0.0,False,True,-0.1,0.1,1.0,0.7999999999999999,0.1559114903335377,0,False,False,0.6881770193329246,1,1.0,True,023,-0.2464978998735736
398,"{'mean': 0.3, 'sd': 0.37}",-0.5,2,0.706265926361084,1,"(0, 3)",411,0,False,0.0,0,0,1,0.0,False,False,0.5,0.5,-1.0,-0.6,0.0262743707115289,0,False,False,0.9474512585769422,0,1.0,False,023,-0.34776344617598237
399,"{'mean': 0.3, 'sd': 0.37}",0.3,2,0.657426118850708,1,"(0, 2)",412,0,True,0.0,0,1,1,0.0,False,True,-0.3,0.3,1.0,0.8,0.3728064253315977,0,False,False,0.2543871493368046,1,1.0,True,023,-0.41942288801081956
400,"{'mean': 0.3, 'sd': 0.37}",0.3,3,0.7138028144836426,1,"(0, 3)",413,0,False,0.0,0,1,1,0.0,False,True,-0.3,0.3,1.0,0.0,0.7431299171862531,1,True,True,0.4862598343725062,1,0.0,True,023,-0.33714852497553927
401,"{'mean': 0.3, 'sd': 0.37}",-0.5,2,0.7719738483428955,1,"(1, 2)",414,0,False,0.0,0,1,1,0.0,False,True,0.5,0.5,-1.0,-0.8,0.17608716107806502,0,True,False,0.64782567784387,0,1.0,False,023,-0.2588046047346418
402,"{'mean': 0.3, 'sd': 0.37}",-0.5,3,0.77040696144104,1,"(1, 3)",415,0,False,0.0,0,1,1,0.0,False,True,0.5,0.5,-1.0,0.0,0.028706895219522,0,False,False,0.942586209560956,0,0.0,False,023,-0.26083638240062523
403,"{'mean': 0.3, 'sd': 0.37}",-0.1,2,0.9888560771942139,1,"(1, 2)",416,0,False,0.0,0,1,1,0.0,False,True,0.1,0.1,-1.0,0.4,0.0770140108261597,0,False,False,0.8459719783476806,0,0.0,False,023,-0.011206481514007436
404,"{'mean': 0.3, 'sd': 0.37}",-0.5,2,0.9204850196838379,1,"(1, 2)",417,0,True,0.0,0,1,1,0.0,False,True,0.5,0.5,-1.0,-0.4,0.017564527919028464,0,False,False,0.9648709441619431,0,0.0,False,023,-0.0828545525491556
405,"{'mean': 0.3, 'sd': 0.37}",-0.3,3,0.750709056854248,1,"(0, 3)",418,0,False,0.0,0,1,1,0.0,False,True,0.3,0.3,-1.0,0.2,0.028843789992956,0,False,False,0.942312420014088,0,0.0,False,023,-0.28673710993053475
406,"{'mean': 0.3, 'sd': 0.37}",0.3,2,1.0088880062103271,1,"(0, 2)",419,0,False,0.0,0,1,1,0.0,False,True,-0.3,0.3,1.0,0.6,0.3773689019887911,0,False,False,0.24526219602241783,1,1.0,True,023,0.008848740374941703
407,"{'mean': 0.3, 'sd': 0.37}",-0.7,2,0.708427906036377,1,"(1, 2)",420,0,True,0.0,0,1,1,0.0,False,True,0.7,0.7,-1.0,-1.0,0.025235062920472336,0,False,False,0.9495298741590553,0,1.0,False,023,-0.3447069807996875
408,"{'mean': 0.3, 'sd': 0.37}",-0.5,3,1.4643900394439697,1,"(0, 3)",421,0,False,0.0,0,1,1,0.0,False,True,0.5,0.5,-1.0,0.19999999999999996,0.012457692395178485,0,False,False,0.9750846152096431,0,0.0,False,023,0.3814388004407364
409,"{'mean': 0.3, 'sd': 0.37}",-0.1,3,0.6150259971618652,1,"(1, 3)",422,0,True,0.0,0,1,1,0.0,False,True,0.1,0.1,-1.0,0.4,0.06836836334120588,0,False,False,0.8632632733175882,0,0.0,False,023,-0.4860907402611359
410,"{'mean': 0.3, 'sd': 0.37}",-0.9,3,1.1534969806671143,1,"(1, 3)",423,0,True,0.0,0,1,1,0.0,False,True,0.9,0.9,-1.0,-0.8,0.0029572311799913424,0,False,False,0.9940855376400173,0,0.0,False,023,0.14279818108781578
411,"{'mean': 0.3, 'sd': 0.37}",-0.1,3,0.9572019577026367,1,"(1, 3)",424,0,True,0.0,0,1,1,0.0,False,True,0.1,0.1,-1.0,0.8,0.06335667379955132,0,False,False,0.8732866524008973,0,0.0,False,023,-0.04374087771115037
412,"{'mean': 0.3, 'sd': 0.37}",-0.1,3,0.7027158737182617,1,"(1, 3)",425,0,True,0.0,0,1,1,0.0,False,True,0.1,0.1,-1.0,0.0,0.09576765845279482,0,False,False,0.8084646830944103,0,0.0,False,023,-0.3528026314301016
413,"{'mean': 0.3, 'sd': 0.37}",0.5,0,1.1887109279632568,1,"(0, 3)",426,0,False,0.0,1,0,0,1.0,True,True,-0.5,0.5,1.0,0.6,0.7239328260497367,1,True,False,0.4478656520994735,1,1.0,False,023,0.17286946616758256
414,"{'mean': 0.3, 'sd': 0.37}",-0.9,1,1.4389419555664062,1,"(1, 3)",427,0,False,0.0,1,0,0,0.0,True,True,0.9,0.9,-1.0,-1.4,0.0336104318418052,0,True,True,0.9327791363163896,0,1.0,True,023,0.36390809044568656
415,"{'mean': 0.3, 'sd': 0.37}",-0.3,0,0.6580078601837158,1,"(0, 3)",428,0,False,0.0,1,0,0,0.0,True,True,0.3,0.3,-1.0,0.6000000000000001,0.03249813147991719,0,False,True,0.9350037370401656,0,0.0,True,023,-0.41853840216021043
416,"{'mean': -0.3, 'sd': 0.37}",0.5,0,0.8053748607635498,0,"(0, 3)",429,1,True,1.0,1,0,0,0.0,False,True,-0.5,0.5,1.0,0.8,0.6369215004972623,1,True,False,0.2738430009945245,1,1.0,False,023,-0.21644744440734387
417,"{'mean': -0.3, 'sd': 0.37}",0.9,0,0.7972290515899658,0,"(0, 3)",430,1,True,0.0,1,0,0,0.0,False,True,-0.9,0.9,1.0,0.4,0.9940587309907,1,False,False,0.9881174619813999,1,0.0,False,023,-0.2266132492729139
418,"{'mean': -0.3, 'sd': 0.37}",0.1,1,1.472057819366455,0,"(1, 2)",431,1,False,0.0,1,0,0,0.0,False,True,-0.1,0.1,1.0,-0.8,0.9329679484016062,1,False,False,0.8659358968032125,1,0.0,False,023,0.38666129899617363
419,"{'mean': -0.3, 'sd': 0.37}",0.5,1,0.7981901168823242,0,"(1, 3)",432,1,True,0.0,1,0,0,0.0,False,True,-0.5,0.5,1.0,0.4,0.9856467277630683,1,False,False,0.9712934555261366,1,0.0,False,023,-0.22540846820020394
420,"{'mean': 0.3, 'sd': 0.37}",-0.5,0,0.6239609718322754,1,"(0, 3)",433,0,False,1.0,1,0,0,0.0,True,True,0.5,0.5,-1.0,-1.0,0.43126280717761145,0,True,True,0.1374743856447771,0,1.0,True,023,-0.47166745770932256
421,"{'mean': -0.3, 'sd': 0.37}",0.7,1,1.1688849925994873,0,"(1, 2)",434,1,False,1.0,1,0,0,0.0,False,True,-0.7,0.7,1.0,1.2,0.9662973994435298,1,True,False,0.9325947988870595,1,1.0,False,023,0.15605029664035405
422,"{'mean': -0.3, 'sd': 0.37}",0.1,0,0.5680370330810547,0,"(0, 3)",435,1,False,0.0,1,0,0,0.0,False,True,-0.1,0.1,1.0,-0.6,0.9177678942934192,1,False,False,0.8355357885868384,1,0.0,False,023,-0.5655686632999899
423,"{'mean': -0.3, 'sd': 0.37}",-0.3,0,0.5312290191650391,0,"(0, 2)",436,1,True,0.0,1,0,0,0.0,False,True,0.3,0.3,-1.0,-0.4,0.5433794320495197,1,False,False,0.08675886409903932,0,1.0,True,023,-0.6325620528597898
424,"{'mean': -0.3, 'sd': 0.37}",0.7,1,0.6457300186157227,0,"(1, 3)",437,1,False,0.0,1,0,0,0.0,False,True,-0.7,0.7,1.0,1.0,0.9762750438500976,1,False,False,0.9525500877001951,1,1.0,False,023,-0.43737379039515323
425,"{'mean': -0.3, 'sd': 0.37}",0.5,0,0.6255109310150146,0,"(0, 3)",438,1,False,0.0,1,0,0,0.0,False,True,-0.5,0.5,1.0,-0.19999999999999996,0.9893224527119149,1,False,False,0.9786449054238298,1,0.0,False,023,-0.4691864735843599
426,"{'mean': -0.3, 'sd': 0.37}",0.3,1,0.5862541198730469,0,"(1, 3)",439,1,False,0.0,1,0,0,0.0,False,True,-0.3,0.3,1.0,-0.2,0.973365637199213,1,False,False,0.946731274398426,1,0.0,False,023,-0.5340019317443417
427,"{'mean': -0.3, 'sd': 0.37}",0.5,1,1.0658910274505615,0,"(1, 2)",440,1,True,0.0,1,0,0,0.0,False,True,-0.5,0.5,1.0,0.2,0.9890837878153131,1,False,False,0.9781675756306263,1,0.0,False,023,0.06381109486212064
428,"{'mean': -0.3, 'sd': 0.37}",0.3,0,0.7353928089141846,0,"(0, 2)",441,1,False,0.0,1,0,0,0.0,False,True,-0.3,0.3,1.0,-0.2,0.9733136188082843,1,False,False,0.9466272376165685,1,0.0,False,023,-0.3073504886313845
429,"{'mean': -0.3, 'sd': 0.37}",0.5,0,0.5933699607849121,0,"(0, 3)",442,1,True,0.0,1,0,0,0.0,False,True,-0.5,0.5,1.0,0.2,0.9890795101537451,1,False,False,0.9781590203074901,1,0.0,False,023,-0.5219371946094722
430,"{'mean': -0.3, 'sd': 0.37}",0.5,0,0.5875818729400635,0,"(0, 2)",443,1,True,0.0,1,0,0,0.0,False,True,-0.5,0.5,1.0,0.0,0.9903593179605534,1,False,False,0.9807186359211069,1,0.0,False,023,-0.5317396844774216
431,"{'mean': -0.3, 'sd': 0.37}",0.5,1,0.5643608570098877,0,"(1, 2)",444,1,False,0.0,1,0,0,0.0,False,True,-0.5,0.5,1.0,0.0,0.9904617590451283,1,False,False,0.9809235180902567,1,0.0,False,023,-0.572061414686544
432,"{'mean': -0.3, 'sd': 0.37}",-0.3,0,0.7003610134124756,0,"(0, 2)",445,1,False,0.0,1,0,0,0.0,False,True,0.3,0.3,-1.0,-0.8,0.6637382034764749,1,False,False,0.3274764069529499,0,1.0,True,023,-0.35615934343712513
433,"{'mean': 0.3, 'sd': 0.37}",-0.5,0,0.742020845413208,1,"(0, 3)",446,0,True,1.0,1,0,0,0.0,True,True,0.5,0.5,-1.0,-0.2,0.13832425991996888,0,True,True,0.7233514801600622,0,0.0,True,023,-0.2983779426605751
434,"{'mean': 0.3, 'sd': 0.37}",0.1,1,0.7250909805297852,1,"(1, 3)",447,0,False,0.0,1,0,0,0.0,True,True,-0.1,0.1,1.0,0.6,0.2979897799417526,0,False,True,0.40402044011649485,1,1.0,False,023,-0.3214581416148115
435,"{'mean': 0.3, 'sd': 0.37}",-0.1,0,0.8219900131225586,1,"(0, 3)",448,0,False,0.0,1,0,0,0.0,True,True,0.1,0.1,-1.0,-0.2,0.23533516810053023,0,False,True,0.5293296637989395,0,1.0,True,023,-0.1960270334857012
436,"{'mean': -0.3, 'sd': 0.37}",0.5,1,0.8376460075378418,0,"(1, 2)",449,1,False,1.0,1,0,0,0.0,False,True,-0.5,0.5,1.0,0.6,0.8326365996415022,1,True,False,0.6652731992830043,1,1.0,False,023,-0.17715969311928978
437,"{'mean': -0.3, 'sd': 0.37}",0.1,3,1.0232579708099365,0,"(0, 3)",450,1,False,0.0,0,1,1,1.0,True,True,-0.1,0.1,1.0,-0.4,0.8406799909749484,1,False,True,0.6813599819498968,1,0.0,True,023,0.022991626059460674
438,"{'mean': -0.3, 'sd': 0.37}",0.3,3,0.6444540023803711,0,"(1, 3)",451,1,True,0.0,0,1,1,0.0,True,True,-0.3,0.3,1.0,0.19999999999999998,0.9373578746082238,1,False,True,0.8747157492164477,1,0.0,True,023,-0.4393518286139419
439,"{'mean': -0.3, 'sd': 0.37}",0.3,2,0.32164716720581055,0,"(1, 2)",452,1,False,0.0,0,1,1,0.0,True,True,-0.3,0.3,1.0,0.0,0.9616295172806371,1,False,True,0.9232590345612741,1,0.0,True,023,-1.1343000882342955
440,"{'mean': 0.3, 'sd': 0.37}",-0.5,3,0.5282759666442871,1,"(1, 3)",453,0,False,1.0,0,1,1,0.0,False,True,0.5,0.5,-1.0,-0.8,0.38692498866059083,0,True,False,0.22615002267881834,0,1.0,False,023,-0.6381364677181525
441,"{'mean': 0.3, 'sd': 0.37}",0.1,2,0.9139900207519531,1,"(1, 2)",454,0,False,0.0,0,1,1,0.0,False,True,-0.1,0.1,1.0,0.6,0.5258785643149223,1,True,True,0.051757128629844606,1,1.0,True,023,-0.08993562580208447
442,"{'mean': 0.3, 'sd': 0.37}",-0.3,2,0.6794660091400146,1,"(0, 2)",455,0,True,0.0,0,1,1,0.0,False,True,0.3,0.3,-1.0,-0.4,0.20290651700768914,0,True,False,0.5941869659846217,0,1.0,False,023,-0.38644806998281783
443,"{'mean': 0.3, 'sd': 0.37}",-0.1,2,0.5283219814300537,1,"(0, 2)",456,0,True,0.0,0,1,1,0.0,False,True,0.1,0.1,-1.0,0.19999999999999998,0.1759719647951024,0,False,False,0.6480560704097952,0,0.0,False,023,-0.6380493678219629
444,"{'mean': 0.3, 'sd': 0.37}",-0.5,2,0.5848658084869385,1,"(0, 2)",457,0,True,0.0,0,1,1,0.0,False,True,0.5,0.5,-1.0,-0.4,0.028692747205249607,0,False,False,0.9426145055895008,0,0.0,False,023,-0.5363728452653633
445,"{'mean': 0.3, 'sd': 0.37}",-0.9,3,0.7483770847320557,1,"(0, 3)",458,0,False,0.0,0,1,1,0.0,False,True,0.9,0.9,-1.0,-0.4,0.002259257382048074,0,False,False,0.9954814852359039,0,0.0,False,023,-0.2898483040621236
446,"{'mean': 0.3, 'sd': 0.37}",-0.9,2,0.7027750015258789,1,"(0, 2)",459,0,False,0.0,0,1,1,0.0,False,True,0.9,0.9,-1.0,0.0,0.00182118184672712,0,False,False,0.9963576363065457,0,0.0,False,023,-0.35271849312839715
447,"{'mean': -0.3, 'sd': 0.37}",0.1,2,0.7084000110626221,0,"(0, 2)",460,1,True,1.0,0,1,1,0.0,True,True,-0.1,0.1,1.0,1.0,0.15089836346500335,0,False,False,0.6982032730699933,1,1.0,True,023,-0.3447463574571091
448,"{'mean': -0.3, 'sd': 0.37}",-0.1,3,1.2713139057159424,0,"(0, 3)",461,1,False,0.0,0,1,1,0.0,True,True,0.1,0.1,-1.0,-0.2,0.14516808495503947,0,False,False,0.7096638300899211,0,1.0,False,023,0.24005093710018158
449,"{'mean': -0.3, 'sd': 0.37}",0.5,3,0.757133960723877,0,"(1, 3)",462,1,True,0.0,0,1,1,0.0,True,True,-0.5,0.5,1.0,0.6,0.7715973947575667,1,True,True,0.5431947895151334,1,1.0,True,023,-0.2782150785536011
450,"{'mean': -0.3, 'sd': 0.37}",-0.1,3,0.5341060161590576,0,"(0, 3)",463,1,True,0.0,0,1,1,0.0,True,True,0.1,0.1,-1.0,-0.6,0.6059042333141397,1,False,True,0.21180846662827935,0,1.0,False,023,-0.6271609275937714
451,"{'mean': -0.3, 'sd': 0.37}",0.5,3,0.6480739116668701,0,"(1, 2)",464,1,True,0.0,0,0,1,0.0,False,False,-0.5,0.5,1.0,0.6,0.945622389501908,1,False,True,0.891244779003816,1,1.0,True,023,-0.4337505279200423
452,"{'mean': -0.3, 'sd': 0.37}",0.3,2,0.8316810131072998,0,"(0, 3)",465,1,False,0.0,0,0,1,0.0,False,False,-0.3,0.3,1.0,-0.2,0.9635528205635524,1,False,True,0.9271056411271048,1,0.0,True,023,-0.18430630938419298
453,"{'mean': -0.3, 'sd': 0.37}",0.3,3,0.5850250720977783,0,"(0, 3)",466,1,False,0.0,0,1,1,0.0,True,True,-0.3,0.3,1.0,0.0,0.9676504146319473,1,False,True,0.9353008292638947,1,0.0,True,023,-0.5361005743818702
454,"{'mean': -0.3, 'sd': 0.37}",0.3,3,0.5956659317016602,0,"(1, 3)",467,1,True,0.0,0,1,1,0.0,True,True,-0.3,0.3,1.0,0.0,0.9685726860744754,1,False,True,0.9371453721489509,1,0.0,True,023,-0.5180752863444168
455,"{'mean': -0.3, 'sd': 0.37}",0.7,3,0.515449047088623,0,"(1, 3)",468,1,True,0.0,0,1,1,0.0,True,True,-0.7,0.7,1.0,0.39999999999999997,0.9960725599361201,1,False,True,0.9921451198722402,1,0.0,True,023,-0.6627168221394383
456,"{'mean': -0.3, 'sd': 0.37}",0.7,2,0.7265048027038574,0,"(0, 2)",469,1,False,0.0,0,1,1,0.0,True,True,-0.7,0.7,1.0,0.0,0.9968508750562992,1,False,True,0.9937017501125984,1,0.0,True,023,-0.3195101852519333
457,"{'mean': -0.3, 'sd': 0.37}",0.1,2,0.6394600868225098,0,"(0, 2)",470,1,True,0.0,0,1,1,0.0,True,True,-0.1,0.1,1.0,-0.6,0.934482074560538,1,False,True,0.868964149121076,1,0.0,True,023,-0.4471310730110812
458,"{'mean': -0.3, 'sd': 0.37}",0.3,2,0.7024698257446289,0,"(0, 2)",471,1,True,0.0,0,1,1,0.0,True,True,-0.3,0.3,1.0,0.19999999999999998,0.9609550360772511,1,False,True,0.9219100721545022,1,0.0,True,023,-0.3531528313734137
459,"{'mean': -0.3, 'sd': 0.37}",0.5,2,0.6036128997802734,0,"(0, 2)",472,1,True,0.0,0,1,1,0.0,True,True,-0.5,0.5,1.0,0.2,0.9880526497479866,1,False,True,0.9761052994959731,1,0.0,True,023,-0.5048221809114515
460,"{'mean': -0.3, 'sd': 0.37}",-0.1,1,1.0291728973388672,0,"(1, 3)",473,1,False,0.0,1,0,0,1.0,False,True,0.1,0.1,-1.0,-0.6,0.8328639936782203,1,False,False,0.6657279873564406,0,1.0,True,023,0.028755467362105786
461,"{'mean': -0.3, 'sd': 0.37}",-0.1,1,0.9673089981079102,0,"(1, 2)",474,1,True,0.0,1,0,0,0.0,False,True,0.1,0.1,-1.0,0.0,0.6655800471060359,1,False,False,0.3311600942120718,0,0.0,True,023,-0.03323729154401421
462,"{'mean': -0.3, 'sd': 0.37}",-0.3,1,0.8449611663818359,0,"(0, 2)",475,1,True,0.0,0,0,0,0.0,False,False,0.3,0.3,-1.0,-0.19999999999999998,0.28774531778159085,0,True,True,0.4245093644368183,0,0.0,True,023,-0.1684646096255888
463,"{'mean': -0.3, 'sd': 0.37}",0.3,1,1.020838975906372,0,"(1, 3)",476,1,True,0.0,1,0,0,0.0,False,True,-0.3,0.3,1.0,0.6,0.6827478836395582,1,True,False,0.36549576727911637,1,1.0,False,023,0.020624814605946486
464,"{'mean': -0.3, 'sd': 0.37}",0.5,1,0.6972842216491699,0,"(1, 2)",477,1,True,0.0,1,0,0,0.0,False,True,-0.5,0.5,1.0,0.2,0.9575972796846558,1,False,False,0.9151945593693116,1,0.0,False,023,-0.360562172790949
465,"{'mean': -0.3, 'sd': 0.37}",-0.1,0,0.8270690441131592,0,"(0, 2)",478,1,False,0.0,1,0,0,0.0,False,True,0.1,0.1,-1.0,-0.6,0.7980467493996724,1,False,False,0.5960934987993447,0,1.0,True,023,-0.18986710000299054
