{"stimulusDuration": 1.5, "reward_amount": 1, "FBonset": 0, "stim": {"ori_start": -60, "motion_direction": "out", "speed_end": 0.11028797186665562, "oriDirection": -1, "oriBase": -60, "motionDirection": "out", "speedDirection": -1, "speedStrength": "medium", "speed_start": 0.12, "oriStrength": "medium", "ori_end": -90}, "ITI": 1.0465467408046942, "rt": 0.35877203941345215, "decision_var": 0.009712028133344368, "FBDuration": 1, "trial_count": 1, "ts": "motion", "response": "down", "onset": 2, "quest_estimate": 0.003574099399410606, "FB": 1, "displayFB": true, "punishment_amount": 0, "responseWindow": 1.5, "exp_stage": "adaptive_procedure", "stimResponseInterval": 0.9195160910941804, "trial_time": 3.8170809745788574}
{"stimulusDuration": 1.5, "reward_amount": 1, "FBonset": 0, "stim": {"ori_start": -60, "motion_direction": "in", "speed_end": 0.1279837638712262, "oriDirection": -1, "oriBase": -60, "motionDirection": "in", "speedDirection": 1, "speedStrength": "medium", "speed_start": 0.12, "oriStrength": "medium", "ori_end": -90}, "ITI": 0.8346982405955434, "rt": 0.3899540901184082, "decision_var": 0.007983763871226207, "FBDuration": 1, "trial_count": 2, "ts": "motion", "response": "down", "onset": 7.966062831898875, "quest_estimate": 0.009228130616693468, "FB": 0, "displayFB": true, "punishment_amount": 0, "responseWindow": 1.5, "exp_stage": "adaptive_procedure", "stimResponseInterval": 1.374022087928783, "trial_time": 4.3016979694366455}
{"stimulusDuration": 1.5, "reward_amount": 1, "FBonset": 0, "stim": {"ori_start": -60, "motion_direction": "in", "speed_end": 0.1339691979820617, "oriDirection": 1, "oriBase": -60, "motionDirection": "in", "speedDirection": 1, "speedStrength": "medium", "speed_start": 0.12, "oriStrength": "medium", "ori_end": -30}, "ITI": 1.256152768569886, "rt": 0.3363039493560791, "decision_var": 0.013969197982061692, "FBDuration": 1, "trial_count": 3, "ts": "motion", "response": "up", "onset": 14.1747831604232, "quest_estimate": 0.0075739661443672834, "FB": 1, "displayFB": true, "punishment_amount": 0, "responseWindow": 1.5, "exp_stage": "adaptive_procedure", "stimResponseInterval": 1.2532516488883905, "trial_time": 4.116254091262817}
{"stimulusDuration": 1.5, "reward_amount": 1, "FBonset": 0, "stim": {"ori_start": 30, "motion_direction": "in", "speed_end": 0.13222115815836166, "oriDirection": 1, "oriBase": 30, "motionDirection": "in", "speedDirection": 1, "speedStrength": "medium", "speed_start": 0.12, "oriStrength": "medium", "ori_end": 60}, "ITI": 1.4124651102117713, "rt": 0.36467480659484863, "decision_var": 0.012221158158361653, "FBDuration": 1, "trial_count": 4, "ts": "motion", "response": "down", "onset": 20.684187577881477, "quest_estimate": 0.01337904596450911, "FB": 0, "displayFB": true, "punishment_amount": 0, "responseWindow": 1.5, "exp_stage": "adaptive_procedure", "stimResponseInterval": 1.23986801733399, "trial_time": 4.1357269287109375}
{"stimulusDuration": 1.5, "reward_amount": 1, "FBonset": 0, "stim": {"ori_start": 30, "motion_direction": "in", "speed_end": 0.1382828586647611, "oriDirection": -1, "oriBase": 30, "motionDirection": "in", "speedDirection": 1, "speedStrength": "medium", "speed_start": 0.12, "oriStrength": "medium", "ori_end": 0}, "ITI": 0.604856790982947, "rt": 0.587805986404419, "decision_var": 0.018282858664761086, "FBDuration": 1, "trial_count": 5, "ts": "motion", "response": "down", "onset": 27.33652070542724, "quest_estimate": 0.019448839238814443, "FB": 0, "displayFB": true, "punishment_amount": 0, "responseWindow": 1.5, "exp_stage": "adaptive_procedure", "stimResponseInterval": 1.018525485358266, "trial_time": 4.1332268714904785}
{"stimulusDuration": 1.5, "reward_amount": 1, "FBonset": 0, "stim": {"ori_start": 30, "motion_direction": "out", "speed_end": 0.1445333606839597, "oriDirection": 1, "oriBase": 30, "motionDirection": "out", "speedDirection": 1, "speedStrength": "medium", "speed_start": 0.12, "oriStrength": "medium", "ori_end": 60}, "ITI": 1.1901556614160271, "rt": 0.34235095977783203, "decision_var": 0.024533360683959705, "FBDuration": 1, "trial_count": 6, "ts": "motion", "response": "down", "onset": 32.95990298176845, "quest_estimate": 0.02572925130404345, "FB": 0, "displayFB": true, "punishment_amount": 0, "responseWindow": 1.5, "exp_stage": "adaptive_procedure", "stimResponseInterval": 1.272192820315686, "trial_time": 4.151643991470337}
{"stimulusDuration": 1.5, "reward_amount": 1, "FBonset": 0, "stim": {"ori_start": -60, "motion_direction": "in", "speed_end": 0.08906396188225689, "oriDirection": 1, "oriBase": -60, "motionDirection": "in", "speedDirection": -1, "speedStrength": "medium", "speed_start": 0.12, "oriStrength": "medium", "ori_end": -30}, "ITI": 0.8072981902240066, "rt": 0.39868807792663574, "decision_var": 0.030936038117743102, "FBDuration": 1, "trial_count": 7, "ts": "motion", "response": "down", "onset": 39.42225146350016, "quest_estimate": 0.02394775559993577, "FB": 1, "displayFB": true, "punishment_amount": 0, "responseWindow": 1.5, "exp_stage": "adaptive_procedure", "stimResponseInterval": 1.447725103835491, "trial_time": 4.383403062820435}
{"stimulusDuration": 1.5, "reward_amount": 1, "FBonset": 0, "stim": {"ori_start": 30, "motion_direction": "in", "speed_end": 0.09090317463287613, "oriDirection": 1, "oriBase": 30, "motionDirection": "in", "speedDirection": -1, "speedStrength": "medium", "speed_start": 0.12, "oriStrength": "medium", "ori_end": 60}, "ITI": 0.7184806942538993, "rt": 0.284775972366333, "decision_var": 0.029096825367123862, "FBDuration": 1, "trial_count": 8, "ts": "motion", "response": "down", "onset": 45.67727475755966, "quest_estimate": 0.022202185142083566, "FB": 1, "displayFB": true, "punishment_amount": 0, "responseWindow": 1.5, "exp_stage": "adaptive_procedure", "stimResponseInterval": 0.9705908306502085, "trial_time": 3.7853379249572754}
{"stimulusDuration": 1.5, "reward_amount": 1, "FBonset": 0, "stim": {"ori_start": -60, "motion_direction": "in", "speed_end": 0.14729377124737164, "oriDirection": -1, "oriBase": -60, "motionDirection": "in", "speedDirection": 1, "speedStrength": "medium", "speed_start": 0.12, "oriStrength": "medium", "ori_end": -90}, "ITI": 1.073238388694619, "rt": 0.3622000217437744, "decision_var": 0.027293771247371652, "FBDuration": 1, "trial_count": 9, "ts": "motion", "response": "up", "onset": 51.366346282463766, "quest_estimate": 0.020491508853169575, "FB": 1, "displayFB": true, "punishment_amount": 0, "responseWindow": 1.5, "exp_stage": "adaptive_procedure", "stimResponseInterval": 0.6774642363410783, "trial_time": 3.5787389278411865}
{"stimulusDuration": 1.5, "reward_amount": 1, "FBonset": 0, "stim": {"ori_start": -60, "motion_direction": "in", "speed_end": 0.09447433145234013, "oriDirection": -1, "oriBase": -60, "motionDirection": "in", "speedDirection": -1, "speedStrength": "medium", "speed_start": 0.12, "oriStrength": "medium", "ori_end": -90}, "ITI": 1.1295698909937069, "rt": 0.3969841003417969, "decision_var": 0.02552566854765987, "FBDuration": 1, "trial_count": 10, "ts": "motion", "response": "down", "onset": 57.117048907499466, "quest_estimate": 0.018815204740312216, "FB": 1, "displayFB": true, "punishment_amount": 0, "responseWindow": 1.5, "exp_stage": "adaptive_procedure", "stimResponseInterval": 1.4165447320974636, "trial_time": 4.350445985794067}
{"stimulusDuration": 1.5, "reward_amount": 1, "FBonset": 0, "stim": {"ori_start": -60, "motion_direction": "out", "speed_end": 0.1437918461551171, "oriDirection": 1, "oriBase": -60, "motionDirection": "out", "speedDirection": 1, "speedStrength": "medium", "speed_start": 0.12, "oriStrength": "medium", "ori_end": -30}, "ITI": 1.1372452885326136, "rt": 0.3745110034942627, "decision_var": 0.023791846155117084, "FBDuration": 1, "trial_count": 11, "ts": "motion", "response": "up", "onset": 63.66316353059064, "quest_estimate": 0.0171725497660348, "FB": 1, "displayFB": true, "punishment_amount": 0, "responseWindow": 1.5, "exp_stage": "adaptive_procedure", "stimResponseInterval": 1.2379422457661948, "trial_time": 4.152574062347412}
{"stimulusDuration": 1.5, "reward_amount": 1, "FBonset": 0, "stim": {"ori_start": 30, "motion_direction": "in", "speed_end": 0.097908726936418, "oriDirection": 1, "oriBase": 30, "motionDirection": "in", "speedDirection": -1, "speedStrength": "medium", "speed_start": 0.12, "oriStrength": "medium", "ori_end": 60}, "ITI": 0.867744826497119, "rt": 0.3830289840698242, "decision_var": 0.02209127306358199, "FBDuration": 1, "trial_count": 12, "ts": "motion", "response": "down", "onset": 70.03835106488944, "quest_estimate": 0.015562849412908648, "FB": 1, "displayFB": true, "punishment_amount": 0, "responseWindow": 1.5, "exp_stage": "adaptive_procedure", "stimResponseInterval": 0.8646066116260118, "trial_time": 3.77480411529541}
{"stimulusDuration": 1.5, "reward_amount": 1, "FBonset": 0, "stim": {"ori_start": 30, "motion_direction": "in", "speed_end": 0.09957687345470743, "oriDirection": -1, "oriBase": 30, "motionDirection": "in", "speedDirection": -1, "speedStrength": "medium", "speed_start": 0.12, "oriStrength": "medium", "ori_end": 0}, "ITI": 1.0539610146185978, "rt": 0.3072490692138672, "decision_var": 0.02042312654529256, "FBDuration": 1, "trial_count": 13, "ts": "motion", "response": "down", "onset": 75.77070250301257, "quest_estimate": 0.013985439891348678, "FB": 1, "displayFB": true, "punishment_amount": 0, "responseWindow": 1.5, "exp_stage": "adaptive_procedure", "stimResponseInterval": 1.2465374832813816, "trial_time": 4.082836866378784}
{"stimulusDuration": 1.5, "reward_amount": 1, "FBonset": 0, "stim": {"ori_start": 30, "motion_direction": "in", "speed_end": 0.13878650278370028, "oriDirection": 1, "oriBase": 30, "motionDirection": "in", "speedDirection": 1, "speedStrength": "medium", "speed_start": 0.12, "oriStrength": "medium", "ori_end": 60}, "ITI": 1.161434837088251, "rt": 0.3237020969390869, "decision_var": 0.01878650278370029, "FBDuration": 1, "trial_count": 14, "ts": "motion", "response": "up", "onset": 82.07120100091255, "quest_estimate": 0.01243968944362693, "FB": 1, "displayFB": true, "punishment_amount": 0, "responseWindow": 1.5, "exp_stage": "adaptive_procedure", "stimResponseInterval": 1.1614332592713148, "trial_time": 4.026048898696899}
{"stimulusDuration": 1.5, "reward_amount": 1, "FBonset": 0, "stim": {"ori_start": -60, "motion_direction": "out", "speed_end": 0.10281949224458195, "oriDirection": 1, "oriBase": -60, "motionDirection": "out", "speedDirection": -1, "speedStrength": "medium", "speed_start": 0.12, "oriStrength": "medium", "ori_end": -30}, "ITI": 0.6828621144732687, "rt": 0.233612060546875, "decision_var": 0.017180507755418052, "FBDuration": 1, "trial_count": 15, "ts": "motion", "response": "down", "onset": 88.39406909727212, "quest_estimate": 0.01092520390028387, "FB": 1, "displayFB": true, "punishment_amount": 0, "responseWindow": 1.5, "exp_stage": "adaptive_procedure", "stimResponseInterval": 1.2025370066191499, "trial_time": 3.96846604347229}
{"stimulusDuration": 1.5, "reward_amount": 1, "FBonset": 0, "stim": {"ori_start": 30, "motion_direction": "out", "speed_end": 0.13560469425065325, "oriDirection": -1, "oriBase": 30, "motionDirection": "out", "speedDirection": 1, "speedStrength": "medium", "speed_start": 0.12, "oriStrength": "medium", "ori_end": 0}, "ITI": 1.0871953530124268, "rt": 0.2902970314025879, "decision_var": 0.01560469425065325, "FBDuration": 1, "trial_count": 16, "ts": "motion", "response": "down", "onset": 94.27946821836454, "quest_estimate": 0.01626276174867345, "FB": 0, "displayFB": true, "punishment_amount": 0, "responseWindow": 1.5, "exp_stage": "adaptive_procedure", "stimResponseInterval": 1.4532315188746594, "trial_time": 4.2723729610443115}
{"stimulusDuration": 1.5, "reward_amount": 1, "FBonset": 0, "stim": {"ori_start": 30, "motion_direction": "in", "speed_end": 0.09892035997012541, "oriDirection": 1, "oriBase": 30, "motionDirection": "in", "speedDirection": -1, "speedStrength": "medium", "speed_start": 0.12, "oriStrength": "medium", "ori_end": 60}, "ITI": 0.6230739460776475, "rt": 0.26780104637145996, "decision_var": 0.021079640029874593, "FBDuration": 1, "trial_count": 17, "ts": "motion", "response": "down", "onset": 100.81989509025163, "quest_estimate": 0.01473435055593883, "FB": 1, "displayFB": true, "punishment_amount": 0, "responseWindow": 1.5, "exp_stage": "adaptive_procedure", "stimResponseInterval": 1.1819675129203135, "trial_time": 3.984927177429199}
{"stimulusDuration": 1.5, "reward_amount": 1, "FBonset": 0, "stim": {"ori_start": 30, "motion_direction": "in", "speed_end": 0.10050135657128897, "oriDirection": -1, "oriBase": 30, "motionDirection": "in", "speedDirection": -1, "speedStrength": "medium", "speed_start": 0.12, "oriStrength": "medium", "ori_end": 0}, "ITI": 0.7154038547266386, "rt": 0.5103249549865723, "decision_var": 0.019498643428711028, "FBDuration": 1, "trial_count": 18, "ts": "motion", "response": "down", "onset": 106.6249365492496, "quest_estimate": 0.013235381807896927, "FB": 1, "displayFB": true, "punishment_amount": 0, "responseWindow": 1.5, "exp_stage": "adaptive_procedure", "stimResponseInterval": 0.5926506128693916, "trial_time": 3.630560874938965}
{"stimulusDuration": 1.5, "reward_amount": 1, "FBonset": 0, "stim": {"ori_start": -60, "motion_direction": "out", "speed_end": 0.13794648473981047, "oriDirection": -1, "oriBase": -60, "motionDirection": "out", "speedDirection": 1, "speedStrength": "medium", "speed_start": 0.12, "oriStrength": "medium", "ori_end": -90}, "ITI": 0.6698893199848204, "rt": 0.27863597869873047, "decision_var": 0.01794648473981046, "FBDuration": 1, "trial_count": 19, "ts": "motion", "response": "down", "onset": 111.93299101684562, "quest_estimate": 0.018522005962496202, "FB": 0, "displayFB": true, "punishment_amount": 0, "responseWindow": 1.5, "exp_stage": "adaptive_procedure", "stimResponseInterval": 0.8231259708783849, "trial_time": 3.63687801361084}
{"stimulusDuration": 1.5, "reward_amount": 1, "FBonset": 0, "stim": {"ori_start": -60, "motion_direction": "in", "speed_end": 0.14333906240831706, "oriDirection": -1, "oriBase": -60, "motionDirection": "in", "speedDirection": 1, "speedStrength": "medium", "speed_start": 0.12, "oriStrength": "medium", "ori_end": -90}, "ITI": 0.9210491110699133, "rt": 0.3084299564361572, "decision_var": 0.023339062408317082, "FBDuration": 1, "trial_count": 20, "ts": "motion", "response": "up", "onset": 117.42600630770883, "quest_estimate": 0.017012804072061988, "FB": 1, "displayFB": true, "punishment_amount": 0, "responseWindow": 1.5, "exp_stage": "adaptive_procedure", "stimResponseInterval": 1.475954306560065, "trial_time": 4.32506799697876}
{"stimulusDuration": 1.5, "reward_amount": 1, "FBonset": 0, "stim": {"ori_start": -60, "motion_direction": "in", "speed_end": 0.09821649764660362, "oriDirection": -1, "oriBase": -60, "motionDirection": "in", "speedDirection": -1, "speedStrength": "medium", "speed_start": 0.12, "oriStrength": "medium", "ori_end": -90}, "ITI": 0.8053314818616424, "rt": 0.36839795112609863, "decision_var": 0.021783502353396385, "FBDuration": 1, "trial_count": 21, "ts": "motion", "response": "down", "onset": 123.8230097253388, "quest_estimate": 0.015531458096785238, "FB": 1, "displayFB": true, "punishment_amount": 0, "responseWindow": 1.5, "exp_stage": "adaptive_procedure", "stimResponseInterval": 1.1505664459434426, "trial_time": 4.060212850570679}
{"stimulusDuration": 1.5, "reward_amount": 1, "FBonset": 0, "stim": {"ori_start": -60, "motion_direction": "in", "speed_end": 0.14025553971901433, "oriDirection": 1, "oriBase": -60, "motionDirection": "in", "speedDirection": 1, "speedStrength": "medium", "speed_start": 0.12, "oriStrength": "medium", "ori_end": -30}, "ITI": 0.8809942145434493, "rt": 0.3418269157409668, "decision_var": 0.020255539719014323, "FBDuration": 1, "trial_count": 22, "ts": "motion", "response": "up", "onset": 129.7789076531439, "quest_estimate": 0.014077380439624303, "FB": 1, "displayFB": true, "punishment_amount": 0, "responseWindow": 1.5, "exp_stage": "adaptive_procedure", "stimResponseInterval": 0.6326793610905816, "trial_time": 3.5073630809783936}
{"stimulusDuration": 1.5, "reward_amount": 1, "FBonset": 0, "stim": {"ori_start": -60, "motion_direction": "in", "speed_end": 0.13875420606533226, "oriDirection": 1, "oriBase": -60, "motionDirection": "in", "speedDirection": 1, "speedStrength": "medium", "speed_start": 0.12, "oriStrength": "medium", "ori_end": -30}, "ITI": 1.327410762039484, "rt": 0.39064693450927734, "decision_var": 0.018754206065332263, "FBDuration": 1, "trial_count": 23, "ts": "motion", "response": "up", "onset": 135.29258122877795, "quest_estimate": 0.012649811106828342, "FB": 1, "displayFB": true, "punishment_amount": 0, "responseWindow": 1.5, "exp_stage": "adaptive_procedure", "stimResponseInterval": 0.6228614741489524, "trial_time": 3.547311782836914}
{"stimulusDuration": 1.5, "reward_amount": 1, "FBonset": 0, "stim": {"ori_start": 30, "motion_direction": "in", "speed_end": 0.13727868003401258, "oriDirection": -1, "oriBase": 30, "motionDirection": "in", "speedDirection": 1, "speedStrength": "medium", "speed_start": 0.12, "oriStrength": "medium", "ori_end": 0}, "ITI": 1.0920875584592293, "rt": 0.28084301948547363, "decision_var": 0.01727868003401259, "FBDuration": 1, "trial_count": 24, "ts": "motion", "response": "up", "onset": 141.24285346496637, "quest_estimate": 0.011248405636834255, "FB": 1, "displayFB": true, "punishment_amount": 0, "responseWindow": 1.5, "exp_stage": "adaptive_procedure", "stimResponseInterval": 1.1559303322740733, "trial_time": 3.968961000442505}
{"stimulusDuration": 1.5, "reward_amount": 1, "FBonset": 0, "stim": {"ori_start": -60, "motion_direction": "out", "speed_end": 0.1358285316163351, "oriDirection": -1, "oriBase": -60, "motionDirection": "out", "speedDirection": 1, "speedStrength": "medium", "speed_start": 0.12, "oriStrength": "medium", "ori_end": -90}, "ITI": 0.6149444745243677, "rt": 0.356112003326416, "decision_var": 0.015828531616335094, "FBDuration": 1, "trial_count": 25, "ts": "motion", "response": "up", "onset": 147.49087135569968, "quest_estimate": 0.009872668451849052, "FB": 1, "displayFB": true, "punishment_amount": 0, "responseWindow": 1.5, "exp_stage": "adaptive_procedure", "stimResponseInterval": 0.7047046772593544, "trial_time": 3.593017101287842}
{"stimulusDuration": 1.5, "reward_amount": 1, "FBonset": 0, "stim": {"ori_start": -60, "motion_direction": "in", "speed_end": 0.13440317104479196, "oriDirection": -1, "oriBase": -60, "motionDirection": "in", "speedDirection": 1, "speedStrength": "medium", "speed_start": 0.12, "oriStrength": "medium", "ori_end": -90}, "ITI": 0.6715888912836805, "rt": 0.30710291862487793, "decision_var": 0.014403171044791975, "FBDuration": 1, "trial_count": 26, "ts": "motion", "response": "up", "onset": 152.8105205074834, "quest_estimate": 0.008522132734978954, "FB": 1, "displayFB": true, "punishment_amount": 0, "responseWindow": 1.5, "exp_stage": "adaptive_procedure", "stimResponseInterval": 1.4119622677873065, "trial_time": 4.246479034423828}
{"stimulusDuration": 1.5, "reward_amount": 1, "FBonset": 0, "stim": {"ori_start": -60, "motion_direction": "out", "speed_end": 0.10699797756205899, "oriDirection": 1, "oriBase": -60, "motionDirection": "out", "speedDirection": -1, "speedStrength": "medium", "speed_start": 0.12, "oriStrength": "medium", "ori_end": -30}, "ITI": 1.0036076967393521, "rt": 0.3207430839538574, "decision_var": 0.013002022437941005, "FBDuration": 1, "trial_count": 27, "ts": "motion", "response": "down", "onset": 158.8940716665544, "quest_estimate": 0.007196359550007192, "FB": 1, "displayFB": true, "punishment_amount": 0, "responseWindow": 1.5, "exp_stage": "adaptive_procedure", "stimResponseInterval": 1.4169754469582456, "trial_time": 4.279716968536377}
{"stimulusDuration": 1.5, "reward_amount": 1, "FBonset": 0, "stim": {"ori_start": 30, "motion_direction": "in", "speed_end": 0.1316245238683945, "oriDirection": 1, "oriBase": 30, "motionDirection": "in", "speedDirection": 1, "speedStrength": "medium", "speed_start": 0.12, "oriStrength": "medium", "ori_end": 60}, "ITI": 1.4605032276414722, "rt": 0.2980828285217285, "decision_var": 0.0116245238683945, "FBDuration": 1, "trial_count": 28, "ts": "motion", "response": "up", "onset": 165.314654810252, "quest_estimate": 0.005894936748904886, "FB": 1, "displayFB": true, "punishment_amount": 0, "responseWindow": 1.5, "exp_stage": "adaptive_procedure", "stimResponseInterval": 0.8989040762438276, "trial_time": 3.732206106185913}
{"stimulusDuration": 1.5, "reward_amount": 1, "FBonset": 0, "stim": {"ori_start": 30, "motion_direction": "out", "speed_end": 0.1097298722901575, "oriDirection": -1, "oriBase": 30, "motionDirection": "out", "speedDirection": -1, "speedStrength": "medium", "speed_start": 0.12, "oriStrength": "medium", "ori_end": 0}, "ITI": 0.7125636883380431, "rt": 0.3952829837799072, "decision_var": 0.010270127709842494, "FBDuration": 1, "trial_count": 29, "ts": "motion", "response": "down", "onset": 171.67406211413729, "quest_estimate": 0.004617643242222358, "FB": 1, "displayFB": true, "punishment_amount": 0, "responseWindow": 1.5, "exp_stage": "adaptive_procedure", "stimResponseInterval": 0.9281024022944289, "trial_time": 3.863906145095825}
{"stimulusDuration": 1.5, "reward_amount": 1, "FBonset": 0, "stim": {"ori_start": 30, "motion_direction": "out", "speed_end": 0.11106152891455756, "oriDirection": 1, "oriBase": 30, "motionDirection": "out", "speedDirection": -1, "speedStrength": "medium", "speed_start": 0.12, "oriStrength": "medium", "ori_end": 60}, "ITI": 0.7566782914850076, "rt": 0.3057870864868164, "decision_var": 0.008938471085442427, "FBDuration": 1, "trial_count": 30, "ts": "motion", "response": "down", "onset": 177.31472820476975, "quest_estimate": 0.003363962116249647, "FB": 1, "displayFB": true, "punishment_amount": 0, "responseWindow": 1.5, "exp_stage": "adaptive_procedure", "stimResponseInterval": 1.1945133005878672, "trial_time": 4.031368017196655}
{"stimulusDuration": 1.5, "reward_amount": 1, "FBonset": 0, "stim": {"ori_start": 30, "motion_direction": "out", "speed_end": 0.1123708788223749, "oriDirection": -1, "oriBase": 30, "motionDirection": "out", "speedDirection": -1, "speedStrength": "medium", "speed_start": 0.12, "oriStrength": "medium", "ori_end": 0}, "ITI": 1.1239561945801966, "rt": 0.39257216453552246, "decision_var": 0.007629121177625098, "FBDuration": 1, "trial_count": 31, "ts": "motion", "response": "down", "onset": 183.26591979684264, "quest_estimate": 0.002133551312046615, "FB": 1, "displayFB": true, "punishment_amount": 0, "responseWindow": 1.5, "exp_stage": "adaptive_procedure", "stimResponseInterval": 0.7617759217108817, "trial_time": 3.682011127471924}
{"stimulusDuration": 1.5, "reward_amount": 1, "FBonset": 0, "stim": {"ori_start": 30, "motion_direction": "in", "speed_end": 0.126341567843047, "oriDirection": -1, "oriBase": 30, "motionDirection": "in", "speedDirection": 1, "speedStrength": "medium", "speed_start": 0.12, "oriStrength": "medium", "ori_end": 0}, "ITI": 1.0340693701921937, "rt": 0.40032005310058594, "decision_var": 0.0063415678430470065, "FBDuration": 1, "trial_count": 32, "ts": "motion", "response": "up", "onset": 189.15165191313372, "quest_estimate": 0.000926237532334763, "FB": 1, "displayFB": true, "punishment_amount": 0, "responseWindow": 1.5, "exp_stage": "adaptive_procedure", "stimResponseInterval": 1.0776378049378088, "trial_time": 4.0181379318237305}
{"stimulusDuration": 1.5, "reward_amount": 1, "FBonset": 0, "stim": {"ori_start": 30, "motion_direction": "in", "speed_end": 0.11492440325578406, "oriDirection": -1, "oriBase": 30, "motionDirection": "in", "speedDirection": -1, "speedStrength": "medium", "speed_start": 0.12, "oriStrength": "medium", "ori_end": 0}, "ITI": 0.9915049792136879, "rt": 0.5748410224914551, "decision_var": 0.0050755967442159405, "FBDuration": 1, "trial_count": 33, "ts": "motion", "response": "up", "onset": 195.2633590882637, "quest_estimate": 0.005163899125085351, "FB": 0, "displayFB": true, "punishment_amount": 0, "responseWindow": 1.5, "exp_stage": "adaptive_procedure", "stimResponseInterval": 0.6063110158392508, "trial_time": 3.7100400924682617}
{"stimulusDuration": 1.5, "reward_amount": 1, "FBonset": 0, "stim": {"ori_start": -60, "motion_direction": "in", "speed_end": 0.11052925384026224, "oriDirection": -1, "oriBase": -60, "motionDirection": "in", "speedDirection": -1, "speedStrength": "medium", "speed_start": 0.12, "oriStrength": "medium", "ori_end": -90}, "ITI": 1.472115855972226, "rt": 0.29497480392456055, "decision_var": 0.009470746159737753, "FBDuration": 1, "trial_count": 34, "ts": "motion", "response": "up", "onset": 200.86117508331665, "quest_estimate": 0.009555400829878803, "FB": 0, "displayFB": true, "punishment_amount": 0, "responseWindow": 1.5, "exp_stage": "adaptive_procedure", "stimResponseInterval": 1.0469291821656928, "trial_time": 3.8686368465423584}
{"stimulusDuration": 1.5, "reward_amount": 1, "FBonset": 0, "stim": {"ori_start": -60, "motion_direction": "in", "speed_end": 0.1060225964180363, "oriDirection": 1, "oriBase": -60, "motionDirection": "in", "speedDirection": -1, "speedStrength": "medium", "speed_start": 0.12, "oriStrength": "medium", "ori_end": -30}, "ITI": 1.1244755164073812, "rt": 0.5762600898742676, "decision_var": 0.013977403581963692, "FBDuration": 1, "trial_count": 35, "ts": "motion", "response": "up", "onset": 207.38022012145458, "quest_estimate": 0.014077499987564877, "FB": 0, "displayFB": true, "punishment_amount": 0, "responseWindow": 1.5, "exp_stage": "adaptive_procedure", "stimResponseInterval": 1.4560519226077016, "trial_time": 4.573580026626587}
{"stimulusDuration": 1.5, "reward_amount": 1, "FBonset": 0, "stim": {"ori_start": -60, "motion_direction": "in", "speed_end": 0.13858083527014556, "oriDirection": 1, "oriBase": -60, "motionDirection": "in", "speedDirection": 1, "speedStrength": "medium", "speed_start": 0.12, "oriStrength": "medium", "ori_end": -30}, "ITI": 1.4276089354981747, "rt": 0.36174798011779785, "decision_var": 0.018580835270145563, "FBDuration": 1, "trial_count": 36, "ts": "motion", "response": "up", "onset": 213.96074756046966, "quest_estimate": 0.012788307176829126, "FB": 1, "displayFB": true, "punishment_amount": 0, "responseWindow": 1.5, "exp_stage": "adaptive_procedure", "stimResponseInterval": 0.6072856554709671, "trial_time": 3.497913122177124}
{"stimulusDuration": 1.5, "reward_amount": 1, "FBonset": 0, "stim": {"ori_start": 30, "motion_direction": "out", "speed_end": 0.10274491329858557, "oriDirection": 1, "oriBase": 30, "motionDirection": "out", "speedDirection": -1, "speedStrength": "medium", "speed_start": 0.12, "oriStrength": "medium", "ori_end": 60}, "ITI": 0.5055176789299134, "rt": 0.3925039768218994, "decision_var": 0.01725508670141443, "FBDuration": 1, "trial_count": 37, "ts": "motion", "response": "down", "onset": 219.9956421514388, "quest_estimate": 0.011520100620953683, "FB": 1, "displayFB": true, "punishment_amount": 0, "responseWindow": 1.5, "exp_stage": "adaptive_procedure", "stimResponseInterval": 0.5876026450978074, "trial_time": 3.5158908367156982}
{"stimulusDuration": 1.5, "reward_amount": 1, "FBonset": 0, "stim": {"ori_start": -60, "motion_direction": "out", "speed_end": 0.13595007884715293, "oriDirection": 1, "oriBase": -60, "motionDirection": "out", "speedDirection": 1, "speedStrength": "medium", "speed_start": 0.12, "oriStrength": "medium", "ori_end": -30}, "ITI": 1.0492353920576623, "rt": 0.383882999420166, "decision_var": 0.015950078847152924, "FBDuration": 1, "trial_count": 38, "ts": "motion", "response": "up", "onset": 225.08876247546652, "quest_estimate": 0.010272452821180361, "FB": 1, "displayFB": true, "punishment_amount": 0, "responseWindow": 1.5, "exp_stage": "adaptive_procedure", "stimResponseInterval": 0.9001213452299992, "trial_time": 3.82519793510437}
{"stimulusDuration": 1.5, "reward_amount": 1, "FBonset": 0, "stim": {"ori_start": 30, "motion_direction": "out", "speed_end": 0.13466488038715743, "oriDirection": -1, "oriBase": 30, "motionDirection": "out", "speedDirection": 1, "speedStrength": "medium", "speed_start": 0.12, "oriStrength": "medium", "ori_end": 0}, "ITI": 1.1063714670227083, "rt": 0.3924109935760498, "decision_var": 0.014664880387157436, "FBDuration": 1, "trial_count": 39, "ts": "motion", "response": "down", "onset": 231.0381192127542, "quest_estimate": 0.014675537615761763, "FB": 0, "displayFB": true, "punishment_amount": 0, "responseWindow": 1.5, "exp_stage": "adaptive_procedure", "stimResponseInterval": 1.3388799007011198, "trial_time": 4.272281169891357}
{"stimulusDuration": 1.5, "reward_amount": 1, "FBonset": 0, "stim": {"ori_start": -60, "motion_direction": "out", "speed_end": 0.10086396250506764, "oriDirection": -1, "oriBase": -60, "motionDirection": "out", "speedDirection": -1, "speedStrength": "medium", "speed_start": 0.12, "oriStrength": "medium", "ori_end": -90}, "ITI": 0.5808443517545521, "rt": 0.4336850643157959, "decision_var": 0.019136037494932354, "FBDuration": 1, "trial_count": 40, "ts": "motion", "response": "down", "onset": 237.48337058047804, "quest_estimate": 0.013420748313266652, "FB": 1, "displayFB": true, "punishment_amount": 0, "responseWindow": 1.5, "exp_stage": "adaptive_procedure", "stimResponseInterval": 0.5312748786263239, "trial_time": 3.5068140029907227}
{"stimulusDuration": 1.5, "reward_amount": 1, "FBonset": 0, "stim": {"ori_start": -60, "motion_direction": "out", "speed_end": 0.13784792912756, "oriDirection": -1, "oriBase": -60, "motionDirection": "out", "speedDirection": 1, "speedStrength": "medium", "speed_start": 0.12, "oriStrength": "medium", "ori_end": -90}, "ITI": 1.2899134289362593, "rt": 0.30849695205688477, "decision_var": 0.017847929127560017, "FBDuration": 1, "trial_count": 41, "ts": "motion", "response": "up", "onset": 242.5954898108589, "quest_estimate": 0.012185630146753633, "FB": 1, "displayFB": true, "punishment_amount": 0, "responseWindow": 1.5, "exp_stage": "adaptive_procedure", "stimResponseInterval": 0.8095240160333672, "trial_time": 3.646512031555176}
{"stimulusDuration": 1.5, "reward_amount": 1, "FBonset": 0, "stim": {"ori_start": -60, "motion_direction": "in", "speed_end": 0.10342069194151746, "oriDirection": 1, "oriBase": -60, "motionDirection": "in", "speedDirection": -1, "speedStrength": "medium", "speed_start": 0.12, "oriStrength": "medium", "ori_end": -30}, "ITI": 0.5317135747484214, "rt": 0.2930278778076172, "decision_var": 0.016579308058482532, "FBDuration": 1, "trial_count": 42, "ts": "motion", "response": "down", "onset": 248.69492725582853, "quest_estimate": 0.010969937923798571, "FB": 1, "displayFB": true, "punishment_amount": 0, "responseWindow": 1.5, "exp_stage": "adaptive_procedure", "stimResponseInterval": 0.9229499313852545, "trial_time": 3.742975950241089}
{"stimulusDuration": 1.5, "reward_amount": 1, "FBonset": 0, "stim": {"ori_start": 30, "motion_direction": "out", "speed_end": 0.1353296148909472, "oriDirection": -1, "oriBase": 30, "motionDirection": "out", "speedDirection": 1, "speedStrength": "medium", "speed_start": 0.12, "oriStrength": "medium", "ori_end": 0}, "ITI": 1.1228755616021346, "rt": 0.295090913772583, "decision_var": 0.015329614890947203, "FBDuration": 1, "trial_count": 43, "ts": "motion", "response": "down", "onset": 254.1495907619622, "quest_estimate": 0.015258549892096823, "FB": 0, "displayFB": true, "punishment_amount": 0, "responseWindow": 1.5, "exp_stage": "adaptive_procedure", "stimResponseInterval": 1.192136312865617, "trial_time": 4.025031089782715}
{"stimulusDuration": 1.5, "reward_amount": 1, "FBonset": 0, "stim": {"ori_start": 30, "motion_direction": "in", "speed_end": 0.10032480814886806, "oriDirection": 1, "oriBase": 30, "motionDirection": "in", "speedDirection": -1, "speedStrength": "medium", "speed_start": 0.12, "oriStrength": "medium", "ori_end": 60}, "ITI": 1.4610440997557066, "rt": 0.29979419708251953, "decision_var": 0.019675191851131937, "FBDuration": 1, "trial_count": 44, "ts": "motion", "response": "down", "onset": 260.46460263642996, "quest_estimate": 0.014036775863755027, "FB": 1, "displayFB": true, "punishment_amount": 0, "responseWindow": 1.5, "exp_stage": "adaptive_procedure", "stimResponseInterval": 1.2442587326856251, "trial_time": 4.080856084823608}
{"stimulusDuration": 1.5, "reward_amount": 1, "FBonset": 0, "stim": {"ori_start": 30, "motion_direction": "out", "speed_end": 0.10157716585509237, "oriDirection": -1, "oriBase": 30, "motionDirection": "out", "speedDirection": -1, "speedStrength": "medium", "speed_start": 0.12, "oriStrength": "medium", "ori_end": 0}, "ITI": 0.6708753921636181, "rt": 0.25917506217956543, "decision_var": 0.018422834144907627, "FBDuration": 1, "trial_count": 45, "ts": "motion", "response": "down", "onset": 267.16990546887126, "quest_estimate": 0.012833487827127302, "FB": 1, "displayFB": true, "punishment_amount": 0, "responseWindow": 1.5, "exp_stage": "adaptive_procedure", "stimResponseInterval": 1.3874243732783043, "trial_time": 4.176117897033691}
{"stimulusDuration": 1.5, "reward_amount": 1, "FBonset": 0, "stim": {"ori_start": 30, "motion_direction": "out", "speed_end": 0.13718885660676947, "oriDirection": -1, "oriBase": 30, "motionDirection": "out", "speedDirection": 1, "speedStrength": "medium", "speed_start": 0.12, "oriStrength": "medium", "ori_end": 0}, "ITI": 1.4553792163063068, "rt": 0.27790188789367676, "decision_var": 0.017188856606769477, "FBDuration": 1, "trial_count": 46, "ts": "motion", "response": "up", "onset": 273.2282052343132, "quest_estimate": 0.011648448756890806, "FB": 1, "displayFB": true, "punishment_amount": 0, "responseWindow": 1.5, "exp_stage": "adaptive_procedure", "stimResponseInterval": 1.4856422491233539, "trial_time": 4.299466133117676}
{"stimulusDuration": 1.5, "reward_amount": 1, "FBonset": 0, "stim": {"ori_start": -60, "motion_direction": "out", "speed_end": 0.10402715372802188, "oriDirection": 1, "oriBase": -60, "motionDirection": "out", "speedDirection": -1, "speedStrength": "medium", "speed_start": 0.12, "oriStrength": "medium", "ori_end": -30}, "ITI": 0.6381183965819792, "rt": 0.4381740093231201, "decision_var": 0.015972846271978126, "FBDuration": 1, "trial_count": 47, "ts": "motion", "response": "up", "onset": 280.16922669974286, "quest_estimate": 0.015836530655716226, "FB": 0, "displayFB": true, "punishment_amount": 0, "responseWindow": 1.5, "exp_stage": "adaptive_procedure", "stimResponseInterval": 0.6001382202457941, "trial_time": 3.579859972000122}
{"stimulusDuration": 1.5, "reward_amount": 1, "FBonset": 0, "stim": {"ori_start": 30, "motion_direction": "out", "speed_end": 0.09979112796136849, "oriDirection": 1, "oriBase": 30, "motionDirection": "out", "speedDirection": -1, "speedStrength": "medium", "speed_start": 0.12, "oriStrength": "medium", "ori_end": 60}, "ITI": 1.1915320079148704, "rt": 0.3788120746612549, "decision_var": 0.02020887203863151, "FBDuration": 1, "trial_count": 48, "ts": "motion", "response": "down", "onset": 285.4074833165706, "quest_estimate": 0.014646172325454065, "FB": 1, "displayFB": true, "punishment_amount": 0, "responseWindow": 1.5, "exp_stage": "adaptive_procedure", "stimResponseInterval": 1.431766189023062, "trial_time": 4.3461689949035645}
{"stimulusDuration": 1.5, "reward_amount": 1, "FBonset": 0, "stim": {"ori_start": 30, "motion_direction": "in", "speed_end": 0.1389902810515763, "oriDirection": -1, "oriBase": 30, "motionDirection": "in", "speedDirection": 1, "speedStrength": "medium", "speed_start": 0.12, "oriStrength": "medium", "ori_end": 0}, "ITI": 1.4576355432550012, "rt": 0.3098311424255371, "decision_var": 0.018990281051576297, "FBDuration": 1, "trial_count": 49, "ts": "motion", "response": "up", "onset": 292.03078151350854, "quest_estimate": 0.013473383795786761, "FB": 1, "displayFB": true, "punishment_amount": 0, "responseWindow": 1.5, "exp_stage": "adaptive_procedure", "stimResponseInterval": 1.1885367191940075, "trial_time": 4.024960041046143}
{"stimulusDuration": 1.5, "reward_amount": 1, "FBonset": 0, "stim": {"ori_start": 30, "motion_direction": "out", "speed_end": 0.13778920403398412, "oriDirection": 1, "oriBase": 30, "motionDirection": "out", "speedDirection": 1, "speedStrength": "medium", "speed_start": 0.12, "oriStrength": "medium", "ori_end": 60}, "ITI": 1.459627473835135, "rt": 0.43005895614624023, "decision_var": 0.017789204033984124, "FBDuration": 1, "trial_count": 50, "ts": "motion", "response": "up", "onset": 298.67695377595754, "quest_estimate": 0.012317783441410365, "FB": 1, "displayFB": true, "punishment_amount": 0, "responseWindow": 1.5, "exp_stage": "adaptive_procedure", "stimResponseInterval": 0.672675993662257, "trial_time": 3.630585193634033}
{"stimulusDuration": 1.5, "reward_amount": 1, "FBonset": 0, "stim": {"ori_start": 30, "motion_direction": "in", "speed_end": 0.10339482183377163, "oriDirection": -1, "oriBase": 30, "motionDirection": "in", "speedDirection": -1, "speedStrength": "medium", "speed_start": 0.12, "oriStrength": "medium", "ori_end": 0}, "ITI": 0.7573761786205981, "rt": 0.6770548820495605, "decision_var": 0.01660517816622837, "FBDuration": 1, "trial_count": 51, "ts": "motion", "response": "up", "onset": 304.8092572434549, "quest_estimate": 0.016400216577840215, "FB": 0, "displayFB": true, "punishment_amount": 0, "responseWindow": 1.5, "exp_stage": "adaptive_procedure", "stimResponseInterval": 0.5299914768524288, "trial_time": 3.7334771156311035}
{"stimulusDuration": 1.5, "reward_amount": 1, "FBonset": 0, "stim": {"ori_start": -60, "motion_direction": "out", "speed_end": 0.0992719252865546, "oriDirection": -1, "oriBase": -60, "motionDirection": "out", "speedDirection": -1, "speedStrength": "medium", "speed_start": 0.12, "oriStrength": "medium", "ori_end": -90}, "ITI": 0.7102588423611396, "rt": 0.40204691886901855, "decision_var": 0.020728074713445406, "FBDuration": 1, "trial_count": 52, "ts": "motion", "response": "down", "onset": 310.0966248989279, "quest_estimate": 0.01524011224742227, "FB": 1, "displayFB": true, "punishment_amount": 0, "responseWindow": 1.5, "exp_stage": "adaptive_procedure", "stimResponseInterval": 1.1854436991887929, "trial_time": 4.125792026519775}
{"stimulusDuration": 1.5, "reward_amount": 1, "FBonset": 0, "stim": {"ori_start": 30, "motion_direction": "out", "speed_end": 0.10045825985769033, "oriDirection": -1, "oriBase": 30, "motionDirection": "out", "speedDirection": -1, "speedStrength": "medium", "speed_start": 0.12, "oriStrength": "medium", "ori_end": 0}, "ITI": 0.6618958829093393, "rt": 0.2689859867095947, "decision_var": 0.019541740142309673, "FBDuration": 1, "trial_count": 53, "ts": "motion", "response": "down", "onset": 315.9923274404779, "quest_estimate": 0.014096607473342793, "FB": 1, "displayFB": true, "punishment_amount": 0, "responseWindow": 1.5, "exp_stage": "adaptive_procedure", "stimResponseInterval": 1.3313139562352523, "trial_time": 4.141020059585571}
{"stimulusDuration": 1.5, "reward_amount": 1, "FBonset": 0, "stim": {"ori_start": 30, "motion_direction": "out", "speed_end": 0.10162796954525408, "oriDirection": 1, "oriBase": 30, "motionDirection": "out", "speedDirection": -1, "speedStrength": "medium", "speed_start": 0.12, "oriStrength": "medium", "ori_end": 60}, "ITI": 0.8256016291304107, "rt": 0.0173189640045166, "decision_var": 0.018372030454745926, "FBDuration": 1, "trial_count": 54, "ts": "motion", "response": "down", "onset": 321.98553727962246, "quest_estimate": 0.012969332031442266, "FB": 1, "displayFB": true, "punishment_amount": 0, "responseWindow": 1.5, "exp_stage": "adaptive_procedure", "stimResponseInterval": 1.2395460610946436, "trial_time": 3.785291910171509}
{"stimulusDuration": 1.5, "reward_amount": 1, "FBonset": 0, "stim": {"ori_start": -60, "motion_direction": "out", "speed_end": 0.13721846083454692, "oriDirection": 1, "oriBase": -60, "motionDirection": "out", "speedDirection": 1, "speedStrength": "medium", "speed_start": 0.12, "oriStrength": "medium", "ori_end": -30}, "ITI": 0.6207002258578622, "rt": 0.33236098289489746, "decision_var": 0.01721846083454691, "FBDuration": 1, "trial_count": 55, "ts": "motion", "response": "up", "onset": 328.0506849698475, "quest_estimate": 0.011857934910487797, "FB": 1, "displayFB": true, "punishment_amount": 0, "responseWindow": 1.5, "exp_stage": "adaptive_procedure", "stimResponseInterval": 1.0750972750139267, "trial_time": 3.935296058654785}
{"stimulusDuration": 1.5, "reward_amount": 1, "FBonset": 0, "stim": {"ori_start": -60, "motion_direction": "out", "speed_end": 0.10391940612748736, "oriDirection": 1, "oriBase": -60, "motionDirection": "out", "speedDirection": -1, "speedStrength": "medium", "speed_start": 0.12, "oriStrength": "medium", "ori_end": -30}, "ITI": 1.2868660165990398, "rt": 0.37607288360595703, "decision_var": 0.016080593872512636, "FBDuration": 1, "trial_count": 56, "ts": "motion", "response": "up", "onset": 333.7464824707193, "quest_estimate": 0.01578233202998105, "FB": 0, "displayFB": true, "punishment_amount": 0, "responseWindow": 1.5, "exp_stage": "adaptive_procedure", "stimResponseInterval": 1.2035113212017334, "trial_time": 4.109965085983276}
{"stimulusDuration": 1.5, "reward_amount": 1, "FBonset": 0, "stim": {"ori_start": 30, "motion_direction": "in", "speed_end": 0.1400412949599756, "oriDirection": 1, "oriBase": 30, "motionDirection": "in", "speedDirection": 1, "speedStrength": "medium", "speed_start": 0.12, "oriStrength": "medium", "ori_end": 60}, "ITI": 1.2904071705120788, "rt": 0.3919370174407959, "decision_var": 0.02004129495997562, "FBDuration": 1, "trial_count": 57, "ts": "motion", "response": "up", "onset": 340.2368598085201, "quest_estimate": 0.014666900827009735, "FB": 1, "displayFB": true, "punishment_amount": 0, "responseWindow": 1.5, "exp_stage": "adaptive_procedure", "stimResponseInterval": 1.427035512897328, "trial_time": 4.356691837310791}
{"stimulusDuration": 1.5, "reward_amount": 1, "FBonset": 0, "stim": {"ori_start": -60, "motion_direction": "out", "speed_end": 0.10109860836457055, "oriDirection": -1, "oriBase": -60, "motionDirection": "out", "speedDirection": -1, "speedStrength": "medium", "speed_start": 0.12, "oriStrength": "medium", "ori_end": -90}, "ITI": 0.625541242564676, "rt": 0.3227670192718506, "decision_var": 0.01890139163542945, "FBDuration": 1, "trial_count": 58, "ts": "motion", "response": "down", "onset": 346.95430249192947, "quest_estimate": 0.013566838077716886, "FB": 1, "displayFB": true, "punishment_amount": 0, "responseWindow": 1.5, "exp_stage": "adaptive_procedure", "stimResponseInterval": 1.4788344563444018, "trial_time": 4.335984230041504}
{"stimulusDuration": 1.5, "reward_amount": 1, "FBonset": 0, "stim": {"ori_start": 30, "motion_direction": "out", "speed_end": 0.13777680883836804, "oriDirection": 1, "oriBase": 30, "motionDirection": "out", "speedDirection": 1, "speedStrength": "medium", "speed_start": 0.12, "oriStrength": "medium", "ori_end": 60}, "ITI": 1.4628309762344545, "rt": 0.34305500984191895, "decision_var": 0.01777680883836804, "FBDuration": 1, "trial_count": 59, "ts": "motion", "response": "up", "onset": 353.0586781908385, "quest_estimate": 0.012481803294580422, "FB": 1, "displayFB": true, "punishment_amount": 0, "responseWindow": 1.5, "exp_stage": "adaptive_procedure", "stimResponseInterval": 0.6760080756235038, "trial_time": 3.5467329025268555}
{"stimulusDuration": 1.5, "reward_amount": 1, "FBonset": 0, "stim": {"ori_start": -60, "motion_direction": "out", "speed_end": 0.13666715170755409, "oriDirection": -1, "oriBase": -60, "motionDirection": "out", "speedDirection": 1, "speedStrength": "medium", "speed_start": 0.12, "oriStrength": "medium", "ori_end": -90}, "ITI": 1.4528887523483824, "rt": 0.3382120132446289, "decision_var": 0.01666715170755409, "FBDuration": 1, "trial_count": 60, "ts": "motion", "response": "up", "onset": 359.1975172426965, "quest_estimate": 0.011411473628273633, "FB": 1, "displayFB": true, "punishment_amount": 0, "responseWindow": 1.5, "exp_stage": "adaptive_procedure", "stimResponseInterval": 1.1423871732068736, "trial_time": 4.019134998321533}
{"stimulusDuration": 1.5, "reward_amount": 1, "FBonset": 0, "stim": {"ori_start": -60, "motion_direction": "in", "speed_end": 0.10442784619864831, "oriDirection": 1, "oriBase": -60, "motionDirection": "in", "speedDirection": -1, "speedStrength": "medium", "speed_start": 0.12, "oriStrength": "medium", "ori_end": -30}, "ITI": 0.5365152136675975, "rt": 0.2957761287689209, "decision_var": 0.015572153801351692, "FBDuration": 1, "trial_count": 61, "ts": "motion", "response": "down", "onset": 365.79279316825176, "quest_estimate": 0.01035554345012861, "FB": 1, "displayFB": true, "punishment_amount": 0, "responseWindow": 1.5, "exp_stage": "adaptive_procedure", "stimResponseInterval": 0.5526455288995273, "trial_time": 3.387671947479248}
{"stimulusDuration": 1.5, "reward_amount": 1, "FBonset": 0, "stim": {"ori_start": 30, "motion_direction": "out", "speed_end": 0.13449141938003728, "oriDirection": 1, "oriBase": 30, "motionDirection": "out", "speedDirection": 1, "speedStrength": "medium", "speed_start": 0.12, "oriStrength": "medium", "ori_end": 60}, "ITI": 0.9704763413076123, "rt": 0.3413879871368408, "decision_var": 0.014491419380037299, "FBDuration": 1, "trial_count": 62, "ts": "motion", "response": "up", "onset": 370.8819539108189, "quest_estimate": 0.009313723920853736, "FB": 1, "displayFB": true, "punishment_amount": 0, "responseWindow": 1.5, "exp_stage": "adaptive_procedure", "stimResponseInterval": 1.2322682187839438, "trial_time": 4.105410099029541}
{"stimulusDuration": 1.5, "reward_amount": 1, "FBonset": 0, "stim": {"ori_start": -60, "motion_direction": "out", "speed_end": 0.13342453149475964, "oriDirection": 1, "oriBase": -60, "motionDirection": "out", "speedDirection": 1, "speedStrength": "medium", "speed_start": 0.12, "oriStrength": "medium", "ori_end": -30}, "ITI": 0.9857720377935419, "rt": 0.45328211784362793, "decision_var": 0.013424531494759626, "FBDuration": 1, "trial_count": 63, "ts": "motion", "response": "up", "onset": 377.08469847091044, "quest_estimate": 0.00828588567209796, "FB": 1, "displayFB": true, "punishment_amount": 0, "responseWindow": 1.5, "exp_stage": "adaptive_procedure", "stimResponseInterval": 0.5163671498824101, "trial_time": 3.496546983718872}
{"stimulusDuration": 1.5, "reward_amount": 1, "FBonset": 0, "stim": {"ori_start": -60, "motion_direction": "in", "speed_end": 0.10762873426672631, "oriDirection": -1, "oriBase": -60, "motionDirection": "in", "speedDirection": -1, "speedStrength": "medium", "speed_start": 0.12, "oriStrength": "medium", "ori_end": -90}, "ITI": 0.5279218665304932, "rt": 0.3277161121368408, "decision_var": 0.012371265733273684, "FBDuration": 1, "trial_count": 64, "ts": "motion", "response": "down", "onset": 382.5868376585864, "quest_estimate": 0.007271638092378865, "FB": 1, "displayFB": true, "punishment_amount": 0, "responseWindow": 1.5, "exp_stage": "adaptive_procedure", "stimResponseInterval": 1.288855418831922, "trial_time": 4.1564319133758545}
