{"stimulusDuration": 1.5, "reward_amount": 1, "FBonset": 0, "stim": {"ori_start": 30, "motion_direction": "out", "speed_end": 0.18, "oriDirection": -1, "oriBase": 30, "motionDirection": "out", "speedDirection": 1, "speedStrength": "medium", "speed_start": 0.12, "oriStrength": "medium", "ori_end": 10}, "ITI": 0.6510141810742178, "rt": 0.38219499588012695, "decision_var": 0.06, "FBDuration": 1, "trial_count": 1, "ts": "motion", "response": "up", "onset": 2, "quest_estimate": 0.05512181546409533, "FB": 1, "displayFB": true, "punishment_amount": 0, "responseWindow": 1.5, "exp_stage": "adaptive_procedure", "stimResponseInterval": 1, "trial_time": 3.9203739166259766}
{"stimulusDuration": 1.5, "reward_amount": 1, "FBonset": 0, "stim": {"ori_start": -60, "motion_direction": "in", "speed_end": 0.18743287804823094, "oriDirection": -1, "oriBase": -60, "motionDirection": "in", "speedDirection": 1, "speedStrength": "medium", "speed_start": 0.12, "oriStrength": "medium", "ori_end": -80}, "ITI": 0.7260774613790368, "rt": 0.6860570907592773, "decision_var": 0.06743287804823093, "FBDuration": 1, "trial_count": 2, "ts": "motion", "response": "up", "onset": 7.651014181074218, "quest_estimate": 0.05033308329856928, "FB": 1, "displayFB": true, "punishment_amount": 0, "responseWindow": 1.5, "exp_stage": "adaptive_procedure", "stimResponseInterval": 1, "trial_time": 4.22110390663147}
{"stimulusDuration": 1.5, "reward_amount": 1, "FBonset": 0, "stim": {"ori_start": -60, "motion_direction": "in", "speed_end": 0.05804427672240243, "oriDirection": -1, "oriBase": -60, "motionDirection": "in", "speedDirection": -1, "speedStrength": "medium", "speed_start": 0.12, "oriStrength": "medium", "ori_end": -80}, "ITI": 1.1980466446148288, "rt": 0.3976631164550781, "decision_var": 0.06195572327759757, "FBDuration": 1, "trial_count": 3, "ts": "motion", "response": "down", "onset": 13.377091642453255, "quest_estimate": 0.04559902940856852, "FB": 1, "displayFB": true, "punishment_amount": 0, "responseWindow": 1.5, "exp_stage": "adaptive_procedure", "stimResponseInterval": 1, "trial_time": 3.938560962677002}
{"stimulusDuration": 1.5, "reward_amount": 1, "FBonset": 0, "stim": {"ori_start": 30, "motion_direction": "out", "speed_end": 0.06347530505147142, "oriDirection": -1, "oriBase": 30, "motionDirection": "out", "speedDirection": -1, "speedStrength": "medium", "speed_start": 0.12, "oriStrength": "medium", "ori_end": 10}, "ITI": 1.1221914851386954, "rt": 0.2689809799194336, "decision_var": 0.05652469494852858, "FBDuration": 1, "trial_count": 4, "ts": "motion", "response": "down", "onset": 19.575138287068086, "quest_estimate": 0.040940483189083374, "FB": 1, "displayFB": true, "punishment_amount": 0, "responseWindow": 1.5, "exp_stage": "adaptive_procedure", "stimResponseInterval": 1, "trial_time": 3.8092710971832275}
{"stimulusDuration": 1.5, "reward_amount": 1, "FBonset": 0, "stim": {"ori_start": -60, "motion_direction": "in", "speed_end": 0.06883409790244562, "oriDirection": 1, "oriBase": -60, "motionDirection": "in", "speedDirection": -1, "speedStrength": "medium", "speed_start": 0.12, "oriStrength": "medium", "ori_end": -40}, "ITI": 0.6900417591399687, "rt": 0.6475679874420166, "decision_var": 0.05116590209755438, "FBDuration": 1, "trial_count": 5, "ts": "motion", "response": "down", "onset": 25.697329772206782, "quest_estimate": 0.036380666762168126, "FB": 1, "displayFB": true, "punishment_amount": 0, "responseWindow": 1.5, "exp_stage": "adaptive_procedure", "stimResponseInterval": 1, "trial_time": 4.180166006088257}
{"stimulusDuration": 1.5, "reward_amount": 1, "FBonset": 0, "stim": {"ori_start": 30, "motion_direction": "in", "speed_end": 0.16590707842213084, "oriDirection": 1, "oriBase": 30, "motionDirection": "in", "speedDirection": 1, "speedStrength": "medium", "speed_start": 0.12, "oriStrength": "medium", "ori_end": 50}, "ITI": 1.156084771820875, "rt": 0.35373806953430176, "decision_var": 0.04590707842213085, "FBDuration": 1, "trial_count": 6, "ts": "motion", "response": "up", "onset": 31.38737153134675, "quest_estimate": 0.03193639061381656, "FB": 1, "displayFB": true, "punishment_amount": 0, "responseWindow": 1.5, "exp_stage": "adaptive_procedure", "stimResponseInterval": 1, "trial_time": 3.894428014755249}
{"stimulusDuration": 1.5, "reward_amount": 1, "FBonset": 0, "stim": {"ori_start": -60, "motion_direction": "in", "speed_end": 0.16076958382476186, "oriDirection": 1, "oriBase": -60, "motionDirection": "in", "speedDirection": 1, "speedStrength": "medium", "speed_start": 0.12, "oriStrength": "medium", "ori_end": -40}, "ITI": 0.9268118845397494, "rt": 0.47635507583618164, "decision_var": 0.04076958382476188, "FBDuration": 1, "trial_count": 7, "ts": "motion", "response": "up", "onset": 37.54345630316763, "quest_estimate": 0.0276242434887315, "FB": 1, "displayFB": true, "punishment_amount": 0, "responseWindow": 1.5, "exp_stage": "adaptive_procedure", "stimResponseInterval": 1, "trial_time": 4.009055852890015}
{"stimulusDuration": 1.5, "reward_amount": 1, "FBonset": 0, "stim": {"ori_start": -60, "motion_direction": "out", "speed_end": 0.08422603894501764, "oriDirection": -1, "oriBase": -60, "motionDirection": "out", "speedDirection": -1, "speedStrength": "medium", "speed_start": 0.12, "oriStrength": "medium", "ori_end": -80}, "ITI": 1.0736148421958704, "rt": 0.38619184494018555, "decision_var": 0.03577396105498236, "FBDuration": 1, "trial_count": 8, "ts": "motion", "response": "down", "onset": 43.47026818770738, "quest_estimate": 0.023457042023817605, "FB": 1, "displayFB": true, "punishment_amount": 0, "responseWindow": 1.5, "exp_stage": "adaptive_procedure", "stimResponseInterval": 1, "trial_time": 3.923013925552368}
{"stimulusDuration": 1.5, "reward_amount": 1, "FBonset": 0, "stim": {"ori_start": -60, "motion_direction": "out", "speed_end": 0.15093667273421024, "oriDirection": 1, "oriBase": -60, "motionDirection": "out", "speedDirection": 1, "speedStrength": "medium", "speed_start": 0.12, "oriStrength": "medium", "ori_end": -40}, "ITI": 1.4897663459242678, "rt": 0.34683680534362793, "decision_var": 0.030936672734210253, "FBDuration": 1, "trial_count": 9, "ts": "motion", "response": "up", "onset": 49.543883029903256, "quest_estimate": 0.019445609970317038, "FB": 1, "displayFB": true, "punishment_amount": 0, "responseWindow": 1.5, "exp_stage": "adaptive_procedure", "stimResponseInterval": 1, "trial_time": 3.8758418560028076}
{"stimulusDuration": 1.5, "reward_amount": 1, "FBonset": 0, "stim": {"ori_start": 30, "motion_direction": "in", "speed_end": 0.14627218950394694, "oriDirection": 1, "oriBase": 30, "motionDirection": "in", "speedDirection": 1, "speedStrength": "medium", "speed_start": 0.12, "oriStrength": "medium", "ori_end": 50}, "ITI": 0.6248564592914412, "rt": 0.43596506118774414, "decision_var": 0.026272189503946934, "FBDuration": 1, "trial_count": 10, "ts": "motion", "response": "up", "onset": 56.03364937582752, "quest_estimate": 0.015597910965232116, "FB": 1, "displayFB": true, "punishment_amount": 0, "responseWindow": 1.5, "exp_stage": "adaptive_procedure", "stimResponseInterval": 1, "trial_time": 3.9719650745391846}
{"stimulusDuration": 1.5, "reward_amount": 1, "FBonset": 0, "stim": {"ori_start": 30, "motion_direction": "out", "speed_end": 0.09820829856452415, "oriDirection": -1, "oriBase": 30, "motionDirection": "out", "speedDirection": -1, "speedStrength": "medium", "speed_start": 0.12, "oriStrength": "medium", "ori_end": 10}, "ITI": 1.3822125592757595, "rt": 0.3361501693725586, "decision_var": 0.021791701435475853, "FBDuration": 1, "trial_count": 11, "ts": "motion", "response": "down", "onset": 61.658505835118966, "quest_estimate": 0.011918795670004353, "FB": 1, "displayFB": true, "punishment_amount": 0, "responseWindow": 1.5, "exp_stage": "adaptive_procedure", "stimResponseInterval": 1, "trial_time": 3.861788034439087}
{"stimulusDuration": 1.5, "reward_amount": 1, "FBonset": 0, "stim": {"ori_start": -60, "motion_direction": "in", "speed_end": 0.10249706341512674, "oriDirection": 1, "oriBase": -60, "motionDirection": "in", "speedDirection": -1, "speedStrength": "medium", "speed_start": 0.12, "oriStrength": "medium", "ori_end": -40}, "ITI": 1.2871621215426514, "rt": 0.32079315185546875, "decision_var": 0.017502936584873265, "FBDuration": 1, "trial_count": 12, "ts": "motion", "response": "down", "onset": 68.04071839439473, "quest_estimate": 0.008410857322785778, "FB": 1, "displayFB": true, "punishment_amount": 0, "responseWindow": 1.5, "exp_stage": "adaptive_procedure", "stimResponseInterval": 1, "trial_time": 3.862323045730591}
{"stimulusDuration": 1.5, "reward_amount": 1, "FBonset": 0, "stim": {"ori_start": 30, "motion_direction": "out", "speed_end": 0.10658912296927264, "oriDirection": 1, "oriBase": 30, "motionDirection": "out", "speedDirection": -1, "speedStrength": "medium", "speed_start": 0.12, "oriStrength": "medium", "ori_end": 50}, "ITI": 1.281505357421662, "rt": 0.36098718643188477, "decision_var": 0.013410877030727346, "FBDuration": 1, "trial_count": 13, "ts": "motion", "response": "down", "onset": 74.32788051593738, "quest_estimate": 0.005075116474583627, "FB": 1, "displayFB": true, "punishment_amount": 0, "responseWindow": 1.5, "exp_stage": "adaptive_procedure", "stimResponseInterval": 1, "trial_time": 3.899911880493164}
{"stimulusDuration": 1.5, "reward_amount": 1, "FBonset": 0, "stim": {"ori_start": 30, "motion_direction": "out", "speed_end": 0.12951900022635335, "oriDirection": -1, "oriBase": 30, "motionDirection": "out", "speedDirection": 1, "speedStrength": "medium", "speed_start": 0.12, "oriStrength": "medium", "ori_end": 10}, "ITI": 1.162827599289621, "rt": 0.392653226852417, "decision_var": 0.00951900022635336, "FBDuration": 1, "trial_count": 14, "ts": "motion", "response": "down", "onset": 80.60938587335905, "quest_estimate": 0.016530914300844593, "FB": 0, "displayFB": true, "punishment_amount": 0, "responseWindow": 1.5, "exp_stage": "adaptive_procedure", "stimResponseInterval": 1, "trial_time": 3.928030014038086}
{"stimulusDuration": 1.5, "reward_amount": 1, "FBonset": 0, "stim": {"ori_start": -60, "motion_direction": "out", "speed_end": 0.097148211445723, "oriDirection": 1, "oriBase": -60, "motionDirection": "out", "speedDirection": -1, "speedStrength": "medium", "speed_start": 0.12, "oriStrength": "medium", "ori_end": -40}, "ITI": 0.7884134127927659, "rt": 0.44156885147094727, "decision_var": 0.022851788554277004, "FBDuration": 1, "trial_count": 15, "ts": "motion", "response": "down", "onset": 86.77221347264867, "quest_estimate": 0.013037250385043567, "FB": 1, "displayFB": true, "punishment_amount": 0, "responseWindow": 1.5, "exp_stage": "adaptive_procedure", "stimResponseInterval": 1, "trial_time": 3.978455066680908}
{"stimulusDuration": 1.5, "reward_amount": 1, "FBonset": 0, "stim": {"ori_start": -60, "motion_direction": "in", "speed_end": 0.13885518405721933, "oriDirection": 1, "oriBase": -60, "motionDirection": "in", "speedDirection": 1, "speedStrength": "medium", "speed_start": 0.12, "oriStrength": "medium", "ori_end": -40}, "ITI": 0.8589829974212884, "rt": 0.42847704887390137, "decision_var": 0.01885518405721933, "FBDuration": 1, "trial_count": 16, "ts": "motion", "response": "up", "onset": 92.56062688544144, "quest_estimate": 0.009694213883562328, "FB": 1, "displayFB": true, "punishment_amount": 0, "responseWindow": 1.5, "exp_stage": "adaptive_procedure", "stimResponseInterval": 1, "trial_time": 3.958688974380493}
{"stimulusDuration": 1.5, "reward_amount": 1, "FBonset": 0, "stim": {"ori_start": -60, "motion_direction": "out", "speed_end": 0.10497483230414967, "oriDirection": 1, "oriBase": -60, "motionDirection": "out", "speedDirection": -1, "speedStrength": "medium", "speed_start": 0.12, "oriStrength": "medium", "ori_end": -40}, "ITI": 1.4189574379199397, "rt": 0.4744679927825928, "decision_var": 0.015025167695850328, "FBDuration": 1, "trial_count": 17, "ts": "motion", "response": "down", "onset": 98.41960988286273, "quest_estimate": 0.0065021427939117235, "FB": 1, "displayFB": true, "punishment_amount": 0, "responseWindow": 1.5, "exp_stage": "adaptive_procedure", "stimResponseInterval": 1, "trial_time": 4.010113954544067}
{"stimulusDuration": 1.5, "reward_amount": 1, "FBonset": 0, "stim": {"ori_start": -60, "motion_direction": "out", "speed_end": 0.13136314034071164, "oriDirection": -1, "oriBase": -60, "motionDirection": "out", "speedDirection": 1, "speedStrength": "medium", "speed_start": 0.12, "oriStrength": "medium", "ori_end": -80}, "ITI": 1.337255996534886, "rt": 0.32300615310668945, "decision_var": 0.01136314034071164, "FBDuration": 1, "trial_count": 18, "ts": "motion", "response": "up", "onset": 104.83856732078267, "quest_estimate": 0.0034602784223100314, "FB": 1, "displayFB": true, "punishment_amount": 0, "responseWindow": 1.5, "exp_stage": "adaptive_procedure", "stimResponseInterval": 1, "trial_time": 3.8541111946105957}
{"stimulusDuration": 1.5, "reward_amount": 1, "FBonset": 0, "stim": {"ori_start": -60, "motion_direction": "in", "speed_end": 0.11213052148527669, "oriDirection": 1, "oriBase": -60, "motionDirection": "in", "speedDirection": -1, "speedStrength": "medium", "speed_start": 0.12, "oriStrength": "medium", "ori_end": -40}, "ITI": 0.7166413438489203, "rt": 0.3624989986419678, "decision_var": 0.007869478514723305, "FBDuration": 1, "trial_count": 19, "ts": "motion", "response": "down", "onset": 111.17582331731757, "quest_estimate": 0.0005664931936509437, "FB": 1, "displayFB": true, "punishment_amount": 0, "responseWindow": 1.5, "exp_stage": "adaptive_procedure", "stimResponseInterval": 1, "trial_time": 3.9044368267059326}
{"stimulusDuration": 1.5, "reward_amount": 1, "FBonset": 0, "stim": {"ori_start": -60, "motion_direction": "in", "speed_end": 0.1245428574786224, "oriDirection": -1, "oriBase": -60, "motionDirection": "in", "speedDirection": 1, "speedStrength": "medium", "speed_start": 0.12, "oriStrength": "medium", "ori_end": -80}, "ITI": 1.2254855667561646, "rt": 0.3290538787841797, "decision_var": 0.00454285747862241, "FBDuration": 1, "trial_count": 20, "ts": "motion", "response": "down", "onset": 116.89246466116649, "quest_estimate": 0.010452673819678564, "FB": 0, "displayFB": true, "punishment_amount": 0, "responseWindow": 1.5, "exp_stage": "adaptive_procedure", "stimResponseInterval": 1, "trial_time": 3.8691749572753906}
{"stimulusDuration": 1.5, "reward_amount": 1, "FBonset": 0, "stim": {"ori_start": 30, "motion_direction": "in", "speed_end": 0.10405174203447355, "oriDirection": 1, "oriBase": 30, "motionDirection": "in", "speedDirection": -1, "speedStrength": "medium", "speed_start": 0.12, "oriStrength": "medium", "ori_end": 50}, "ITI": 1.3733521295107938, "rt": 0.4226510524749756, "decision_var": 0.015948257965526444, "FBDuration": 1, "trial_count": 21, "ts": "motion", "response": "down", "onset": 123.11795022792265, "quest_estimate": 0.007404900967865419, "FB": 1, "displayFB": true, "punishment_amount": 0, "responseWindow": 1.5, "exp_stage": "adaptive_procedure", "stimResponseInterval": 1, "trial_time": 3.951503038406372}
{"stimulusDuration": 1.5, "reward_amount": 1, "FBonset": 0, "stim": {"ori_start": 30, "motion_direction": "in", "speed_end": 0.13250184897553857, "oriDirection": -1, "oriBase": 30, "motionDirection": "in", "speedDirection": 1, "speedStrength": "medium", "speed_start": 0.12, "oriStrength": "medium", "ori_end": 10}, "ITI": 0.6894963156697901, "rt": 0.3273601531982422, "decision_var": 0.012501848975538583, "FBDuration": 1, "trial_count": 22, "ts": "motion", "response": "up", "onset": 129.49130235743345, "quest_estimate": 0.004490657221514094, "FB": 1, "displayFB": true, "punishment_amount": 0, "responseWindow": 1.5, "exp_stage": "adaptive_procedure", "stimResponseInterval": 1, "trial_time": 3.8634071350097656}
{"stimulusDuration": 1.5, "reward_amount": 1, "FBonset": 0, "stim": {"ori_start": -60, "motion_direction": "out", "speed_end": 0.1107998457558862, "oriDirection": 1, "oriBase": -60, "motionDirection": "out", "speedDirection": -1, "speedStrength": "medium", "speed_start": 0.12, "oriStrength": "medium", "ori_end": -40}, "ITI": 0.6794025762227293, "rt": 0.35054898262023926, "decision_var": 0.009200154244113794, "FBDuration": 1, "trial_count": 23, "ts": "motion", "response": "down", "onset": 135.18079867310325, "quest_estimate": 0.0017081358038632602, "FB": 1, "displayFB": true, "punishment_amount": 0, "responseWindow": 1.5, "exp_stage": "adaptive_procedure", "stimResponseInterval": 1, "trial_time": 3.878596067428589}
{"stimulusDuration": 1.5, "reward_amount": 1, "FBonset": 0, "stim": {"ori_start": 30, "motion_direction": "out", "speed_end": 0.126041895986066, "oriDirection": -1, "oriBase": 30, "motionDirection": "out", "speedDirection": 1, "speedStrength": "medium", "speed_start": 0.12, "oriStrength": "medium", "ori_end": 10}, "ITI": 0.6153898034469808, "rt": 0.3016090393066406, "decision_var": 0.006041895986065998, "FBDuration": 1, "trial_count": 24, "ts": "motion", "response": "down", "onset": 140.860201249326, "quest_estimate": 0.011273962418511516, "FB": 0, "displayFB": true, "punishment_amount": 0, "responseWindow": 1.5, "exp_stage": "adaptive_procedure", "stimResponseInterval": 1, "trial_time": 3.8323049545288086}
{"stimulusDuration": 1.5, "reward_amount": 1, "FBonset": 0, "stim": {"ori_start": 30, "motion_direction": "in", "speed_end": 0.13689253666011508, "oriDirection": -1, "oriBase": 30, "motionDirection": "in", "speedDirection": 1, "speedStrength": "medium", "speed_start": 0.12, "oriStrength": "medium", "ori_end": 10}, "ITI": 0.7523653656160232, "rt": 0.40877509117126465, "decision_var": 0.0168925366601151, "FBDuration": 1, "trial_count": 25, "ts": "motion", "response": "up", "onset": 146.47559105277298, "quest_estimate": 0.008362153224075394, "FB": 1, "displayFB": true, "punishment_amount": 0, "responseWindow": 1.5, "exp_stage": "adaptive_procedure", "stimResponseInterval": 1, "trial_time": 3.9385528564453125}
{"stimulusDuration": 1.5, "reward_amount": 1, "FBonset": 0, "stim": {"ori_start": -60, "motion_direction": "out", "speed_end": 0.13364371778942402, "oriDirection": -1, "oriBase": -60, "motionDirection": "out", "speedDirection": 1, "speedStrength": "medium", "speed_start": 0.12, "oriStrength": "medium", "ori_end": -80}, "ITI": 1.3332033795063127, "rt": 0.4052729606628418, "decision_var": 0.013643717789424026, "FBDuration": 1, "trial_count": 26, "ts": "motion", "response": "up", "onset": 152.227956418389, "quest_estimate": 0.0055687995518429595, "FB": 1, "displayFB": true, "punishment_amount": 0, "responseWindow": 1.5, "exp_stage": "adaptive_procedure", "stimResponseInterval": 1, "trial_time": 3.9315619468688965}
{"stimulusDuration": 1.5, "reward_amount": 1, "FBonset": 0, "stim": {"ori_start": 30, "motion_direction": "out", "speed_end": 0.10948040870669558, "oriDirection": 1, "oriBase": 30, "motionDirection": "out", "speedDirection": -1, "speedStrength": "medium", "speed_start": 0.12, "oriStrength": "medium", "ori_end": 50}, "ITI": 0.97151550945411, "rt": 0.5341789722442627, "decision_var": 0.010519591293304417, "FBDuration": 1, "trial_count": 27, "ts": "motion", "response": "up", "onset": 158.5611597978953, "quest_estimate": 0.015265955128762047, "FB": 0, "displayFB": true, "punishment_amount": 0, "responseWindow": 1.5, "exp_stage": "adaptive_procedure", "stimResponseInterval": 1, "trial_time": 4.074429988861084}
{"stimulusDuration": 1.5, "reward_amount": 1, "FBonset": 0, "stim": {"ori_start": 30, "motion_direction": "in", "speed_end": 0.09872074444695131, "oriDirection": -1, "oriBase": 30, "motionDirection": "in", "speedDirection": -1, "speedStrength": "medium", "speed_start": 0.12, "oriStrength": "medium", "ori_end": 10}, "ITI": 1.214666282049921, "rt": 0.35240983963012695, "decision_var": 0.021279255553048687, "FBDuration": 1, "trial_count": 28, "ts": "motion", "response": "down", "onset": 164.53267530734942, "quest_estimate": 0.01237556871119256, "FB": 1, "displayFB": true, "punishment_amount": 0, "responseWindow": 1.5, "exp_stage": "adaptive_procedure", "stimResponseInterval": 1, "trial_time": 3.88604998588562}
{"stimulusDuration": 1.5, "reward_amount": 1, "FBonset": 0, "stim": {"ori_start": 30, "motion_direction": "in", "speed_end": 0.10189650686567485, "oriDirection": 1, "oriBase": 30, "motionDirection": "in", "speedDirection": -1, "speedStrength": "medium", "speed_start": 0.12, "oriStrength": "medium", "ori_end": 50}, "ITI": 0.9555381551357387, "rt": 0.31807589530944824, "decision_var": 0.018103493134325147, "FBDuration": 1, "trial_count": 29, "ts": "motion", "response": "down", "onset": 170.74734158939935, "quest_estimate": 0.009590635542363453, "FB": 1, "displayFB": true, "punishment_amount": 0, "responseWindow": 1.5, "exp_stage": "adaptive_procedure", "stimResponseInterval": 1, "trial_time": 3.851500988006592}
{"stimulusDuration": 1.5, "reward_amount": 1, "FBonset": 0, "stim": {"ori_start": -60, "motion_direction": "in", "speed_end": 0.13503631483851458, "oriDirection": 1, "oriBase": -60, "motionDirection": "in", "speedDirection": 1, "speedStrength": "medium", "speed_start": 0.12, "oriStrength": "medium", "ori_end": -40}, "ITI": 0.5879601882188829, "rt": 0.3459649085998535, "decision_var": 0.015036314838514586, "FBDuration": 1, "trial_count": 30, "ts": "motion", "response": "up", "onset": 176.7028797445351, "quest_estimate": 0.00691055221955543, "FB": 1, "displayFB": true, "punishment_amount": 0, "responseWindow": 1.5, "exp_stage": "adaptive_procedure", "stimResponseInterval": 1, "trial_time": 3.871830940246582}
{"stimulusDuration": 1.5, "reward_amount": 1, "FBonset": 0, "stim": {"ori_start": -60, "motion_direction": "out", "speed_end": 0.10792282933208236, "oriDirection": -1, "oriBase": -60, "motionDirection": "out", "speedDirection": -1, "speedStrength": "medium", "speed_start": 0.12, "oriStrength": "medium", "ori_end": -80}, "ITI": 1.2331875909564596, "rt": 0.3080141544342041, "decision_var": 0.012077170667917629, "FBDuration": 1, "trial_count": 31, "ts": "motion", "response": "down", "onset": 182.29083993275398, "quest_estimate": 0.004333993497081752, "FB": 1, "displayFB": true, "punishment_amount": 0, "responseWindow": 1.5, "exp_stage": "adaptive_procedure", "stimResponseInterval": 1, "trial_time": 3.8442890644073486}
{"stimulusDuration": 1.5, "reward_amount": 1, "FBonset": 0, "stim": {"ori_start": -60, "motion_direction": "out", "speed_end": 0.11077541947896294, "oriDirection": -1, "oriBase": -60, "motionDirection": "out", "speedDirection": -1, "speedStrength": "medium", "speed_start": 0.12, "oriStrength": "medium", "ori_end": -80}, "ITI": 0.9075821791244293, "rt": 0.3460688591003418, "decision_var": 0.00922458052103705, "FBDuration": 1, "trial_count": 32, "ts": "motion", "response": "down", "onset": 188.52402752371043, "quest_estimate": 0.0018594914564111706, "FB": 1, "displayFB": true, "punishment_amount": 0, "responseWindow": 1.5, "exp_stage": "adaptive_procedure", "stimResponseInterval": 1, "trial_time": 3.884024143218994}
{"stimulusDuration": 1.5, "reward_amount": 1, "FBonset": 0, "stim": {"ori_start": 30, "motion_direction": "in", "speed_end": 0.11352262019867658, "oriDirection": 1, "oriBase": 30, "motionDirection": "in", "speedDirection": -1, "speedStrength": "medium", "speed_start": 0.12, "oriStrength": "medium", "ori_end": 50}, "ITI": 0.9022723494464362, "rt": 0.5658340454101562, "decision_var": 0.006477379801323416, "FBDuration": 1, "trial_count": 33, "ts": "motion", "response": "up", "onset": 194.43160970283486, "quest_estimate": 0.010440493678457799, "FB": 0, "displayFB": true, "punishment_amount": 0, "responseWindow": 1.5, "exp_stage": "adaptive_procedure", "stimResponseInterval": 1, "trial_time": 4.109441041946411}
{"stimulusDuration": 1.5, "reward_amount": 1, "FBonset": 0, "stim": {"ori_start": -60, "motion_direction": "out", "speed_end": 0.135959704943396, "oriDirection": -1, "oriBase": -60, "motionDirection": "out", "speedDirection": 1, "speedStrength": "medium", "speed_start": 0.12, "oriStrength": "medium", "ori_end": -80}, "ITI": 0.7488795814093419, "rt": 0.3330841064453125, "decision_var": 0.015959704943396, "FBDuration": 1, "trial_count": 34, "ts": "motion", "response": "up", "onset": 200.3338820522813, "quest_estimate": 0.007871847569706165, "FB": 1, "displayFB": true, "punishment_amount": 0, "responseWindow": 1.5, "exp_stage": "adaptive_procedure", "stimResponseInterval": 1, "trial_time": 3.870119094848633}
{"stimulusDuration": 1.5, "reward_amount": 1, "FBonset": 0, "stim": {"ori_start": -60, "motion_direction": "in", "speed_end": 0.10684615236596523, "oriDirection": -1, "oriBase": -60, "motionDirection": "in", "speedDirection": -1, "speedStrength": "medium", "speed_start": 0.12, "oriStrength": "medium", "ori_end": -80}, "ITI": 0.7984471107242507, "rt": 0.42345190048217773, "decision_var": 0.013153847634034772, "FBDuration": 1, "trial_count": 35, "ts": "motion", "response": "down", "onset": 206.08276163369064, "quest_estimate": 0.005395756522867258, "FB": 1, "displayFB": true, "punishment_amount": 0, "responseWindow": 1.5, "exp_stage": "adaptive_procedure", "stimResponseInterval": 1, "trial_time": 3.959678888320923}
{"stimulusDuration": 1.5, "reward_amount": 1, "FBonset": 0, "stim": {"ori_start": 30, "motion_direction": "out", "speed_end": 0.10955834377526824, "oriDirection": -1, "oriBase": 30, "motionDirection": "out", "speedDirection": -1, "speedStrength": "medium", "speed_start": 0.12, "oriStrength": "medium", "ori_end": 10}, "ITI": 0.5184288055381394, "rt": 0.49626994132995605, "decision_var": 0.010441656224731748, "FBDuration": 1, "trial_count": 36, "ts": "motion", "response": "down", "onset": 211.8812087444149, "quest_estimate": 0.003010738524053709, "FB": 1, "displayFB": true, "punishment_amount": 0, "responseWindow": 1.5, "exp_stage": "adaptive_procedure", "stimResponseInterval": 1, "trial_time": 4.031930923461914}
{"stimulusDuration": 1.5, "reward_amount": 1, "FBonset": 0, "stim": {"ori_start": 30, "motion_direction": "out", "speed_end": 0.11217846960099978, "oriDirection": 1, "oriBase": 30, "motionDirection": "out", "speedDirection": -1, "speedStrength": "medium", "speed_start": 0.12, "oriStrength": "medium", "ori_end": 50}, "ITI": 1.1638376921566214, "rt": 0.39292216300964355, "decision_var": 0.007821530399000222, "FBDuration": 1, "trial_count": 37, "ts": "motion", "response": "up", "onset": 217.39963754995304, "quest_estimate": 0.011306808290708799, "FB": 0, "displayFB": true, "punishment_amount": 0, "responseWindow": 1.5, "exp_stage": "adaptive_procedure", "stimResponseInterval": 1, "trial_time": 3.924787998199463}
{"stimulusDuration": 1.5, "reward_amount": 1, "FBonset": 0, "stim": {"ori_start": 30, "motion_direction": "in", "speed_end": 0.10313142707408449, "oriDirection": 1, "oriBase": 30, "motionDirection": "in", "speedDirection": -1, "speedStrength": "medium", "speed_start": 0.12, "oriStrength": "medium", "ori_end": 50}, "ITI": 0.8672766063978287, "rt": 0.33110594749450684, "decision_var": 0.016868572925915516, "FBDuration": 1, "trial_count": 38, "ts": "motion", "response": "down", "onset": 223.56347524210966, "quest_estimate": 0.008844158637246191, "FB": 1, "displayFB": true, "punishment_amount": 0, "responseWindow": 1.5, "exp_stage": "adaptive_procedure", "stimResponseInterval": 1, "trial_time": 3.8633790016174316}
{"stimulusDuration": 1.5, "reward_amount": 1, "FBonset": 0, "stim": {"ori_start": -60, "motion_direction": "out", "speed_end": 0.13420475219209294, "oriDirection": 1, "oriBase": -60, "motionDirection": "out", "speedDirection": 1, "speedStrength": "medium", "speed_start": 0.12, "oriStrength": "medium", "ori_end": -40}, "ITI": 1.1165256969892177, "rt": 0.3467440605163574, "decision_var": 0.014204752192092926, "FBDuration": 1, "trial_count": 39, "ts": "motion", "response": "up", "onset": 229.4307518485075, "quest_estimate": 0.006464134580287814, "FB": 1, "displayFB": true, "punishment_amount": 0, "responseWindow": 1.5, "exp_stage": "adaptive_procedure", "stimResponseInterval": 1, "trial_time": 3.8767621517181396}
{"stimulusDuration": 1.5, "reward_amount": 1, "FBonset": 0, "stim": {"ori_start": 30, "motion_direction": "out", "speed_end": 0.13162334339368517, "oriDirection": 1, "oriBase": 30, "motionDirection": "out", "speedDirection": 1, "speedStrength": "medium", "speed_start": 0.12, "oriStrength": "medium", "ori_end": 50}, "ITI": 0.8519869828088218, "rt": 0.31862378120422363, "decision_var": 0.011623343393685169, "FBDuration": 1, "trial_count": 40, "ts": "motion", "response": "up", "onset": 235.5472775454967, "quest_estimate": 0.0041656620975586214, "FB": 1, "displayFB": true, "punishment_amount": 0, "responseWindow": 1.5, "exp_stage": "adaptive_procedure", "stimResponseInterval": 1, "trial_time": 3.8468430042266846}
{"stimulusDuration": 1.5, "reward_amount": 1, "FBonset": 0, "stim": {"ori_start": 30, "motion_direction": "out", "speed_end": 0.11087675272815381, "oriDirection": -1, "oriBase": 30, "motionDirection": "out", "speedDirection": -1, "speedStrength": "medium", "speed_start": 0.12, "oriStrength": "medium", "ori_end": 10}, "ITI": 0.553062752228698, "rt": 0.3965179920196533, "decision_var": 0.009123247271846185, "FBDuration": 1, "trial_count": 41, "ts": "motion", "response": "down", "onset": 241.39926452830554, "quest_estimate": 0.001947051366431779, "FB": 1, "displayFB": true, "punishment_amount": 0, "responseWindow": 1.5, "exp_stage": "adaptive_procedure", "stimResponseInterval": 1, "trial_time": 3.938154935836792}
{"stimulusDuration": 1.5, "reward_amount": 1, "FBonset": 0, "stim": {"ori_start": 30, "motion_direction": "in", "speed_end": 0.1267025830972684, "oriDirection": 1, "oriBase": 30, "motionDirection": "in", "speedDirection": 1, "speedStrength": "medium", "speed_start": 0.12, "oriStrength": "medium", "ori_end": 50}, "ITI": 1.2844118074418196, "rt": 0.40511012077331543, "decision_var": 0.006702583097268386, "FBDuration": 1, "trial_count": 42, "ts": "motion", "response": "up", "onset": 246.95232728053423, "quest_estimate": -0.00019307187598270603, "FB": 1, "displayFB": true, "punishment_amount": 0, "responseWindow": 1.5, "exp_stage": "adaptive_procedure", "stimResponseInterval": 1, "trial_time": 3.942765951156616}
{"stimulusDuration": 1.5, "reward_amount": 1, "FBonset": 0, "stim": {"ori_start": -60, "motion_direction": "out", "speed_end": 0.1156398291779432, "oriDirection": 1, "oriBase": -60, "motionDirection": "out", "speedDirection": -1, "speedStrength": "medium", "speed_start": 0.12, "oriStrength": "medium", "ori_end": -40}, "ITI": 0.703471382965594, "rt": 0.7492120265960693, "decision_var": 0.004360170822056794, "FBDuration": 1, "trial_count": 43, "ts": "motion", "response": "up", "onset": 253.23673908797605, "quest_estimate": 0.007250639343969342, "FB": 0, "displayFB": true, "punishment_amount": 0, "responseWindow": 1.5, "exp_stage": "adaptive_procedure", "stimResponseInterval": 1, "trial_time": 4.28161096572876}
{"stimulusDuration": 1.5, "reward_amount": 1, "FBonset": 0, "stim": {"ori_start": 30, "motion_direction": "in", "speed_end": 0.1324633433483377, "oriDirection": 1, "oriBase": 30, "motionDirection": "in", "speedDirection": 1, "speedStrength": "medium", "speed_start": 0.12, "oriStrength": "medium", "ori_end": 50}, "ITI": 1.046221706009069, "rt": 0.6047360897064209, "decision_var": 0.012463343348337715, "FBDuration": 1, "trial_count": 44, "ts": "motion", "response": "up", "onset": 258.9402104709416, "quest_estimate": 0.005037417740469362, "FB": 1, "displayFB": true, "punishment_amount": 0, "responseWindow": 1.5, "exp_stage": "adaptive_procedure", "stimResponseInterval": 1, "trial_time": 4.131756067276001}
{"stimulusDuration": 1.5, "reward_amount": 1, "FBonset": 0, "stim": {"ori_start": 30, "motion_direction": "out", "speed_end": 0.10992397356692098, "oriDirection": 1, "oriBase": 30, "motionDirection": "out", "speedDirection": -1, "speedStrength": "medium", "speed_start": 0.12, "oriStrength": "medium", "ori_end": 50}, "ITI": 0.6419169509082204, "rt": 0.2925288677215576, "decision_var": 0.010076026433079019, "FBDuration": 1, "trial_count": 45, "ts": "motion", "response": "up", "onset": 264.9864321769507, "quest_estimate": 0.012793245054850112, "FB": 0, "displayFB": true, "punishment_amount": 0, "responseWindow": 1.5, "exp_stage": "adaptive_procedure", "stimResponseInterval": 1, "trial_time": 3.821436882019043}
{"stimulusDuration": 1.5, "reward_amount": 1, "FBonset": 0, "stim": {"ori_start": -60, "motion_direction": "in", "speed_end": 0.13834935718283556, "oriDirection": -1, "oriBase": -60, "motionDirection": "in", "speedDirection": 1, "speedStrength": "medium", "speed_start": 0.12, "oriStrength": "medium", "ori_end": -80}, "ITI": 0.9695633429972131, "rt": 0.31654906272888184, "decision_var": 0.018349357182835556, "FBDuration": 1, "trial_count": 46, "ts": "motion", "response": "up", "onset": 270.62834912785894, "quest_estimate": 0.010527147286607336, "FB": 1, "displayFB": true, "punishment_amount": 0, "responseWindow": 1.5, "exp_stage": "adaptive_procedure", "stimResponseInterval": 1, "trial_time": 3.8522589206695557}
{"stimulusDuration": 1.5, "reward_amount": 1, "FBonset": 0, "stim": {"ori_start": -60, "motion_direction": "in", "speed_end": 0.10406284148641039, "oriDirection": -1, "oriBase": -60, "motionDirection": "in", "speedDirection": -1, "speedStrength": "medium", "speed_start": 0.12, "oriStrength": "medium", "ori_end": -80}, "ITI": 0.6273470580341682, "rt": 0.6916711330413818, "decision_var": 0.015937158513589608, "FBDuration": 1, "trial_count": 47, "ts": "motion", "response": "down", "onset": 276.59791247085616, "quest_estimate": 0.008327972975666564, "FB": 1, "displayFB": true, "punishment_amount": 0, "responseWindow": 1.5, "exp_stage": "adaptive_procedure", "stimResponseInterval": 1, "trial_time": 4.221918106079102}
{"stimulusDuration": 1.5, "reward_amount": 1, "FBonset": 0, "stim": {"ori_start": 30, "motion_direction": "in", "speed_end": 0.13359085498234527, "oriDirection": -1, "oriBase": 30, "motionDirection": "in", "speedDirection": 1, "speedStrength": "medium", "speed_start": 0.12, "oriStrength": "medium", "ori_end": 10}, "ITI": 1.4038995794441225, "rt": 0.3906059265136719, "decision_var": 0.013590854982345281, "FBDuration": 1, "trial_count": 48, "ts": "motion", "response": "up", "onset": 282.2252595288903, "quest_estimate": 0.00619456301487923, "FB": 1, "displayFB": true, "punishment_amount": 0, "responseWindow": 1.5, "exp_stage": "adaptive_procedure", "stimResponseInterval": 1, "trial_time": 3.9252028465270996}
{"stimulusDuration": 1.5, "reward_amount": 1, "FBonset": 0, "stim": {"ori_start": -60, "motion_direction": "out", "speed_end": 0.13130887483559828, "oriDirection": 1, "oriBase": -60, "motionDirection": "out", "speedDirection": 1, "speedStrength": "medium", "speed_start": 0.12, "oriStrength": "medium", "ori_end": -40}, "ITI": 0.7624320930120022, "rt": 0.49194884300231934, "decision_var": 0.011308874835598282, "FBDuration": 1, "trial_count": 49, "ts": "motion", "response": "up", "onset": 288.6291591083344, "quest_estimate": 0.004125973809187611, "FB": 1, "displayFB": true, "punishment_amount": 0, "responseWindow": 1.5, "exp_stage": "adaptive_procedure", "stimResponseInterval": 1, "trial_time": 4.02031683921814}
{"stimulusDuration": 1.5, "reward_amount": 1, "FBonset": 0, "stim": {"ori_start": -60, "motion_direction": "in", "speed_end": 0.12909015854765576, "oriDirection": 1, "oriBase": -60, "motionDirection": "in", "speedDirection": 1, "speedStrength": "medium", "speed_start": 0.12, "oriStrength": "medium", "ori_end": -40}, "ITI": 0.7159772943907735, "rt": 0.541222095489502, "decision_var": 0.009090158547655783, "FBDuration": 1, "trial_count": 50, "ts": "motion", "response": "down", "onset": 294.39159120134644, "quest_estimate": 0.011368417878363062, "FB": 0, "displayFB": true, "punishment_amount": 0, "responseWindow": 1.5, "exp_stage": "adaptive_procedure", "stimResponseInterval": 1, "trial_time": 4.07183313369751}
{"stimulusDuration": 1.5, "reward_amount": 1, "FBonset": 0, "stim": {"ori_start": 30, "motion_direction": "out", "speed_end": 0.13677205118674246, "oriDirection": 1, "oriBase": 30, "motionDirection": "out", "speedDirection": 1, "speedStrength": "medium", "speed_start": 0.12, "oriStrength": "medium", "ori_end": 50}, "ITI": 0.7044020506449377, "rt": 0.42931389808654785, "decision_var": 0.01677205118674245, "FBDuration": 1, "trial_count": 51, "ts": "motion", "response": "up", "onset": 300.1075684957372, "quest_estimate": 0.009253511752607357, "FB": 1, "displayFB": true, "punishment_amount": 0, "responseWindow": 1.5, "exp_stage": "adaptive_procedure", "stimResponseInterval": 1, "trial_time": 3.9586219787597656}
{"stimulusDuration": 1.5, "reward_amount": 1, "FBonset": 0, "stim": {"ori_start": -60, "motion_direction": "in", "speed_end": 0.1345313853606625, "oriDirection": -1, "oriBase": -60, "motionDirection": "in", "speedDirection": 1, "speedStrength": "medium", "speed_start": 0.12, "oriStrength": "medium", "ori_end": -80}, "ITI": 1.4137752446716754, "rt": 0.43566203117370605, "decision_var": 0.014531385360662515, "FBDuration": 1, "trial_count": 52, "ts": "motion", "response": "up", "onset": 305.81197054638216, "quest_estimate": 0.0071978418116626225, "FB": 1, "displayFB": true, "punishment_amount": 0, "responseWindow": 1.5, "exp_stage": "adaptive_procedure", "stimResponseInterval": 1, "trial_time": 3.9752728939056396}
{"stimulusDuration": 1.5, "reward_amount": 1, "FBonset": 0, "stim": {"ori_start": 30, "motion_direction": "out", "speed_end": 0.13234835305803103, "oriDirection": -1, "oriBase": 30, "motionDirection": "out", "speedDirection": 1, "speedStrength": "medium", "speed_start": 0.12, "oriStrength": "medium", "ori_end": 10}, "ITI": 0.7684188740324324, "rt": 0.512174129486084, "decision_var": 0.01234835305803103, "FBDuration": 1, "trial_count": 53, "ts": "motion", "response": "down", "onset": 312.22574579105384, "quest_estimate": 0.014424318011375434, "FB": 0, "displayFB": true, "punishment_amount": 0, "responseWindow": 1.5, "exp_stage": "adaptive_procedure", "stimResponseInterval": 1, "trial_time": 4.052572011947632}
{"stimulusDuration": 1.5, "reward_amount": 1, "FBonset": 0, "stim": {"ori_start": -60, "motion_direction": "in", "speed_end": 0.1000825117092285, "oriDirection": -1, "oriBase": -60, "motionDirection": "in", "speedDirection": -1, "speedStrength": "medium", "speed_start": 0.12, "oriStrength": "medium", "ori_end": -80}, "ITI": 1.182877068363747, "rt": 0.5714340209960938, "decision_var": 0.0199174882907715, "FBDuration": 1, "trial_count": 54, "ts": "motion", "response": "down", "onset": 317.99416466508626, "quest_estimate": 0.012334628514733506, "FB": 1, "displayFB": true, "punishment_amount": 0, "responseWindow": 1.5, "exp_stage": "adaptive_procedure", "stimResponseInterval": 1, "trial_time": 4.10808801651001}
{"stimulusDuration": 1.5, "reward_amount": 1, "FBonset": 0, "stim": {"ori_start": -60, "motion_direction": "in", "speed_end": 0.10227847887203619, "oriDirection": 1, "oriBase": -60, "motionDirection": "in", "speedDirection": -1, "speedStrength": "medium", "speed_start": 0.12, "oriStrength": "medium", "ori_end": -40}, "ITI": 1.386157092217686, "rt": 0.699124813079834, "decision_var": 0.01772152112796381, "FBDuration": 1, "trial_count": 55, "ts": "motion", "response": "down", "onset": 324.17704173345, "quest_estimate": 0.010299617563897523, "FB": 1, "displayFB": true, "punishment_amount": 0, "responseWindow": 1.5, "exp_stage": "adaptive_procedure", "stimResponseInterval": 1, "trial_time": 4.234225034713745}
{"stimulusDuration": 1.5, "reward_amount": 1, "FBonset": 0, "stim": {"ori_start": -60, "motion_direction": "out", "speed_end": 0.10442072015603915, "oriDirection": -1, "oriBase": -60, "motionDirection": "out", "speedDirection": -1, "speedStrength": "medium", "speed_start": 0.12, "oriStrength": "medium", "ori_end": -80}, "ITI": 1.1521434674071622, "rt": 0.5870320796966553, "decision_var": 0.015579279843960854, "FBDuration": 1, "trial_count": 56, "ts": "motion", "response": "down", "onset": 330.56319882566766, "quest_estimate": 0.008318233297194985, "FB": 1, "displayFB": true, "punishment_amount": 0, "responseWindow": 1.5, "exp_stage": "adaptive_procedure", "stimResponseInterval": 1, "trial_time": 4.1169939041137695}
{"stimulusDuration": 1.5, "reward_amount": 1, "FBonset": 0, "stim": {"ori_start": -60, "motion_direction": "out", "speed_end": 0.13348929678246804, "oriDirection": -1, "oriBase": -60, "motionDirection": "out", "speedDirection": 1, "speedStrength": "medium", "speed_start": 0.12, "oriStrength": "medium", "ori_end": -80}, "ITI": 1.1288335983953326, "rt": 0.5104959011077881, "decision_var": 0.013489296782468053, "FBDuration": 1, "trial_count": 57, "ts": "motion", "response": "up", "onset": 336.7153422930748, "quest_estimate": 0.006389437059061122, "FB": 1, "displayFB": true, "punishment_amount": 0, "responseWindow": 1.5, "exp_stage": "adaptive_procedure", "stimResponseInterval": 1, "trial_time": 4.036237955093384}
{"stimulusDuration": 1.5, "reward_amount": 1, "FBonset": 0, "stim": {"ori_start": 30, "motion_direction": "in", "speed_end": 0.13145034067425754, "oriDirection": -1, "oriBase": 30, "motionDirection": "in", "speedDirection": 1, "speedStrength": "medium", "speed_start": 0.12, "oriStrength": "medium", "ori_end": 10}, "ITI": 1.0968632488059535, "rt": 0.3844139575958252, "decision_var": 0.011450340674257528, "FBDuration": 1, "trial_count": 58, "ts": "motion", "response": "down", "onset": 342.8441758914701, "quest_estimate": 0.01317339908446511, "FB": 0, "displayFB": true, "punishment_amount": 0, "responseWindow": 1.5, "exp_stage": "adaptive_procedure", "stimResponseInterval": 1, "trial_time": 3.9125850200653076}
{"stimulusDuration": 1.5, "reward_amount": 1, "FBonset": 0, "stim": {"ori_start": 30, "motion_direction": "in", "speed_end": 0.10147553400353271, "oriDirection": -1, "oriBase": 30, "motionDirection": "in", "speedDirection": -1, "speedStrength": "medium", "speed_start": 0.12, "oriStrength": "medium", "ori_end": 10}, "ITI": 0.7881579264036263, "rt": 0.3647420406341553, "decision_var": 0.018524465996467294, "FBDuration": 1, "trial_count": 59, "ts": "motion", "response": "down", "onset": 348.9410391402761, "quest_estimate": 0.011214816455382436, "FB": 1, "displayFB": true, "punishment_amount": 0, "responseWindow": 1.5, "exp_stage": "adaptive_procedure", "stimResponseInterval": 1, "trial_time": 3.8940861225128174}
{"stimulusDuration": 1.5, "reward_amount": 1, "FBonset": 0, "stim": {"ori_start": 30, "motion_direction": "in", "speed_end": 0.10352625153941511, "oriDirection": -1, "oriBase": 30, "motionDirection": "in", "speedDirection": -1, "speedStrength": "medium", "speed_start": 0.12, "oriStrength": "medium", "ori_end": 10}, "ITI": 1.0461448999177154, "rt": 0.33544111251831055, "decision_var": 0.01647374846058488, "FBDuration": 1, "trial_count": 60, "ts": "motion", "response": "down", "onset": 354.7291970666797, "quest_estimate": 0.009304838069857796, "FB": 1, "displayFB": true, "punishment_amount": 0, "responseWindow": 1.5, "exp_stage": "adaptive_procedure", "stimResponseInterval": 1, "trial_time": 3.8746931552886963}
{"stimulusDuration": 1.5, "reward_amount": 1, "FBonset": 0, "stim": {"ori_start": 30, "motion_direction": "out", "speed_end": 0.13447056120823336, "oriDirection": 1, "oriBase": 30, "motionDirection": "out", "speedDirection": 1, "speedStrength": "medium", "speed_start": 0.12, "oriStrength": "medium", "ori_end": 50}, "ITI": 0.7662545936841053, "rt": 0.43880200386047363, "decision_var": 0.014470561208233354, "FBDuration": 1, "trial_count": 61, "ts": "motion", "response": "up", "onset": 360.7753419665974, "quest_estimate": 0.007442469416569918, "FB": 1, "displayFB": true, "punishment_amount": 0, "responseWindow": 1.5, "exp_stage": "adaptive_procedure", "stimResponseInterval": 1, "trial_time": 3.9798169136047363}
{"stimulusDuration": 1.5, "reward_amount": 1, "FBonset": 0, "stim": {"ori_start": 30, "motion_direction": "in", "speed_end": 0.10748649622202032, "oriDirection": -1, "oriBase": 30, "motionDirection": "in", "speedDirection": -1, "speedStrength": "medium", "speed_start": 0.12, "oriStrength": "medium", "ori_end": 10}, "ITI": 1.451346786131754, "rt": 0.3310511112213135, "decision_var": 0.012513503777979676, "FBDuration": 1, "trial_count": 62, "ts": "motion", "response": "down", "onset": 366.5415965602815, "quest_estimate": 0.005626996931575916, "FB": 1, "displayFB": true, "punishment_amount": 0, "responseWindow": 1.5, "exp_stage": "adaptive_procedure", "stimResponseInterval": 1, "trial_time": 3.870532989501953}
{"stimulusDuration": 1.5, "reward_amount": 1, "FBonset": 0, "stim": {"ori_start": 30, "motion_direction": "out", "speed_end": 0.13060169004969427, "oriDirection": 1, "oriBase": 30, "motionDirection": "out", "speedDirection": 1, "speedStrength": "medium", "speed_start": 0.12, "oriStrength": "medium", "ori_end": 50}, "ITI": 1.008165737877678, "rt": 0.583245038986206, "decision_var": 0.010601690049694273, "FBDuration": 1, "trial_count": 63, "ts": "motion", "response": "up", "onset": 372.99294334641326, "quest_estimate": 0.003857269432227653, "FB": 1, "displayFB": true, "punishment_amount": 0, "responseWindow": 1.5, "exp_stage": "adaptive_procedure", "stimResponseInterval": 1, "trial_time": 4.118952989578247}
{"stimulusDuration": 1.5, "reward_amount": 1, "FBonset": 0, "stim": {"ori_start": -60, "motion_direction": "out", "speed_end": 0.12873369825132153, "oriDirection": 1, "oriBase": -60, "motionDirection": "out", "speedDirection": 1, "speedStrength": "medium", "speed_start": 0.12, "oriStrength": "medium", "ori_end": -40}, "ITI": 0.6919293204690894, "rt": 0.42394304275512695, "decision_var": 0.008733698251321538, "FBDuration": 1, "trial_count": 64, "ts": "motion", "response": "right", "onset": 379.00110908429093, "quest_estimate": 0.010078002668335695, "FB": 0, "displayFB": true, "punishment_amount": 0, "responseWindow": 1.5, "exp_stage": "adaptive_procedure", "stimResponseInterval": 1, "trial_time": 3.950173854827881}
