{"stimulusDuration": 1.5, "reward_amount": 1, "FBonset": 0, "stim": {"ori_start": 30, "motion_direction": "out", "speed_end": 0.06, "oriDirection": 1, "oriBase": 30, "motionDirection": "out", "speedDirection": -1, "speedStrength": "medium", "speed_start": 0.12, "oriStrength": "medium", "ori_end": 60}, "ITI": 1.4302689333600684, "rt": 0.2549018859863281, "decision_var": 0.06, "FBDuration": 1, "trial_count": 1, "ts": "motion", "response": "down", "onset": 2, "quest_estimate": 0.055572435545296256, "FB": 1, "displayFB": true, "punishment_amount": 0, "responseWindow": 1.5, "exp_stage": "adaptive_procedure", "stimResponseInterval": 1.356764688577543, "trial_time": 4.146845817565918}
{"stimulusDuration": 1.5, "reward_amount": 1, "FBonset": 0, "stim": {"ori_start": -60, "motion_direction": "out", "speed_end": 0.052893043534512116, "oriDirection": 1, "oriBase": -60, "motionDirection": "out", "speedDirection": -1, "speedStrength": "medium", "speed_start": 0.12, "oriStrength": "medium", "ori_end": -30}, "ITI": 0.9110396507497107, "rt": 0.394866943359375, "decision_var": 0.06710695646548788, "FBDuration": 1, "trial_count": 2, "ts": "motion", "response": "down", "onset": 8.787033621937612, "quest_estimate": 0.05121762570208985, "FB": 1, "displayFB": true, "punishment_amount": 0, "responseWindow": 1.5, "exp_stage": "adaptive_procedure", "stimResponseInterval": 0.9108343136299628, "trial_time": 3.834472179412842}
{"stimulusDuration": 1.5, "reward_amount": 1, "FBonset": 0, "stim": {"ori_start": 30, "motion_direction": "out", "speed_end": 0.1821372494388258, "oriDirection": 1, "oriBase": 30, "motionDirection": "out", "speedDirection": 1, "speedStrength": "medium", "speed_start": 0.12, "oriStrength": "medium", "ori_end": 60}, "ITI": 1.429545711748871, "rt": 0.7245421409606934, "decision_var": 0.06213724943882581, "FBDuration": 1, "trial_count": 3, "ts": "motion", "response": "up", "onset": 14.608907586317285, "quest_estimate": 0.04690710273677346, "FB": 1, "displayFB": true, "punishment_amount": 0, "responseWindow": 1.5, "exp_stage": "adaptive_procedure", "stimResponseInterval": 0.8842758486995819, "trial_time": 4.14693808555603}
{"stimulusDuration": 1.5, "reward_amount": 1, "FBonset": 0, "stim": {"ori_start": 30, "motion_direction": "in", "speed_end": 0.06279703387280375, "oriDirection": -1, "oriBase": 30, "motionDirection": "in", "speedDirection": -1, "speedStrength": "medium", "speed_start": 0.12, "oriStrength": "medium", "ori_end": 0}, "ITI": 1.2988578123064025, "rt": 0.17612099647521973, "decision_var": 0.057202966127196254, "FBDuration": 1, "trial_count": 4, "ts": "motion", "response": "down", "onset": 20.92272914676574, "quest_estimate": 0.042661025730860294, "FB": 1, "displayFB": true, "punishment_amount": 0, "responseWindow": 1.5, "exp_stage": "adaptive_procedure", "stimResponseInterval": 1.0116835780725026, "trial_time": 3.7265639305114746}
{"stimulusDuration": 1.5, "reward_amount": 1, "FBonset": 0, "stim": {"ori_start": -60, "motion_direction": "in", "speed_end": 0.17232831190193645, "oriDirection": 1, "oriBase": -60, "motionDirection": "in", "speedDirection": 1, "speedStrength": "medium", "speed_start": 0.12, "oriStrength": "medium", "ori_end": -30}, "ITI": 1.2666160083950397, "rt": 0.3935081958770752, "decision_var": 0.05232831190193646, "FBDuration": 1, "trial_count": 5, "ts": "motion", "response": "up", "onset": 27.233270537144644, "quest_estimate": 0.038496692745964164, "FB": 1, "displayFB": true, "punishment_amount": 0, "responseWindow": 1.5, "exp_stage": "adaptive_procedure", "stimResponseInterval": 0.686412838794821, "trial_time": 3.6054959297180176}
{"stimulusDuration": 1.5, "reward_amount": 1, "FBonset": 0, "stim": {"ori_start": 30, "motion_direction": "out", "speed_end": 0.07246546875561204, "oriDirection": 1, "oriBase": 30, "motionDirection": "out", "speedDirection": -1, "speedStrength": "medium", "speed_start": 0.12, "oriStrength": "medium", "ori_end": 60}, "ITI": 1.4295764146861678, "rt": 0.30071496963500977, "decision_var": 0.04753453124438796, "FBDuration": 1, "trial_count": 6, "ts": "motion", "response": "down", "onset": 33.186299384334504, "quest_estimate": 0.03442963327580058, "FB": 1, "displayFB": true, "punishment_amount": 0, "responseWindow": 1.5, "exp_stage": "adaptive_procedure", "stimResponseInterval": 1.1441867670926413, "trial_time": 3.982800006866455}
{"stimulusDuration": 1.5, "reward_amount": 1, "FBonset": 0, "stim": {"ori_start": 30, "motion_direction": "in", "speed_end": 0.16284070682952406, "oriDirection": 1, "oriBase": 30, "motionDirection": "in", "speedDirection": 1, "speedStrength": "medium", "speed_start": 0.12, "oriStrength": "medium", "ori_end": 60}, "ITI": 1.275567237996119, "rt": 0.3664698600769043, "decision_var": 0.04284070682952407, "FBDuration": 1, "trial_count": 7, "ts": "motion", "response": "up", "onset": 39.76006256611331, "quest_estimate": 0.03047423756070853, "FB": 1, "displayFB": true, "punishment_amount": 0, "responseWindow": 1.5, "exp_stage": "adaptive_procedure", "stimResponseInterval": 1.034307635925546, "trial_time": 3.930514097213745}
{"stimulusDuration": 1.5, "reward_amount": 1, "FBonset": 0, "stim": {"ori_start": 30, "motion_direction": "in", "speed_end": 0.15826475337611082, "oriDirection": -1, "oriBase": 30, "motionDirection": "in", "speedDirection": 1, "speedStrength": "medium", "speed_start": 0.12, "oriStrength": "medium", "ori_end": 0}, "ITI": 1.496933202789118, "rt": 0.43309903144836426, "decision_var": 0.03826475337611082, "FBDuration": 1, "trial_count": 8, "ts": "motion", "response": "up", "onset": 46.06993744003498, "quest_estimate": 0.026641853459860948, "FB": 1, "displayFB": true, "punishment_amount": 0, "responseWindow": 1.5, "exp_stage": "adaptive_procedure", "stimResponseInterval": 0.6771226820463345, "trial_time": 3.6420397758483887}
{"stimulusDuration": 1.5, "reward_amount": 1, "FBonset": 0, "stim": {"ori_start": 30, "motion_direction": "in", "speed_end": 0.15382128055566024, "oriDirection": 1, "oriBase": 30, "motionDirection": "in", "speedDirection": 1, "speedStrength": "medium", "speed_start": 0.12, "oriStrength": "medium", "ori_end": 60}, "ITI": 1.2072736788056697, "rt": 0.310528039932251, "decision_var": 0.03382128055566024, "FBDuration": 1, "trial_count": 9, "ts": "motion", "response": "up", "onset": 52.24399332487043, "quest_estimate": 0.022941697939569572, "FB": 1, "displayFB": true, "punishment_amount": 0, "responseWindow": 1.5, "exp_stage": "adaptive_procedure", "stimResponseInterval": 1.0037246020990713, "trial_time": 3.8541500568389893}
{"stimulusDuration": 1.5, "reward_amount": 1, "FBonset": 0, "stim": {"ori_start": -60, "motion_direction": "in", "speed_end": 0.1495225923008614, "oriDirection": -1, "oriBase": -60, "motionDirection": "in", "speedDirection": 1, "speedStrength": "medium", "speed_start": 0.12, "oriStrength": "medium", "ori_end": -90}, "ITI": 1.4116815019402196, "rt": 0.29300498962402344, "decision_var": 0.029522592300861416, "FBDuration": 1, "trial_count": 10, "ts": "motion", "response": "up", "onset": 58.45499160577517, "quest_estimate": 0.019381359140826553, "FB": 1, "displayFB": true, "punishment_amount": 0, "responseWindow": 1.5, "exp_stage": "adaptive_procedure", "stimResponseInterval": 0.8289841960613629, "trial_time": 3.648667097091675}
{"stimulusDuration": 1.5, "reward_amount": 1, "FBonset": 0, "stim": {"ori_start": 30, "motion_direction": "in", "speed_end": 0.09462064804362322, "oriDirection": -1, "oriBase": 30, "motionDirection": "in", "speedDirection": -1, "speedStrength": "medium", "speed_start": 0.12, "oriStrength": "medium", "ori_end": 0}, "ITI": 0.7604160475417263, "rt": 0.3588829040527344, "decision_var": 0.025379351956376778, "FBDuration": 1, "trial_count": 11, "ts": "motion", "response": "down", "onset": 64.69565730377676, "quest_estimate": 0.015966211931851486, "FB": 1, "displayFB": true, "punishment_amount": 0, "responseWindow": 1.5, "exp_stage": "adaptive_procedure", "stimResponseInterval": 0.6067837188205512, "trial_time": 3.500746011734009}
{"stimulusDuration": 1.5, "reward_amount": 1, "FBonset": 0, "stim": {"ori_start": -60, "motion_direction": "in", "speed_end": 0.14139964959463944, "oriDirection": -1, "oriBase": -60, "motionDirection": "in", "speedDirection": 1, "speedStrength": "medium", "speed_start": 0.12, "oriStrength": "medium", "ori_end": -90}, "ITI": 0.8941722894047348, "rt": 0.2987101078033447, "decision_var": 0.02139964959463945, "FBDuration": 1, "trial_count": 12, "ts": "motion", "response": "up", "onset": 70.06285707013903, "quest_estimate": 0.012699279174540806, "FB": 1, "displayFB": true, "punishment_amount": 0, "responseWindow": 1.5, "exp_stage": "adaptive_procedure", "stimResponseInterval": 0.9266931383420962, "trial_time": 3.7574210166931152}
{"stimulusDuration": 1.5, "reward_amount": 1, "FBonset": 0, "stim": {"ori_start": -60, "motion_direction": "in", "speed_end": 0.13758894944504604, "oriDirection": 1, "oriBase": -60, "motionDirection": "in", "speedDirection": 1, "speedStrength": "medium", "speed_start": 0.12, "oriStrength": "medium", "ori_end": -30}, "ITI": 1.171060829878735, "rt": 0.3048129081726074, "decision_var": 0.017588949445046048, "FBDuration": 1, "trial_count": 13, "ts": "motion", "response": "down", "onset": 75.88372249788586, "quest_estimate": 0.024005926536917944, "FB": 0, "displayFB": true, "punishment_amount": 0, "responseWindow": 1.5, "exp_stage": "adaptive_procedure", "stimResponseInterval": 1.3238975978479774, "trial_time": 4.171105861663818}
{"stimulusDuration": 1.5, "reward_amount": 1, "FBonset": 0, "stim": {"ori_start": -60, "motion_direction": "in", "speed_end": 0.15064763082256705, "oriDirection": 1, "oriBase": -60, "motionDirection": "in", "speedDirection": 1, "speedStrength": "medium", "speed_start": 0.12, "oriStrength": "medium", "ori_end": -30}, "ITI": 0.5419750895995237, "rt": 0.47893691062927246, "decision_var": 0.030647630822567065, "FBDuration": 1, "trial_count": 14, "ts": "motion", "response": "up", "onset": 82.37868092561257, "quest_estimate": 0.02062161552634919, "FB": 1, "displayFB": true, "punishment_amount": 0, "responseWindow": 1.5, "exp_stage": "adaptive_procedure", "stimResponseInterval": 0.5491470360093249, "trial_time": 3.5563580989837646}
{"stimulusDuration": 1.5, "reward_amount": 1, "FBonset": 0, "stim": {"ori_start": 30, "motion_direction": "in", "speed_end": 0.1467848592580323, "oriDirection": 1, "oriBase": 30, "motionDirection": "in", "speedDirection": 1, "speedStrength": "medium", "speed_start": 0.12, "oriStrength": "medium", "ori_end": 60}, "ITI": 1.4550380877887994, "rt": 0.34447288513183594, "decision_var": 0.026784859258032298, "FBDuration": 1, "trial_count": 15, "ts": "motion", "response": "up", "onset": 87.46980305122142, "quest_estimate": 0.01736426400346692, "FB": 1, "displayFB": true, "punishment_amount": 0, "responseWindow": 1.5, "exp_stage": "adaptive_procedure", "stimResponseInterval": 0.8133305516968776, "trial_time": 3.6952638626098633}
{"stimulusDuration": 1.5, "reward_amount": 1, "FBonset": 0, "stim": {"ori_start": -60, "motion_direction": "out", "speed_end": 0.14306012770861712, "oriDirection": 1, "oriBase": -60, "motionDirection": "out", "speedDirection": 1, "speedStrength": "medium", "speed_start": 0.12, "oriStrength": "medium", "ori_end": -30}, "ITI": 1.1372323627761762, "rt": 0.37207698822021484, "decision_var": 0.02306012770861713, "FBDuration": 1, "trial_count": 16, "ts": "motion", "response": "up", "onset": 93.73817169070709, "quest_estimate": 0.014236725574796973, "FB": 1, "displayFB": true, "punishment_amount": 0, "responseWindow": 1.5, "exp_stage": "adaptive_procedure", "stimResponseInterval": 0.6305859022916582, "trial_time": 3.5343539714813232}
{"stimulusDuration": 1.5, "reward_amount": 1, "FBonset": 0, "stim": {"ori_start": -60, "motion_direction": "out", "speed_end": 0.1394775679950267, "oriDirection": 1, "oriBase": -60, "motionDirection": "out", "speedDirection": 1, "speedStrength": "medium", "speed_start": 0.12, "oriStrength": "medium", "ori_end": -30}, "ITI": 0.7239346551546064, "rt": 0.3311460018157959, "decision_var": 0.0194775679950267, "FBDuration": 1, "trial_count": 17, "ts": "motion", "response": "up", "onset": 99.50598995577492, "quest_estimate": 0.011240453238661872, "FB": 1, "displayFB": true, "punishment_amount": 0, "responseWindow": 1.5, "exp_stage": "adaptive_procedure", "stimResponseInterval": 0.5386851729960052, "trial_time": 3.3980441093444824}
{"stimulusDuration": 1.5, "reward_amount": 1, "FBonset": 0, "stim": {"ori_start": -60, "motion_direction": "out", "speed_end": 0.13603998100898487, "oriDirection": -1, "oriBase": -60, "motionDirection": "out", "speedDirection": 1, "speedStrength": "medium", "speed_start": 0.12, "oriStrength": "medium", "ori_end": -90}, "ITI": 1.4565196923787158, "rt": 0.3680150508880615, "decision_var": 0.01603998100898487, "FBDuration": 1, "trial_count": 18, "ts": "motion", "response": "up", "onset": 104.76860978392554, "quest_estimate": 0.008375442061885029, "FB": 1, "displayFB": true, "punishment_amount": 0, "responseWindow": 1.5, "exp_stage": "adaptive_procedure", "stimResponseInterval": 1.2253546217033835, "trial_time": 4.124699115753174}
{"stimulusDuration": 1.5, "reward_amount": 1, "FBonset": 0, "stim": {"ori_start": -60, "motion_direction": "out", "speed_end": 0.1072515969402516, "oriDirection": 1, "oriBase": -60, "motionDirection": "out", "speedDirection": -1, "speedStrength": "medium", "speed_start": 0.12, "oriStrength": "medium", "ori_end": -30}, "ITI": 1.251059165067131, "rt": 0.4118039608001709, "decision_var": 0.012748403059748399, "FBDuration": 1, "trial_count": 19, "ts": "motion", "response": "up", "onset": 111.45048409800764, "quest_estimate": 0.01823907796273709, "FB": 0, "displayFB": true, "punishment_amount": 0, "responseWindow": 1.5, "exp_stage": "adaptive_procedure", "stimResponseInterval": 0.6187244138877177, "trial_time": 3.5601820945739746}
{"stimulusDuration": 1.5, "reward_amount": 1, "FBonset": 0, "stim": {"ori_start": -60, "motion_direction": "out", "speed_end": 0.09595499094434438, "oriDirection": -1, "oriBase": -60, "motionDirection": "out", "speedDirection": -1, "speedStrength": "medium", "speed_start": 0.12, "oriStrength": "medium", "ori_end": -90}, "ITI": 1.2044051326703487, "rt": 0.41222691535949707, "decision_var": 0.02404500905565561, "FBDuration": 1, "trial_count": 20, "ts": "motion", "response": "down", "onset": 117.32026767696249, "quest_estimate": 0.015250895898265067, "FB": 1, "displayFB": true, "punishment_amount": 0, "responseWindow": 1.5, "exp_stage": "adaptive_procedure", "stimResponseInterval": 0.6620497836520505, "trial_time": 3.615675926208496}
{"stimulusDuration": 1.5, "reward_amount": 1, "FBonset": 0, "stim": {"ori_start": 30, "motion_direction": "out", "speed_end": 0.09932605639804343, "oriDirection": -1, "oriBase": 30, "motionDirection": "out", "speedDirection": -1, "speedStrength": "medium", "speed_start": 0.12, "oriStrength": "medium", "ori_end": 0}, "ITI": 0.9884226442994972, "rt": 0.3708958625793457, "decision_var": 0.020673943601956568, "FBDuration": 1, "trial_count": 21, "ts": "motion", "response": "down", "onset": 123.18672259328488, "quest_estimate": 0.012379049076979953, "FB": 1, "displayFB": true, "punishment_amount": 0, "responseWindow": 1.5, "exp_stage": "adaptive_procedure", "stimResponseInterval": 1.3518765593799176, "trial_time": 4.2632880210876465}
{"stimulusDuration": 1.5, "reward_amount": 1, "FBonset": 0, "stim": {"ori_start": 30, "motion_direction": "out", "speed_end": 0.10257256120976041, "oriDirection": 1, "oriBase": 30, "motionDirection": "out", "speedDirection": -1, "speedStrength": "medium", "speed_start": 0.12, "oriStrength": "medium", "ori_end": 60}, "ITI": 1.3538542394917417, "rt": 0.2929539680480957, "decision_var": 0.017427438790239592, "FBDuration": 1, "trial_count": 22, "ts": "motion", "response": "down", "onset": 129.5270217969643, "quest_estimate": 0.009623778735387715, "FB": 1, "displayFB": true, "punishment_amount": 0, "responseWindow": 1.5, "exp_stage": "adaptive_procedure", "stimResponseInterval": 0.929516922616922, "trial_time": 3.7533090114593506}
{"stimulusDuration": 1.5, "reward_amount": 1, "FBonset": 0, "stim": {"ori_start": 30, "motion_direction": "in", "speed_end": 0.1056937933658032, "oriDirection": 1, "oriBase": 30, "motionDirection": "in", "speedDirection": -1, "speedStrength": "medium", "speed_start": 0.12, "oriStrength": "medium", "ori_end": 60}, "ITI": 0.7060792135718743, "rt": 0.3014819622039795, "decision_var": 0.014306206634196801, "FBDuration": 1, "trial_count": 23, "ts": "motion", "response": "down", "onset": 135.81039295907297, "quest_estimate": 0.006984297758803479, "FB": 1, "displayFB": true, "punishment_amount": 0, "responseWindow": 1.5, "exp_stage": "adaptive_procedure", "stimResponseInterval": 1.4403149735217915, "trial_time": 4.272063970565796}
{"stimulusDuration": 1.5, "reward_amount": 1, "FBonset": 0, "stim": {"ori_start": -60, "motion_direction": "in", "speed_end": 0.10868985967559945, "oriDirection": -1, "oriBase": -60, "motionDirection": "in", "speedDirection": -1, "speedStrength": "medium", "speed_start": 0.12, "oriStrength": "medium", "ori_end": -90}, "ITI": 0.6803398928881395, "rt": 0.2702920436859131, "decision_var": 0.011310140324400544, "FBDuration": 1, "trial_count": 24, "ts": "motion", "response": "down", "onset": 141.95678714616665, "quest_estimate": 0.004459154598082847, "FB": 1, "displayFB": true, "punishment_amount": 0, "responseWindow": 1.5, "exp_stage": "adaptive_procedure", "stimResponseInterval": 1.0761279885341049, "trial_time": 3.876565933227539}
{"stimulusDuration": 1.5, "reward_amount": 1, "FBonset": 0, "stim": {"ori_start": -60, "motion_direction": "out", "speed_end": 0.11156151554526299, "oriDirection": 1, "oriBase": -60, "motionDirection": "out", "speedDirection": -1, "speedStrength": "medium", "speed_start": 0.12, "oriStrength": "medium", "ori_end": -30}, "ITI": 1.4097484191068306, "rt": 0.28406786918640137, "decision_var": 0.008438484454737008, "FBDuration": 1, "trial_count": 25, "ts": "motion", "response": "up", "onset": 147.7132550275889, "quest_estimate": 0.013125531242024022, "FB": 0, "displayFB": true, "punishment_amount": 0, "responseWindow": 1.5, "exp_stage": "adaptive_procedure", "stimResponseInterval": 0.7963619940499287, "trial_time": 3.618539810180664}
{"stimulusDuration": 1.5, "reward_amount": 1, "FBonset": 0, "stim": {"ori_start": 30, "motion_direction": "out", "speed_end": 0.1383077284279035, "oriDirection": -1, "oriBase": 30, "motionDirection": "out", "speedDirection": 1, "speedStrength": "medium", "speed_start": 0.12, "oriStrength": "medium", "ori_end": 0}, "ITI": 0.7082841522749714, "rt": 0.46707892417907715, "decision_var": 0.01830772842790352, "FBDuration": 1, "trial_count": 26, "ts": "motion", "response": "up", "onset": 153.91936544074565, "quest_estimate": 0.01048039814525549, "FB": 1, "displayFB": true, "punishment_amount": 0, "responseWindow": 1.5, "exp_stage": "adaptive_procedure", "stimResponseInterval": 1.4618533594667493, "trial_time": 4.459430932998657}
{"stimulusDuration": 1.5, "reward_amount": 1, "FBonset": 0, "stim": {"ori_start": -60, "motion_direction": "out", "speed_end": 0.10465254690002224, "oriDirection": -1, "oriBase": -60, "motionDirection": "out", "speedDirection": -1, "speedStrength": "medium", "speed_start": 0.12, "oriStrength": "medium", "ori_end": -90}, "ITI": 0.8869100370599186, "rt": 0.42035603523254395, "decision_var": 0.01534745309997776, "FBDuration": 1, "trial_count": 27, "ts": "motion", "response": "up", "onset": 160.08950295248738, "quest_estimate": 0.019672077408083813, "FB": 0, "displayFB": true, "punishment_amount": 0, "responseWindow": 1.5, "exp_stage": "adaptive_procedure", "stimResponseInterval": 1.1108150449313143, "trial_time": 4.072542905807495}
{"stimulusDuration": 1.5, "reward_amount": 1, "FBonset": 0, "stim": {"ori_start": -60, "motion_direction": "in", "speed_end": 0.09445780888826763, "oriDirection": 1, "oriBase": -60, "motionDirection": "in", "speedDirection": -1, "speedStrength": "medium", "speed_start": 0.12, "oriStrength": "medium", "ori_end": -30}, "ITI": 0.8301070201111214, "rt": 0.30590105056762695, "decision_var": 0.025542191111732365, "FBDuration": 1, "trial_count": 28, "ts": "motion", "response": "down", "onset": 166.0872280344786, "quest_estimate": 0.0169428601087271, "FB": 1, "displayFB": true, "punishment_amount": 0, "responseWindow": 1.5, "exp_stage": "adaptive_procedure", "stimResponseInterval": 0.7638716906294747, "trial_time": 3.6112418174743652}
{"stimulusDuration": 1.5, "reward_amount": 1, "FBonset": 0, "stim": {"ori_start": -60, "motion_direction": "out", "speed_end": 0.14254065340823535, "oriDirection": -1, "oriBase": -60, "motionDirection": "out", "speedDirection": 1, "speedStrength": "medium", "speed_start": 0.12, "oriStrength": "medium", "ori_end": -90}, "ITI": 1.1489168612913394, "rt": 0.29563379287719727, "decision_var": 0.022540653408235342, "FBDuration": 1, "trial_count": 29, "ts": "motion", "response": "up", "onset": 171.6812067452192, "quest_estimate": 0.014306636592592806, "FB": 1, "displayFB": true, "punishment_amount": 0, "responseWindow": 1.5, "exp_stage": "adaptive_procedure", "stimResponseInterval": 1.0873598878962594, "trial_time": 3.9124350547790527}
{"stimulusDuration": 1.5, "reward_amount": 1, "FBonset": 0, "stim": {"ori_start": 30, "motion_direction": "out", "speed_end": 0.10036545941434183, "oriDirection": 1, "oriBase": 30, "motionDirection": "out", "speedDirection": -1, "speedStrength": "medium", "speed_start": 0.12, "oriStrength": "medium", "ori_end": 60}, "ITI": 1.1097127715858648, "rt": 0.29177284240722656, "decision_var": 0.019634540585658174, "FBDuration": 1, "trial_count": 30, "ts": "motion", "response": "down", "onset": 177.9174834944068, "quest_estimate": 0.011762929728197175, "FB": 1, "displayFB": true, "punishment_amount": 0, "responseWindow": 1.5, "exp_stage": "adaptive_procedure", "stimResponseInterval": 0.976001997890485, "trial_time": 3.8086609840393066}
{"stimulusDuration": 1.5, "reward_amount": 1, "FBonset": 0, "stim": {"ori_start": -60, "motion_direction": "out", "speed_end": 0.1368232302824331, "oriDirection": 1, "oriBase": -60, "motionDirection": "out", "speedDirection": 1, "speedStrength": "medium", "speed_start": 0.12, "oriStrength": "medium", "ori_end": -30}, "ITI": 0.7501153585541318, "rt": 0.334226131439209, "decision_var": 0.016823230282433092, "FBDuration": 1, "trial_count": 31, "ts": "motion", "response": "up", "onset": 184.00319826388315, "quest_estimate": 0.009311618523520873, "FB": 1, "displayFB": true, "punishment_amount": 0, "responseWindow": 1.5, "exp_stage": "adaptive_procedure", "stimResponseInterval": 0.6527680549678054, "trial_time": 3.523387908935547}
{"stimulusDuration": 1.5, "reward_amount": 1, "FBonset": 0, "stim": {"ori_start": 30, "motion_direction": "in", "speed_end": 0.10589329924560381, "oriDirection": 1, "oriBase": 30, "motionDirection": "in", "speedDirection": -1, "speedStrength": "medium", "speed_start": 0.12, "oriStrength": "medium", "ori_end": 60}, "ITI": 1.1295479131412915, "rt": 0.30034399032592773, "decision_var": 0.014106700754396191, "FBDuration": 1, "trial_count": 32, "ts": "motion", "response": "down", "onset": 189.4060816774051, "quest_estimate": 0.006951511612211116, "FB": 1, "displayFB": true, "punishment_amount": 0, "responseWindow": 1.5, "exp_stage": "adaptive_procedure", "stimResponseInterval": 0.6099214314804453, "trial_time": 3.441725969314575}
{"stimulusDuration": 1.5, "reward_amount": 1, "FBonset": 0, "stim": {"ori_start": -60, "motion_direction": "out", "speed_end": 0.10851591649722672, "oriDirection": 1, "oriBase": -60, "motionDirection": "out", "speedDirection": -1, "speedStrength": "medium", "speed_start": 0.12, "oriStrength": "medium", "ori_end": -30}, "ITI": 0.8760991711683581, "rt": 0.39493393898010254, "decision_var": 0.011484083502773267, "FBDuration": 1, "trial_count": 33, "ts": "motion", "response": "down", "onset": 195.14555102202684, "quest_estimate": 0.004681493746072213, "FB": 1, "displayFB": true, "punishment_amount": 0, "responseWindow": 1.5, "exp_stage": "adaptive_procedure", "stimResponseInterval": 0.6069095527200039, "trial_time": 3.5415568351745605}
{"stimulusDuration": 1.5, "reward_amount": 1, "FBonset": 0, "stim": {"ori_start": 30, "motion_direction": "out", "speed_end": 0.1289544146299708, "oriDirection": 1, "oriBase": 30, "motionDirection": "out", "speedDirection": 1, "speedStrength": "medium", "speed_start": 0.12, "oriStrength": "medium", "ori_end": 60}, "ITI": 0.6379913655965652, "rt": 0.39692211151123047, "decision_var": 0.008954414629970785, "FBDuration": 1, "trial_count": 34, "ts": "motion", "response": "up", "onset": 200.6285597459152, "quest_estimate": 0.0024999931190303817, "FB": 1, "displayFB": true, "punishment_amount": 0, "responseWindow": 1.5, "exp_stage": "adaptive_procedure", "stimResponseInterval": 0.5815288735887636, "trial_time": 3.516630172729492}
{"stimulusDuration": 1.5, "reward_amount": 1, "FBonset": 0, "stim": {"ori_start": -60, "motion_direction": "out", "speed_end": 0.12651669214120959, "oriDirection": -1, "oriBase": -60, "motionDirection": "out", "speedDirection": 1, "speedStrength": "medium", "speed_start": 0.12, "oriStrength": "medium", "ori_end": -90}, "ITI": 1.1492576386194413, "rt": 0.29076385498046875, "decision_var": 0.006516692141209597, "FBDuration": 1, "trial_count": 35, "ts": "motion", "response": "up", "onset": 205.84807998510053, "quest_estimate": 0.00040520424558251195, "FB": 1, "displayFB": true, "punishment_amount": 0, "responseWindow": 1.5, "exp_stage": "adaptive_procedure", "stimResponseInterval": 1.105149322840693, "trial_time": 3.930211067199707}
{"stimulusDuration": 1.5, "reward_amount": 1, "FBonset": 0, "stim": {"ori_start": -60, "motion_direction": "in", "speed_end": 0.12416936268738102, "oriDirection": -1, "oriBase": -60, "motionDirection": "in", "speedDirection": 1, "speedStrength": "medium", "speed_start": 0.12, "oriStrength": "medium", "ori_end": -90}, "ITI": 0.8837169364698008, "rt": 0.40491795539855957, "decision_var": 0.004169362687381023, "FBDuration": 1, "trial_count": 36, "ts": "motion", "response": "down", "onset": 212.10248694656065, "quest_estimate": 0.007600357271253674, "FB": 0, "displayFB": true, "punishment_amount": 0, "responseWindow": 1.5, "exp_stage": "adaptive_procedure", "stimResponseInterval": 1.0903964725447364, "trial_time": 4.023006916046143}
{"stimulusDuration": 1.5, "reward_amount": 1, "FBonset": 0, "stim": {"ori_start": 30, "motion_direction": "in", "speed_end": 0.13225365708246567, "oriDirection": -1, "oriBase": 30, "motionDirection": "in", "speedDirection": 1, "speedStrength": "medium", "speed_start": 0.12, "oriStrength": "medium", "ori_end": 0}, "ITI": 0.7736889046337869, "rt": 0.3771510124206543, "decision_var": 0.01225365708246566, "FBDuration": 1, "trial_count": 37, "ts": "motion", "response": "up", "onset": 218.07660035557518, "quest_estimate": 0.005407409313079377, "FB": 1, "displayFB": true, "punishment_amount": 0, "responseWindow": 1.5, "exp_stage": "adaptive_procedure", "stimResponseInterval": 1.2154242763989151, "trial_time": 4.129887104034424}
{"stimulusDuration": 1.5, "reward_amount": 1, "FBonset": 0, "stim": {"ori_start": 30, "motion_direction": "out", "speed_end": 0.12983136394012276, "oriDirection": -1, "oriBase": 30, "motionDirection": "out", "speedDirection": 1, "speedStrength": "medium", "speed_start": 0.12, "oriStrength": "medium", "ori_end": 0}, "ITI": 1.158080541272486, "rt": 0.29460620880126953, "decision_var": 0.009831363940122774, "FBDuration": 1, "trial_count": 38, "ts": "motion", "response": "up", "onset": 224.0657135366079, "quest_estimate": 0.003294817295775028, "FB": 1, "displayFB": true, "punishment_amount": 0, "responseWindow": 1.5, "exp_stage": "adaptive_procedure", "stimResponseInterval": 1.2999718822969815, "trial_time": 4.121836185455322}
{"stimulusDuration": 1.5, "reward_amount": 1, "FBonset": 0, "stim": {"ori_start": -60, "motion_direction": "in", "speed_end": 0.127490985716395, "oriDirection": -1, "oriBase": -60, "motionDirection": "in", "speedDirection": 1, "speedStrength": "medium", "speed_start": 0.12, "oriStrength": "medium", "ori_end": -90}, "ITI": 1.29319777111683, "rt": 0.7538869380950928, "decision_var": 0.0074909857163950044, "FBDuration": 1, "trial_count": 39, "ts": "motion", "response": "down", "onset": 230.52376596017734, "quest_estimate": 0.01060652529876397, "FB": 0, "displayFB": true, "punishment_amount": 0, "responseWindow": 1.5, "exp_stage": "adaptive_procedure", "stimResponseInterval": 0.5025304932049692, "trial_time": 3.7893869876861572}
{"stimulusDuration": 1.5, "reward_amount": 1, "FBonset": 0, "stim": {"ori_start": 30, "motion_direction": "out", "speed_end": 0.10442907120791865, "oriDirection": -1, "oriBase": 30, "motionDirection": "out", "speedDirection": -1, "speedStrength": "medium", "speed_start": 0.12, "oriStrength": "medium", "ori_end": 0}, "ITI": 1.1071456094135446, "rt": 0.35454392433166504, "decision_var": 0.015570928792081343, "FBDuration": 1, "trial_count": 40, "ts": "motion", "response": "down", "onset": 236.31949422449915, "quest_estimate": 0.008412237977617261, "FB": 1, "displayFB": true, "punishment_amount": 0, "responseWindow": 1.5, "exp_stage": "adaptive_procedure", "stimResponseInterval": 1.4903262380238433, "trial_time": 4.380722999572754}
{"stimulusDuration": 1.5, "reward_amount": 1, "FBonset": 0, "stim": {"ori_start": 30, "motion_direction": "in", "speed_end": 0.10682404331873097, "oriDirection": -1, "oriBase": 30, "motionDirection": "in", "speedDirection": -1, "speedStrength": "medium", "speed_start": 0.12, "oriStrength": "medium", "ori_end": 0}, "ITI": 0.7063414005825859, "rt": 0.29073381423950195, "decision_var": 0.01317595668126903, "FBDuration": 1, "trial_count": 41, "ts": "motion", "response": "up", "onset": 242.91696607193654, "quest_estimate": 0.016073166898638296, "FB": 0, "displayFB": true, "punishment_amount": 0, "responseWindow": 1.5, "exp_stage": "adaptive_procedure", "stimResponseInterval": 0.7422368110791342, "trial_time": 3.5685651302337646}
{"stimulusDuration": 1.5, "reward_amount": 1, "FBonset": 0, "stim": {"ori_start": 30, "motion_direction": "in", "speed_end": 0.09853861638311949, "oriDirection": -1, "oriBase": 30, "motionDirection": "in", "speedDirection": -1, "speedStrength": "medium", "speed_start": 0.12, "oriStrength": "medium", "ori_end": 0}, "ITI": 1.2778332324966852, "rt": 0.3349611759185791, "decision_var": 0.021461383616880506, "FBDuration": 1, "trial_count": 42, "ts": "motion", "response": "down", "onset": 248.36554428359827, "quest_estimate": 0.013818822011729348, "FB": 1, "displayFB": true, "punishment_amount": 0, "responseWindow": 1.5, "exp_stage": "adaptive_procedure", "stimResponseInterval": 1.0091668034817678, "trial_time": 3.879854202270508}
{"stimulusDuration": 1.5, "reward_amount": 1, "FBonset": 0, "stim": {"ori_start": -60, "motion_direction": "out", "speed_end": 0.13903603998583125, "oriDirection": 1, "oriBase": -60, "motionDirection": "out", "speedDirection": 1, "speedStrength": "medium", "speed_start": 0.12, "oriStrength": "medium", "ori_end": -30}, "ITI": 1.1807030081845578, "rt": 0.2546851634979248, "decision_var": 0.01903603998583124, "FBDuration": 1, "trial_count": 43, "ts": "motion", "response": "up", "onset": 254.65254431957672, "quest_estimate": 0.011632277805799979, "FB": 1, "displayFB": true, "punishment_amount": 0, "responseWindow": 1.5, "exp_stage": "adaptive_procedure", "stimResponseInterval": 1.4182289802988706, "trial_time": 4.203372001647949}
{"stimulusDuration": 1.5, "reward_amount": 1, "FBonset": 0, "stim": {"ori_start": 30, "motion_direction": "out", "speed_end": 0.13667756259022226, "oriDirection": 1, "oriBase": 30, "motionDirection": "out", "speedDirection": 1, "speedStrength": "medium", "speed_start": 0.12, "oriStrength": "medium", "ori_end": 60}, "ITI": 0.6625791217229888, "rt": 0.3372230529785156, "decision_var": 0.01667756259022226, "FBDuration": 1, "trial_count": 44, "ts": "motion", "response": "up", "onset": 261.25147630806015, "quest_estimate": 0.009512968662815938, "FB": 1, "displayFB": true, "punishment_amount": 0, "responseWindow": 1.5, "exp_stage": "adaptive_procedure", "stimResponseInterval": 0.8164200501688692, "trial_time": 3.6819868087768555}
{"stimulusDuration": 1.5, "reward_amount": 1, "FBonset": 0, "stim": {"ori_start": -60, "motion_direction": "in", "speed_end": 0.10561459046515483, "oriDirection": 1, "oriBase": -60, "motionDirection": "in", "speedDirection": -1, "speedStrength": "medium", "speed_start": 0.12, "oriStrength": "medium", "ori_end": -30}, "ITI": 1.1280187375521726, "rt": 0.38997602462768555, "decision_var": 0.01438540953484517, "FBDuration": 1, "trial_count": 45, "ts": "motion", "response": "down", "onset": 266.730475479952, "quest_estimate": 0.007459988951994526, "FB": 1, "displayFB": true, "punishment_amount": 0, "responseWindow": 1.5, "exp_stage": "adaptive_procedure", "stimResponseInterval": 1.287840217483072, "trial_time": 4.209582090377808}
{"stimulusDuration": 1.5, "reward_amount": 1, "FBonset": 0, "stim": {"ori_start": 30, "motion_direction": "in", "speed_end": 0.10784148710736033, "oriDirection": 1, "oriBase": 30, "motionDirection": "in", "speedDirection": -1, "speedStrength": "medium", "speed_start": 0.12, "oriStrength": "medium", "ori_end": 60}, "ITI": 0.9162910208996378, "rt": 0.5137670040130615, "decision_var": 0.012158512892639667, "FBDuration": 1, "trial_count": 46, "ts": "motion", "response": "down", "onset": 273.14633443498724, "quest_estimate": 0.005472339235772443, "FB": 1, "displayFB": true, "punishment_amount": 0, "responseWindow": 1.5, "exp_stage": "adaptive_procedure", "stimResponseInterval": 1.4232398407802285, "trial_time": 4.467504978179932}
{"stimulusDuration": 1.5, "reward_amount": 1, "FBonset": 0, "stim": {"ori_start": -60, "motion_direction": "in", "speed_end": 0.11000410686065189, "oriDirection": 1, "oriBase": -60, "motionDirection": "in", "speedDirection": -1, "speedStrength": "medium", "speed_start": 0.12, "oriStrength": "medium", "ori_end": -30}, "ITI": 1.1663887125383767, "rt": 0.40041089057922363, "decision_var": 0.009995893139348108, "FBDuration": 1, "trial_count": 47, "ts": "motion", "response": "down", "onset": 279.4858652966671, "quest_estimate": 0.0035491192704314237, "FB": 1, "displayFB": true, "punishment_amount": 0, "responseWindow": 1.5, "exp_stage": "adaptive_procedure", "stimResponseInterval": 0.6077389449736983, "trial_time": 3.545905828475952}
{"stimulusDuration": 1.5, "reward_amount": 1, "FBonset": 0, "stim": {"ori_start": -60, "motion_direction": "in", "speed_end": 0.11210331881980176, "oriDirection": -1, "oriBase": -60, "motionDirection": "in", "speedDirection": -1, "speedStrength": "medium", "speed_start": 0.12, "oriStrength": "medium", "ori_end": -90}, "ITI": 0.630729282522918, "rt": 0.34366893768310547, "decision_var": 0.007896681180198241, "FBDuration": 1, "trial_count": 48, "ts": "motion", "response": "down", "onset": 285.25999295417915, "quest_estimate": 0.0016890191539853522, "FB": 1, "displayFB": true, "punishment_amount": 0, "responseWindow": 1.5, "exp_stage": "adaptive_procedure", "stimResponseInterval": 0.8816113009326061, "trial_time": 3.7540810108184814}
{"stimulusDuration": 1.5, "reward_amount": 1, "FBonset": 0, "stim": {"ori_start": 30, "motion_direction": "in", "speed_end": 0.12585975736869578, "oriDirection": 1, "oriBase": 30, "motionDirection": "in", "speedDirection": 1, "speedStrength": "medium", "speed_start": 0.12, "oriStrength": "medium", "ori_end": 60}, "ITI": 1.1397754939414246, "rt": 0.2986171245574951, "decision_var": 0.005859757368695789, "FBDuration": 1, "trial_count": 49, "ts": "motion", "response": "up", "onset": 290.77233353763467, "quest_estimate": -0.0001090294957632118, "FB": 1, "displayFB": true, "punishment_amount": 0, "responseWindow": 1.5, "exp_stage": "adaptive_procedure", "stimResponseInterval": 1.1978744023400505, "trial_time": 4.027164936065674}
{"stimulusDuration": 1.5, "reward_amount": 1, "FBonset": 0, "stim": {"ori_start": -60, "motion_direction": "in", "speed_end": 0.11611556468858031, "oriDirection": 1, "oriBase": -60, "motionDirection": "in", "speedDirection": -1, "speedStrength": "medium", "speed_start": 0.12, "oriStrength": "medium", "ori_end": -30}, "ITI": 1.0806834548920514, "rt": 0.30972886085510254, "decision_var": 0.0038844353114196872, "FBDuration": 1, "trial_count": 50, "ts": "motion", "response": "up", "onset": 297.1099834339161, "quest_estimate": 0.006114107190061946, "FB": 0, "displayFB": true, "punishment_amount": 0, "responseWindow": 1.5, "exp_stage": "adaptive_procedure", "stimResponseInterval": 1.1943290087631042, "trial_time": 4.045492887496948}
{"stimulusDuration": 1.5, "reward_amount": 1, "FBonset": 0, "stim": {"ori_start": 30, "motion_direction": "out", "speed_end": 0.13070791104135995, "oriDirection": 1, "oriBase": 30, "motionDirection": "out", "speedDirection": 1, "speedStrength": "medium", "speed_start": 0.12, "oriStrength": "medium", "ori_end": 60}, "ITI": 0.6834335125651705, "rt": 0.33411288261413574, "decision_var": 0.01070791104135995, "FBDuration": 1, "trial_count": 51, "ts": "motion", "response": "up", "onset": 303.3849958975713, "quest_estimate": 0.004249149384442666, "FB": 1, "displayFB": true, "punishment_amount": 0, "responseWindow": 1.5, "exp_stage": "adaptive_procedure", "stimResponseInterval": 1.301152271847637, "trial_time": 4.166261911392212}
{"stimulusDuration": 1.5, "reward_amount": 1, "FBonset": 0, "stim": {"ori_start": -60, "motion_direction": "in", "speed_end": 0.11131339719624919, "oriDirection": -1, "oriBase": -60, "motionDirection": "in", "speedDirection": -1, "speedStrength": "medium", "speed_start": 0.12, "oriStrength": "medium", "ori_end": -90}, "ITI": 1.0589397203613697, "rt": 0.3052220344543457, "decision_var": 0.008686602803750797, "FBDuration": 1, "trial_count": 52, "ts": "motion", "response": "down", "onset": 309.3695816819841, "quest_estimate": 0.0024419341875810893, "FB": 1, "displayFB": true, "punishment_amount": 0, "responseWindow": 1.5, "exp_stage": "adaptive_procedure", "stimResponseInterval": 1.4180678779924794, "trial_time": 4.251617908477783}
{"stimulusDuration": 1.5, "reward_amount": 1, "FBonset": 0, "stim": {"ori_start": 30, "motion_direction": "out", "speed_end": 0.12672164050638474, "oriDirection": -1, "oriBase": 30, "motionDirection": "out", "speedDirection": 1, "speedStrength": "medium", "speed_start": 0.12, "oriStrength": "medium", "ori_end": 0}, "ITI": 0.5268015207956216, "rt": 0.3289759159088135, "decision_var": 0.006721640506384741, "FBDuration": 1, "trial_count": 53, "ts": "motion", "response": "up", "onset": 315.8465892803379, "quest_estimate": 0.0006914171316519044, "FB": 1, "displayFB": true, "punishment_amount": 0, "responseWindow": 1.5, "exp_stage": "adaptive_procedure", "stimResponseInterval": 1.2546791601119645, "trial_time": 4.115458011627197}
{"stimulusDuration": 1.5, "reward_amount": 1, "FBonset": 0, "stim": {"ori_start": 30, "motion_direction": "in", "speed_end": 0.11518780238229803, "oriDirection": 1, "oriBase": 30, "motionDirection": "in", "speedDirection": -1, "speedStrength": "medium", "speed_start": 0.12, "oriStrength": "medium", "ori_end": 60}, "ITI": 0.9147105091479573, "rt": 0.37822794914245605, "decision_var": 0.004812197617701956, "FBDuration": 1, "trial_count": 54, "ts": "motion", "response": "up", "onset": 321.6280699612455, "quest_estimate": 0.00676420642141546, "FB": 0, "displayFB": true, "punishment_amount": 0, "responseWindow": 1.5, "exp_stage": "adaptive_procedure", "stimResponseInterval": 1.476610348051987, "trial_time": 4.388451099395752}
{"stimulusDuration": 1.5, "reward_amount": 1, "FBonset": 0, "stim": {"ori_start": 30, "motion_direction": "in", "speed_end": 0.13141054641544125, "oriDirection": -1, "oriBase": 30, "motionDirection": "in", "speedDirection": 1, "speedStrength": "medium", "speed_start": 0.12, "oriStrength": "medium", "ori_end": 0}, "ITI": 1.0308806326540134, "rt": 0.32108592987060547, "decision_var": 0.011410546415441258, "FBDuration": 1, "trial_count": 55, "ts": "motion", "response": "up", "onset": 328.01939081844546, "quest_estimate": 0.004955550551682834, "FB": 1, "displayFB": true, "punishment_amount": 0, "responseWindow": 1.5, "exp_stage": "adaptive_procedure", "stimResponseInterval": 1.36422724834296, "trial_time": 4.227542877197266}
{"stimulusDuration": 1.5, "reward_amount": 1, "FBonset": 0, "stim": {"ori_start": 30, "motion_direction": "out", "speed_end": 0.11053672601199858, "oriDirection": -1, "oriBase": 30, "motionDirection": "out", "speedDirection": -1, "speedStrength": "medium", "speed_start": 0.12, "oriStrength": "medium", "ori_end": 0}, "ITI": 1.1484803163027508, "rt": 0.5318582057952881, "decision_var": 0.009463273988001411, "FBDuration": 1, "trial_count": 56, "ts": "motion", "response": "down", "onset": 334.41449869944245, "quest_estimate": 0.0031996332643743283, "FB": 1, "displayFB": true, "punishment_amount": 0, "responseWindow": 1.5, "exp_stage": "adaptive_procedure", "stimResponseInterval": 1.4602696860198623, "trial_time": 4.533643007278442}
{"stimulusDuration": 1.5, "reward_amount": 1, "FBonset": 0, "stim": {"ori_start": -60, "motion_direction": "in", "speed_end": 0.11243311424066865, "oriDirection": -1, "oriBase": -60, "motionDirection": "in", "speedDirection": -1, "speedStrength": "medium", "speed_start": 0.12, "oriStrength": "medium", "ori_end": -90}, "ITI": 0.6778591038372204, "rt": 0.4524540901184082, "decision_var": 0.00756688575933135, "FBDuration": 1, "trial_count": 57, "ts": "motion", "response": "up", "onset": 341.02324870176506, "quest_estimate": 0.009322313136375021, "FB": 0, "displayFB": true, "punishment_amount": 0, "responseWindow": 1.5, "exp_stage": "adaptive_procedure", "stimResponseInterval": 0.7744490711184595, "trial_time": 3.756469964981079}
{"stimulusDuration": 1.5, "reward_amount": 1, "FBonset": 0, "stim": {"ori_start": -60, "motion_direction": "in", "speed_end": 0.13413234217303405, "oriDirection": 1, "oriBase": -60, "motionDirection": "in", "speedDirection": 1, "speedStrength": "medium", "speed_start": 0.12, "oriStrength": "medium", "ori_end": -30}, "ITI": 0.9142743584409678, "rt": 0.3143620491027832, "decision_var": 0.014132342173034065, "FBDuration": 1, "trial_count": 58, "ts": "motion", "response": "down", "onset": 346.47555687672076, "quest_estimate": 0.015829099050712413, "FB": 0, "displayFB": true, "punishment_amount": 0, "responseWindow": 1.5, "exp_stage": "adaptive_procedure", "stimResponseInterval": 1.1739428250621011, "trial_time": 4.030703067779541}
{"stimulusDuration": 1.5, "reward_amount": 1, "FBonset": 0, "stim": {"ori_start": -60, "motion_direction": "out", "speed_end": 0.09902872130191462, "oriDirection": -1, "oriBase": -60, "motionDirection": "out", "speedDirection": -1, "speedStrength": "medium", "speed_start": 0.12, "oriStrength": "medium", "ori_end": -90}, "ITI": 0.825829800519611, "rt": 0.3210289478302002, "decision_var": 0.02097127869808537, "FBDuration": 1, "trial_count": 59, "ts": "motion", "response": "down", "onset": 352.5637740602238, "quest_estimate": 0.013942163474695131, "FB": 1, "displayFB": true, "punishment_amount": 0, "responseWindow": 1.5, "exp_stage": "adaptive_procedure", "stimResponseInterval": 0.7586273977550597, "trial_time": 3.6149120330810547}
{"stimulusDuration": 1.5, "reward_amount": 1, "FBonset": 0, "stim": {"ori_start": 30, "motion_direction": "in", "speed_end": 0.13898475437511, "oriDirection": -1, "oriBase": 30, "motionDirection": "in", "speedDirection": 1, "speedStrength": "medium", "speed_start": 0.12, "oriStrength": "medium", "ori_end": 0}, "ITI": 0.6439892156572409, "rt": 0.43362998962402344, "decision_var": 0.018984754375109984, "FBDuration": 1, "trial_count": 60, "ts": "motion", "response": "up", "onset": 358.14823125849847, "quest_estimate": 0.012101790253129387, "FB": 1, "displayFB": true, "punishment_amount": 0, "responseWindow": 1.5, "exp_stage": "adaptive_procedure", "stimResponseInterval": 0.5398647895741437, "trial_time": 3.505341053009033}
{"stimulusDuration": 1.5, "reward_amount": 1, "FBonset": 0, "stim": {"ori_start": -60, "motion_direction": "out", "speed_end": 0.10295656853913872, "oriDirection": -1, "oriBase": -60, "motionDirection": "out", "speedDirection": -1, "speedStrength": "medium", "speed_start": 0.12, "oriStrength": "medium", "ori_end": -90}, "ITI": 0.975845991727208, "rt": 0.365462064743042, "decision_var": 0.017043431460861277, "FBDuration": 1, "trial_count": 61, "ts": "motion", "response": "down", "onset": 363.3320852637299, "quest_estimate": 0.010307234660451588, "FB": 1, "displayFB": true, "punishment_amount": 0, "responseWindow": 1.5, "exp_stage": "adaptive_procedure", "stimResponseInterval": 0.7406019437003093, "trial_time": 3.636225938796997}
{"stimulusDuration": 1.5, "reward_amount": 1, "FBonset": 0, "stim": {"ori_start": 30, "motion_direction": "out", "speed_end": 0.10485373350565252, "oriDirection": -1, "oriBase": 30, "motionDirection": "out", "speedDirection": -1, "speedStrength": "medium", "speed_start": 0.12, "oriStrength": "medium", "ori_end": 0}, "ITI": 0.8889866823889805, "rt": 0.41656494140625, "decision_var": 0.015146266494347478, "FBDuration": 1, "trial_count": 62, "ts": "motion", "response": "down", "onset": 369.0485331991574, "quest_estimate": 0.008557973862118998, "FB": 1, "displayFB": true, "punishment_amount": 0, "responseWindow": 1.5, "exp_stage": "adaptive_procedure", "stimResponseInterval": 0.8701457477999353, "trial_time": 3.8150219917297363}
{"stimulusDuration": 1.5, "reward_amount": 1, "FBonset": 0, "stim": {"ori_start": -60, "motion_direction": "out", "speed_end": 0.13329254797108742, "oriDirection": -1, "oriBase": -60, "motionDirection": "out", "speedDirection": 1, "speedStrength": "medium", "speed_start": 0.12, "oriStrength": "medium", "ori_end": -90}, "ITI": 0.9410145278986226, "rt": 0.5023269653320312, "decision_var": 0.013292547971087434, "FBDuration": 1, "trial_count": 63, "ts": "motion", "response": "up", "onset": 374.80766562934633, "quest_estimate": 0.006853081738985696, "FB": 1, "displayFB": true, "punishment_amount": 0, "responseWindow": 1.5, "exp_stage": "adaptive_procedure", "stimResponseInterval": 1.2002640251346526, "trial_time": 4.236673831939697}
{"stimulusDuration": 1.5, "reward_amount": 1, "FBonset": 0, "stim": {"ori_start": 30, "motion_direction": "out", "speed_end": 0.13148136578225042, "oriDirection": -1, "oriBase": 30, "motionDirection": "out", "speedDirection": 1, "speedStrength": "medium", "speed_start": 0.12, "oriStrength": "medium", "ori_end": 0}, "ITI": 0.7046085019883512, "rt": 0.5122220516204834, "decision_var": 0.011481365782250418, "FBDuration": 1, "trial_count": 64, "ts": "motion", "response": "up", "onset": 380.9489441823796, "quest_estimate": 0.005192026108485515, "FB": 1, "displayFB": true, "punishment_amount": 0, "responseWindow": 1.5, "exp_stage": "adaptive_procedure", "stimResponseInterval": 1.0805357971639205, "trial_time": 4.133688926696777}
