{"stimulusDuration": 1.5, "reward_amount": 1, "FBonset": 0, "stim": {"ori_start": -60, "motion_direction": "out", "speed_end": 0.06, "oriDirection": 1, "oriBase": -60, "motionDirection": "out", "speedDirection": -1, "speedStrength": "medium", "speed_start": 0.12, "oriStrength": "medium", "ori_end": -40}, "ITI": 1.4698557381953683, "rt": 0.38027310371398926, "decision_var": 20, "FBDuration": 1, "trial_count": 1, "ts": "orientation", "response": "right", "onset": 2, "quest_estimate": 17.0851368517413, "FB": 1, "displayFB": true, "punishment_amount": 0, "responseWindow": 1.5, "exp_stage": "adaptive_procedure", "stimResponseInterval": 1, "trial_time": 3.916210174560547}
{"stimulusDuration": 1.5, "reward_amount": 1, "FBonset": 0, "stim": {"ori_start": 30, "motion_direction": "out", "speed_end": 0.06, "oriDirection": 1, "oriBase": 30, "motionDirection": "out", "speedDirection": -1, "speedStrength": "medium", "speed_start": 0.12, "oriStrength": "medium", "ori_end": 48.328148675471546}, "ITI": 0.8409652152393262, "rt": 0.5197770595550537, "decision_var": 18.328148675471546, "FBDuration": 1, "trial_count": 2, "ts": "orientation", "response": "right", "onset": 8.469855738195369, "quest_estimate": 14.535653718831536, "FB": 1, "displayFB": true, "punishment_amount": 0, "responseWindow": 1.5, "exp_stage": "adaptive_procedure", "stimResponseInterval": 1, "trial_time": 4.050933837890625}
{"stimulusDuration": 1.5, "reward_amount": 1, "FBonset": 0, "stim": {"ori_start": -60, "motion_direction": "in", "speed_end": 0.18, "oriDirection": -1, "oriBase": -60, "motionDirection": "in", "speedDirection": 1, "speedStrength": "medium", "speed_start": 0.12, "oriStrength": "medium", "ori_end": -75.61722777317217}, "ITI": 1.2021305084622713, "rt": 0.403026819229126, "decision_var": 15.617227773172171, "FBDuration": 1, "trial_count": 3, "ts": "orientation", "response": "left", "onset": 14.310820953434696, "quest_estimate": 12.28136166838888, "FB": 1, "displayFB": true, "punishment_amount": 0, "responseWindow": 1.5, "exp_stage": "adaptive_procedure", "stimResponseInterval": 1, "trial_time": 3.9403419494628906}
{"stimulusDuration": 1.5, "reward_amount": 1, "FBonset": 0, "stim": {"ori_start": -60, "motion_direction": "out", "speed_end": 0.06, "oriDirection": -1, "oriBase": -60, "motionDirection": "out", "speedDirection": -1, "speedStrength": "medium", "speed_start": 0.12, "oriStrength": "medium", "ori_end": -73.30237275101366}, "ITI": 1.0221614480923562, "rt": 0.4431159496307373, "decision_var": 13.302372751013667, "FBDuration": 1, "trial_count": 4, "ts": "orientation", "response": "left", "onset": 20.512951461896968, "quest_estimate": 10.28450860881093, "FB": 1, "displayFB": true, "punishment_amount": 0, "responseWindow": 1.5, "exp_stage": "adaptive_procedure", "stimResponseInterval": 1, "trial_time": 3.97617506980896}
{"stimulusDuration": 1.5, "reward_amount": 1, "FBonset": 0, "stim": {"ori_start": -60, "motion_direction": "in", "speed_end": 0.06, "oriDirection": -1, "oriBase": -60, "motionDirection": "in", "speedDirection": -1, "speedStrength": "medium", "speed_start": 0.12, "oriStrength": "medium", "ori_end": -71.26815593576559}, "ITI": 1.318215081593392, "rt": 0.41230010986328125, "decision_var": 11.268155935765588, "FBDuration": 1, "trial_count": 5, "ts": "orientation", "response": "left", "onset": 26.535112909989323, "quest_estimate": 8.504971307078899, "FB": 1, "displayFB": true, "punishment_amount": 0, "responseWindow": 1.5, "exp_stage": "adaptive_procedure", "stimResponseInterval": 1, "trial_time": 3.938563108444214}
{"stimulusDuration": 1.5, "reward_amount": 1, "FBonset": 0, "stim": {"ori_start": -60, "motion_direction": "out", "speed_end": 0.06, "oriDirection": 1, "oriBase": -60, "motionDirection": "out", "speedDirection": -1, "speedStrength": "medium", "speed_start": 0.12, "oriStrength": "medium", "ori_end": -50.55892803793967}, "ITI": 1.4258057816285588, "rt": 0.40633296966552734, "decision_var": 9.441071962060326, "FBDuration": 1, "trial_count": 6, "ts": "orientation", "response": "right", "onset": 32.85332799158272, "quest_estimate": 6.915335871075554, "FB": 1, "displayFB": true, "punishment_amount": 0, "responseWindow": 1.5, "exp_stage": "adaptive_procedure", "stimResponseInterval": 1, "trial_time": 3.9445691108703613}
{"stimulusDuration": 1.5, "reward_amount": 1, "FBonset": 0, "stim": {"ori_start": 30, "motion_direction": "in", "speed_end": 0.06, "oriDirection": -1, "oriBase": 30, "motionDirection": "in", "speedDirection": -1, "speedStrength": "medium", "speed_start": 0.12, "oriStrength": "medium", "ori_end": 22.203875599040412}, "ITI": 1.3010520754483026, "rt": 0.3182182312011719, "decision_var": 7.796124400959588, "FBDuration": 1, "trial_count": 7, "ts": "orientation", "response": "left", "onset": 39.27913377321128, "quest_estimate": 5.491970592963506, "FB": 1, "displayFB": true, "punishment_amount": 0, "responseWindow": 1.5, "exp_stage": "adaptive_procedure", "stimResponseInterval": 1, "trial_time": 3.845771074295044}
{"stimulusDuration": 1.5, "reward_amount": 1, "FBonset": 0, "stim": {"ori_start": -60, "motion_direction": "out", "speed_end": 0.06, "oriDirection": -1, "oriBase": -60, "motionDirection": "out", "speedDirection": -1, "speedStrength": "medium", "speed_start": 0.12, "oriStrength": "medium", "ori_end": -66.3082808401994}, "ITI": 1.3170088419362904, "rt": 0.4631509780883789, "decision_var": 6.3082808401994015, "FBDuration": 1, "trial_count": 8, "ts": "orientation", "response": "right", "onset": 45.58018584865958, "quest_estimate": 10.392704727886576, "FB": 0, "displayFB": true, "punishment_amount": 0, "responseWindow": 1.5, "exp_stage": "adaptive_procedure", "stimResponseInterval": 1, "trial_time": 4.003849983215332}
{"stimulusDuration": 1.5, "reward_amount": 1, "FBonset": 0, "stim": {"ori_start": 30, "motion_direction": "out", "speed_end": 0.06, "oriDirection": -1, "oriBase": 30, "motionDirection": "out", "speedDirection": -1, "speedStrength": "medium", "speed_start": 0.12, "oriStrength": "medium", "ori_end": 20.656196211205042}, "ITI": 1.4716644690520504, "rt": 0.4673948287963867, "decision_var": 9.343803788794958, "FBDuration": 1, "trial_count": 9, "ts": "orientation", "response": "left", "onset": 51.897194690595875, "quest_estimate": 9.339818377497583, "FB": 1, "displayFB": true, "punishment_amount": 0, "responseWindow": 1.5, "exp_stage": "adaptive_procedure", "stimResponseInterval": 1, "trial_time": 4.005702018737793}
{"stimulusDuration": 1.5, "reward_amount": 1, "FBonset": 0, "stim": {"ori_start": 30, "motion_direction": "out", "speed_end": 0.06, "oriDirection": 1, "oriBase": 30, "motionDirection": "out", "speedDirection": -1, "speedStrength": "medium", "speed_start": 0.12, "oriStrength": "medium", "ori_end": 38.50023418974656}, "ITI": 0.7956192225487878, "rt": 0.4533669948577881, "decision_var": 8.500234189746559, "FBDuration": 1, "trial_count": 10, "ts": "orientation", "response": "right", "onset": 58.368859159647926, "quest_estimate": 8.54279202660541, "FB": 1, "displayFB": true, "punishment_amount": 0, "responseWindow": 1.5, "exp_stage": "adaptive_procedure", "stimResponseInterval": 1, "trial_time": 3.984657049179077}
{"stimulusDuration": 1.5, "reward_amount": 1, "FBonset": 0, "stim": {"ori_start": 30, "motion_direction": "out", "speed_end": 0.18, "oriDirection": 1, "oriBase": 30, "motionDirection": "out", "speedDirection": 1, "speedStrength": "medium", "speed_start": 0.12, "oriStrength": "medium", "ori_end": 37.84380915227642}, "ITI": 0.9466241616808738, "rt": 0.40120792388916016, "decision_var": 7.843809152276425, "FBDuration": 1, "trial_count": 11, "ts": "orientation", "response": "right", "onset": 64.16447838219672, "quest_estimate": 7.944530353680108, "FB": 1, "displayFB": true, "punishment_amount": 0, "responseWindow": 1.5, "exp_stage": "adaptive_procedure", "stimResponseInterval": 1, "trial_time": 3.9346230030059814}
{"stimulusDuration": 1.5, "reward_amount": 1, "FBonset": 0, "stim": {"ori_start": -60, "motion_direction": "out", "speed_end": 0.18, "oriDirection": 1, "oriBase": -60, "motionDirection": "out", "speedDirection": 1, "speedStrength": "medium", "speed_start": 0.12, "oriStrength": "medium", "ori_end": -52.483965112669694}, "ITI": 0.8560708413308705, "rt": 0.4124720096588135, "decision_var": 7.516034887330303, "FBDuration": 1, "trial_count": 12, "ts": "orientation", "response": "right", "onset": 70.11110254387759, "quest_estimate": 7.4958453065602555, "FB": 1, "displayFB": true, "punishment_amount": 0, "responseWindow": 1.5, "exp_stage": "adaptive_procedure", "stimResponseInterval": 1, "trial_time": 3.9475879669189453}
{"stimulusDuration": 1.5, "reward_amount": 1, "FBonset": 0, "stim": {"ori_start": -60, "motion_direction": "out", "speed_end": 0.18, "oriDirection": -1, "oriBase": -60, "motionDirection": "out", "speedDirection": 1, "speedStrength": "medium", "speed_start": 0.12, "oriStrength": "medium", "ori_end": -67.26955286369122}, "ITI": 0.6736386800859621, "rt": 0.3508620262145996, "decision_var": 7.269552863691212, "FBDuration": 1, "trial_count": 13, "ts": "orientation", "response": "left", "onset": 75.96717338520847, "quest_estimate": 7.145156619178989, "FB": 1, "displayFB": true, "punishment_amount": 0, "responseWindow": 1.5, "exp_stage": "adaptive_procedure", "stimResponseInterval": 1, "trial_time": 3.8777289390563965}
{"stimulusDuration": 1.5, "reward_amount": 1, "FBonset": 0, "stim": {"ori_start": -60, "motion_direction": "out", "speed_end": 0.18, "oriDirection": -1, "oriBase": -60, "motionDirection": "out", "speedDirection": 1, "speedStrength": "medium", "speed_start": 0.12, "oriStrength": "medium", "ori_end": -67.06870118046585}, "ITI": 1.4871868169153775, "rt": 0.3345818519592285, "decision_var": 7.068701180465856, "FBDuration": 1, "trial_count": 14, "ts": "orientation", "response": "left", "onset": 81.64081206529443, "quest_estimate": 6.860359771929652, "FB": 1, "displayFB": true, "punishment_amount": 0, "responseWindow": 1.5, "exp_stage": "adaptive_procedure", "stimResponseInterval": 1, "trial_time": 3.869837999343872}
{"stimulusDuration": 1.5, "reward_amount": 1, "FBonset": 0, "stim": {"ori_start": -60, "motion_direction": "out", "speed_end": 0.06, "oriDirection": -1, "oriBase": -60, "motionDirection": "out", "speedDirection": -1, "speedStrength": "medium", "speed_start": 0.12, "oriStrength": "medium", "ori_end": -66.90940701009453}, "ITI": 1.23873717439331, "rt": 0.449329137802124, "decision_var": 6.909407010094524, "FBDuration": 1, "trial_count": 15, "ts": "orientation", "response": "left", "onset": 88.12799888220981, "quest_estimate": 6.623289860335952, "FB": 1, "displayFB": true, "punishment_amount": 0, "responseWindow": 1.5, "exp_stage": "adaptive_procedure", "stimResponseInterval": 1, "trial_time": 3.977874994277954}
{"stimulusDuration": 1.5, "reward_amount": 1, "FBonset": 0, "stim": {"ori_start": 30, "motion_direction": "out", "speed_end": 0.18, "oriDirection": -1, "oriBase": 30, "motionDirection": "out", "speedDirection": 1, "speedStrength": "medium", "speed_start": 0.12, "oriStrength": "medium", "ori_end": 23.2127892396693}, "ITI": 1.1808917273601809, "rt": 0.359483003616333, "decision_var": 6.7872107603307, "FBDuration": 1, "trial_count": 16, "ts": "orientation", "response": "left", "onset": 94.36673605660312, "quest_estimate": 6.414804382163174, "FB": 1, "displayFB": true, "punishment_amount": 0, "responseWindow": 1.5, "exp_stage": "adaptive_procedure", "stimResponseInterval": 1, "trial_time": 3.8971810340881348}
{"stimulusDuration": 1.5, "reward_amount": 1, "FBonset": 0, "stim": {"ori_start": -60, "motion_direction": "in", "speed_end": 0.06, "oriDirection": -1, "oriBase": -60, "motionDirection": "in", "speedDirection": -1, "speedStrength": "medium", "speed_start": 0.12, "oriStrength": "medium", "ori_end": -66.68753383869668}, "ITI": 1.3038156792919542, "rt": 0.3197050094604492, "decision_var": 6.687533838696687, "FBDuration": 1, "trial_count": 17, "ts": "orientation", "response": "left", "onset": 100.54762778396329, "quest_estimate": 6.211490598729643, "FB": 1, "displayFB": true, "punishment_amount": 0, "responseWindow": 1.5, "exp_stage": "adaptive_procedure", "stimResponseInterval": 1, "trial_time": 3.857828140258789}
{"stimulusDuration": 1.5, "reward_amount": 1, "FBonset": 0, "stim": {"ori_start": -60, "motion_direction": "in", "speed_end": 0.18, "oriDirection": -1, "oriBase": -60, "motionDirection": "in", "speedDirection": 1, "speedStrength": "medium", "speed_start": 0.12, "oriStrength": "medium", "ori_end": -66.60246970593452}, "ITI": 0.8659369918073799, "rt": 0.3926429748535156, "decision_var": 6.602469705934528, "FBDuration": 1, "trial_count": 18, "ts": "orientation", "response": "left", "onset": 106.85144346325525, "quest_estimate": 6.013749304993031, "FB": 1, "displayFB": true, "punishment_amount": 0, "responseWindow": 1.5, "exp_stage": "adaptive_procedure", "stimResponseInterval": 1, "trial_time": 3.9253389835357666}
{"stimulusDuration": 1.5, "reward_amount": 1, "FBonset": 0, "stim": {"ori_start": -60, "motion_direction": "out", "speed_end": 0.06, "oriDirection": -1, "oriBase": -60, "motionDirection": "out", "speedDirection": -1, "speedStrength": "medium", "speed_start": 0.12, "oriStrength": "medium", "ori_end": -66.5322849251218}, "ITI": 0.8472817832063725, "rt": 0.5095489025115967, "decision_var": 6.5322849251218, "FBDuration": 1, "trial_count": 19, "ts": "orientation", "response": "right", "onset": 112.71738045506262, "quest_estimate": 6.857787637877049, "FB": 0, "displayFB": true, "punishment_amount": 0, "responseWindow": 1.5, "exp_stage": "adaptive_procedure", "stimResponseInterval": 1, "trial_time": 4.040336847305298}
{"stimulusDuration": 1.5, "reward_amount": 1, "FBonset": 0, "stim": {"ori_start": 30, "motion_direction": "in", "speed_end": 0.18, "oriDirection": -1, "oriBase": 30, "motionDirection": "in", "speedDirection": 1, "speedStrength": "medium", "speed_start": 0.12, "oriStrength": "medium", "ori_end": 23.265331001333557}, "ITI": 0.8830316788188075, "rt": 0.3824150562286377, "decision_var": 6.734668998666441, "FBDuration": 1, "trial_count": 20, "ts": "orientation", "response": "left", "onset": 118.564662238269, "quest_estimate": 6.765467203079385, "FB": 1, "displayFB": true, "punishment_amount": 0, "responseWindow": 1.5, "exp_stage": "adaptive_procedure", "stimResponseInterval": 1, "trial_time": 3.9140560626983643}
{"stimulusDuration": 1.5, "reward_amount": 1, "FBonset": 0, "stim": {"ori_start": -60, "motion_direction": "in", "speed_end": 0.06, "oriDirection": -1, "oriBase": -60, "motionDirection": "in", "speedDirection": -1, "speedStrength": "medium", "speed_start": 0.12, "oriStrength": "medium", "ori_end": -66.67993575377028}, "ITI": 1.3543687832794664, "rt": 0.44339919090270996, "decision_var": 6.679935753770284, "FBDuration": 1, "trial_count": 21, "ts": "orientation", "response": "left", "onset": 124.4476939170878, "quest_estimate": 6.694636392267608, "FB": 1, "displayFB": true, "punishment_amount": 0, "responseWindow": 1.5, "exp_stage": "adaptive_procedure", "stimResponseInterval": 1, "trial_time": 3.9732279777526855}
{"stimulusDuration": 1.5, "reward_amount": 1, "FBonset": 0, "stim": {"ori_start": -60, "motion_direction": "in", "speed_end": 0.18, "oriDirection": 1, "oriBase": -60, "motionDirection": "in", "speedDirection": 1, "speedStrength": "medium", "speed_start": 0.12, "oriStrength": "medium", "ori_end": -53.359613273336755}, "ITI": 0.6780483006063122, "rt": 0.5203971862792969, "decision_var": 6.640386726663246, "FBDuration": 1, "trial_count": 22, "ts": "orientation", "response": "right", "onset": 130.80206270036726, "quest_estimate": 6.637654297003262, "FB": 1, "displayFB": true, "punishment_amount": 0, "responseWindow": 1.5, "exp_stage": "adaptive_procedure", "stimResponseInterval": 1, "trial_time": 4.0604400634765625}
{"stimulusDuration": 1.5, "reward_amount": 1, "FBonset": 0, "stim": {"ori_start": 30, "motion_direction": "in", "speed_end": 0.18, "oriDirection": 1, "oriBase": 30, "motionDirection": "in", "speedDirection": 1, "speedStrength": "medium", "speed_start": 0.12, "oriStrength": "medium", "ori_end": 36.608501532792125}, "ITI": 0.8227974911960124, "rt": 0.36177492141723633, "decision_var": 6.608501532792124, "FBDuration": 1, "trial_count": 23, "ts": "orientation", "response": "right", "onset": 136.48011100097358, "quest_estimate": 6.588515975876273, "FB": 1, "displayFB": true, "punishment_amount": 0, "responseWindow": 1.5, "exp_stage": "adaptive_procedure", "stimResponseInterval": 1, "trial_time": 3.8883450031280518}
{"stimulusDuration": 1.5, "reward_amount": 1, "FBonset": 0, "stim": {"ori_start": 30, "motion_direction": "out", "speed_end": 0.18, "oriDirection": -1, "oriBase": 30, "motionDirection": "out", "speedDirection": 1, "speedStrength": "medium", "speed_start": 0.12, "oriStrength": "medium", "ori_end": 23.417090281400675}, "ITI": 1.4638054734134966, "rt": 0.29967808723449707, "decision_var": 6.582909718599327, "FBDuration": 1, "trial_count": 24, "ts": "orientation", "response": "left", "onset": 142.3029084921696, "quest_estimate": 6.543177380943339, "FB": 1, "displayFB": true, "punishment_amount": 0, "responseWindow": 1.5, "exp_stage": "adaptive_procedure", "stimResponseInterval": 1, "trial_time": 3.8349640369415283}
{"stimulusDuration": 1.5, "reward_amount": 1, "FBonset": 0, "stim": {"ori_start": 30, "motion_direction": "out", "speed_end": 0.18, "oriDirection": -1, "oriBase": 30, "motionDirection": "out", "speedDirection": 1, "speedStrength": "medium", "speed_start": 0.12, "oriStrength": "medium", "ori_end": 23.44106381363579}, "ITI": 1.2950292885922399, "rt": 0.4534459114074707, "decision_var": 6.55893618636421, "FBDuration": 1, "trial_count": 25, "ts": "orientation", "response": "left", "onset": 148.76671396558308, "quest_estimate": 6.49955689520718, "FB": 1, "displayFB": true, "punishment_amount": 0, "responseWindow": 1.5, "exp_stage": "adaptive_procedure", "stimResponseInterval": 1, "trial_time": 3.9894509315490723}
{"stimulusDuration": 1.5, "reward_amount": 1, "FBonset": 0, "stim": {"ori_start": -60, "motion_direction": "out", "speed_end": 0.18, "oriDirection": -1, "oriBase": -60, "motionDirection": "out", "speedDirection": 1, "speedStrength": "medium", "speed_start": 0.12, "oriStrength": "medium", "ori_end": -66.54092560942496}, "ITI": 1.0950622174232445, "rt": 0.3767728805541992, "decision_var": 6.54092560942496, "FBDuration": 1, "trial_count": 26, "ts": "orientation", "response": "left", "onset": 155.06174325417533, "quest_estimate": 6.457450841122119, "FB": 1, "displayFB": true, "punishment_amount": 0, "responseWindow": 1.5, "exp_stage": "adaptive_procedure", "stimResponseInterval": 1, "trial_time": 3.915534019470215}
{"stimulusDuration": 1.5, "reward_amount": 1, "FBonset": 0, "stim": {"ori_start": 30, "motion_direction": "out", "speed_end": 0.06, "oriDirection": -1, "oriBase": 30, "motionDirection": "out", "speedDirection": -1, "speedStrength": "medium", "speed_start": 0.12, "oriStrength": "medium", "ori_end": 23.475841110413654}, "ITI": 1.0093763227406183, "rt": 0.41599297523498535, "decision_var": 6.524158889586346, "FBDuration": 1, "trial_count": 27, "ts": "orientation", "response": "left", "onset": 161.15680547159857, "quest_estimate": 6.405597147639057, "FB": 1, "displayFB": true, "punishment_amount": 0, "responseWindow": 1.5, "exp_stage": "adaptive_procedure", "stimResponseInterval": 1, "trial_time": 3.9616901874542236}
{"stimulusDuration": 1.5, "reward_amount": 1, "FBonset": 0, "stim": {"ori_start": -60, "motion_direction": "in", "speed_end": 0.06, "oriDirection": 1, "oriBase": -60, "motionDirection": "in", "speedDirection": -1, "speedStrength": "medium", "speed_start": 0.12, "oriStrength": "medium", "ori_end": -53.492887842390324}, "ITI": 0.6781464825026983, "rt": 0.467897891998291, "decision_var": 6.507112157609676, "FBDuration": 1, "trial_count": 28, "ts": "orientation", "response": "right", "onset": 167.1661817943392, "quest_estimate": 6.348044736065605, "FB": 1, "displayFB": true, "punishment_amount": 0, "responseWindow": 1.5, "exp_stage": "adaptive_procedure", "stimResponseInterval": 1, "trial_time": 3.9986531734466553}
{"stimulusDuration": 1.5, "reward_amount": 1, "FBonset": 0, "stim": {"ori_start": -60, "motion_direction": "in", "speed_end": 0.06, "oriDirection": 1, "oriBase": -60, "motionDirection": "in", "speedDirection": -1, "speedStrength": "medium", "speed_start": 0.12, "oriStrength": "medium", "ori_end": -53.50860275559448}, "ITI": 1.07017426669914, "rt": 0.41309309005737305, "decision_var": 6.491397244405519, "FBDuration": 1, "trial_count": 29, "ts": "orientation", "response": "right", "onset": 172.8443282768419, "quest_estimate": 6.284517696865468, "FB": 1, "displayFB": true, "punishment_amount": 0, "responseWindow": 1.5, "exp_stage": "adaptive_procedure", "stimResponseInterval": 1, "trial_time": 3.9466400146484375}
{"stimulusDuration": 1.5, "reward_amount": 1, "FBonset": 0, "stim": {"ori_start": -60, "motion_direction": "out", "speed_end": 0.18, "oriDirection": 1, "oriBase": -60, "motionDirection": "out", "speedDirection": 1, "speedStrength": "medium", "speed_start": 0.12, "oriStrength": "medium", "ori_end": -53.521914671735125}, "ITI": 0.5742128891822862, "rt": 0.3784661293029785, "decision_var": 6.478085328264877, "FBDuration": 1, "trial_count": 30, "ts": "orientation", "response": "right", "onset": 178.91450254354103, "quest_estimate": 6.215068234777423, "FB": 1, "displayFB": true, "punishment_amount": 0, "responseWindow": 1.5, "exp_stage": "adaptive_procedure", "stimResponseInterval": 1, "trial_time": 3.9066150188446045}
{"stimulusDuration": 1.5, "reward_amount": 1, "FBonset": 0, "stim": {"ori_start": 30, "motion_direction": "out", "speed_end": 0.18, "oriDirection": 1, "oriBase": 30, "motionDirection": "out", "speedDirection": 1, "speedStrength": "medium", "speed_start": 0.12, "oriStrength": "medium", "ori_end": 36.46519466575183}, "ITI": 1.4490936411656807, "rt": 0.31989288330078125, "decision_var": 6.465194665751831, "FBDuration": 1, "trial_count": 31, "ts": "orientation", "response": "left", "onset": 184.48871543272332, "quest_estimate": 6.517685812682441, "FB": 0, "displayFB": true, "punishment_amount": 0, "responseWindow": 1.5, "exp_stage": "adaptive_procedure", "stimResponseInterval": 1, "trial_time": 3.8555080890655518}
{"stimulusDuration": 1.5, "reward_amount": 1, "FBonset": 0, "stim": {"ori_start": -60, "motion_direction": "out", "speed_end": 0.18, "oriDirection": -1, "oriBase": -60, "motionDirection": "out", "speedDirection": 1, "speedStrength": "medium", "speed_start": 0.12, "oriStrength": "medium", "ori_end": -66.49668323747551}, "ITI": 0.9184319620521002, "rt": 0.5465788841247559, "decision_var": 6.496683237475516, "FBDuration": 1, "trial_count": 32, "ts": "orientation", "response": "left", "onset": 190.937809073889, "quest_estimate": 6.50352967919614, "FB": 1, "displayFB": true, "punishment_amount": 0, "responseWindow": 1.5, "exp_stage": "adaptive_procedure", "stimResponseInterval": 1, "trial_time": 4.080628156661987}
{"stimulusDuration": 1.5, "reward_amount": 1, "FBonset": 0, "stim": {"ori_start": 30, "motion_direction": "in", "speed_end": 0.06, "oriDirection": -1, "oriBase": 30, "motionDirection": "in", "speedDirection": -1, "speedStrength": "medium", "speed_start": 0.12, "oriStrength": "medium", "ori_end": 23.513355937394735}, "ITI": 0.8653643629682689, "rt": 0.37633800506591797, "decision_var": 6.486644062605263, "FBDuration": 1, "trial_count": 33, "ts": "orientation", "response": "left", "onset": 196.8562410359411, "quest_estimate": 6.490136754539217, "FB": 1, "displayFB": true, "punishment_amount": 0, "responseWindow": 1.5, "exp_stage": "adaptive_procedure", "stimResponseInterval": 1, "trial_time": 3.9068400859832764}
{"stimulusDuration": 1.5, "reward_amount": 1, "FBonset": 0, "stim": {"ori_start": 30, "motion_direction": "in", "speed_end": 0.18, "oriDirection": -1, "oriBase": 30, "motionDirection": "in", "speedDirection": 1, "speedStrength": "medium", "speed_start": 0.12, "oriStrength": "medium", "ori_end": 23.52261305393874}, "ITI": 0.907585057825799, "rt": 0.2871510982513428, "decision_var": 6.477386946061257, "FBDuration": 1, "trial_count": 34, "ts": "orientation", "response": "left", "onset": 202.7216053989094, "quest_estimate": 6.477345043995632, "FB": 1, "displayFB": true, "punishment_amount": 0, "responseWindow": 1.5, "exp_stage": "adaptive_procedure", "stimResponseInterval": 1, "trial_time": 3.8173270225524902}
{"stimulusDuration": 1.5, "reward_amount": 1, "FBonset": 0, "stim": {"ori_start": -60, "motion_direction": "out", "speed_end": 0.18, "oriDirection": 1, "oriBase": -60, "motionDirection": "out", "speedDirection": 1, "speedStrength": "medium", "speed_start": 0.12, "oriStrength": "medium", "ori_end": -53.531441361901486}, "ITI": 0.6355936905634465, "rt": 0.26738405227661133, "decision_var": 6.468558638098516, "FBDuration": 1, "trial_count": 35, "ts": "orientation", "response": "right", "onset": 208.6291904567352, "quest_estimate": 6.463604483516473, "FB": 1, "displayFB": true, "punishment_amount": 0, "responseWindow": 1.5, "exp_stage": "adaptive_procedure", "stimResponseInterval": 1, "trial_time": 3.803892135620117}
{"stimulusDuration": 1.5, "reward_amount": 1, "FBonset": 0, "stim": {"ori_start": 30, "motion_direction": "out", "speed_end": 0.18, "oriDirection": 1, "oriBase": 30, "motionDirection": "out", "speedDirection": 1, "speedStrength": "medium", "speed_start": 0.12, "oriStrength": "medium", "ori_end": 36.459928829901926}, "ITI": 0.7087657525408322, "rt": 0.2862839698791504, "decision_var": 6.459928829901925, "FBDuration": 1, "trial_count": 36, "ts": "orientation", "response": "left", "onset": 214.26478414729863, "quest_estimate": 6.503347710893134, "FB": 0, "displayFB": true, "punishment_amount": 0, "responseWindow": 1.5, "exp_stage": "adaptive_procedure", "stimResponseInterval": 1, "trial_time": 3.8190770149230957}
{"stimulusDuration": 1.5, "reward_amount": 1, "FBonset": 0, "stim": {"ori_start": -60, "motion_direction": "in", "speed_end": 0.18, "oriDirection": -1, "oriBase": -60, "motionDirection": "in", "speedDirection": 1, "speedStrength": "medium", "speed_start": 0.12, "oriStrength": "medium", "ori_end": -66.48055114250347}, "ITI": 0.80615881321907, "rt": 0.3945178985595703, "decision_var": 6.480551142503467, "FBDuration": 1, "trial_count": 37, "ts": "orientation", "response": "right", "onset": 219.97354989983947, "quest_estimate": 6.5353684052845065, "FB": 0, "displayFB": true, "punishment_amount": 0, "responseWindow": 1.5, "exp_stage": "adaptive_procedure", "stimResponseInterval": 1, "trial_time": 3.9330530166625977}
{"stimulusDuration": 1.5, "reward_amount": 1, "FBonset": 0, "stim": {"ori_start": -60, "motion_direction": "in", "speed_end": 0.18, "oriDirection": 1, "oriBase": -60, "motionDirection": "in", "speedDirection": 1, "speedStrength": "medium", "speed_start": 0.12, "oriStrength": "medium", "ori_end": -53.491166038204554}, "ITI": 1.073633319243366, "rt": 0.3788020610809326, "decision_var": 6.508833961795446, "FBDuration": 1, "trial_count": 38, "ts": "orientation", "response": "right", "onset": 225.77970871305854, "quest_estimate": 6.525478428530079, "FB": 1, "displayFB": true, "punishment_amount": 0, "responseWindow": 1.5, "exp_stage": "adaptive_procedure", "stimResponseInterval": 1, "trial_time": 3.911201000213623}
{"stimulusDuration": 1.5, "reward_amount": 1, "FBonset": 0, "stim": {"ori_start": 30, "motion_direction": "in", "speed_end": 0.06, "oriDirection": 1, "oriBase": 30, "motionDirection": "in", "speedDirection": -1, "speedStrength": "medium", "speed_start": 0.12, "oriStrength": "medium", "ori_end": 36.49814276508305}, "ITI": 1.4818091054556024, "rt": 0.3621950149536133, "decision_var": 6.4981427650830526, "FBDuration": 1, "trial_count": 39, "ts": "orientation", "response": "right", "onset": 231.8533420323019, "quest_estimate": 6.516436251359213, "FB": 1, "displayFB": true, "punishment_amount": 0, "responseWindow": 1.5, "exp_stage": "adaptive_procedure", "stimResponseInterval": 1, "trial_time": 3.9002959728240967}
{"stimulusDuration": 1.5, "reward_amount": 1, "FBonset": 0, "stim": {"ori_start": -60, "motion_direction": "in", "speed_end": 0.18, "oriDirection": 1, "oriBase": -60, "motionDirection": "in", "speedDirection": 1, "speedStrength": "medium", "speed_start": 0.12, "oriStrength": "medium", "ori_end": -53.50929001963276}, "ITI": 1.0592937574985442, "rt": 0.38930606842041016, "decision_var": 6.490709980367241, "FBDuration": 1, "trial_count": 40, "ts": "orientation", "response": "right", "onset": 238.3351511377575, "quest_estimate": 6.508142196893983, "FB": 1, "displayFB": true, "punishment_amount": 0, "responseWindow": 1.5, "exp_stage": "adaptive_procedure", "stimResponseInterval": 1, "trial_time": 3.9266788959503174}
{"stimulusDuration": 1.5, "reward_amount": 1, "FBonset": 0, "stim": {"ori_start": -60, "motion_direction": "in", "speed_end": 0.18, "oriDirection": -1, "oriBase": -60, "motionDirection": "in", "speedDirection": 1, "speedStrength": "medium", "speed_start": 0.12, "oriStrength": "medium", "ori_end": -66.4839891484334}, "ITI": 1.1807587197236384, "rt": 0.2618520259857178, "decision_var": 6.483989148433393, "FBDuration": 1, "trial_count": 41, "ts": "orientation", "response": "left", "onset": 244.39444489525604, "quest_estimate": 6.500507528195525, "FB": 1, "displayFB": true, "punishment_amount": 0, "responseWindow": 1.5, "exp_stage": "adaptive_procedure", "stimResponseInterval": 1, "trial_time": 3.7880001068115234}
{"stimulusDuration": 1.5, "reward_amount": 1, "FBonset": 0, "stim": {"ori_start": 30, "motion_direction": "out", "speed_end": 0.06, "oriDirection": 1, "oriBase": 30, "motionDirection": "out", "speedDirection": -1, "speedStrength": "medium", "speed_start": 0.12, "oriStrength": "medium", "ori_end": 36.47775732079612}, "ITI": 0.846138015649401, "rt": 0.4448549747467041, "decision_var": 6.4777573207961225, "FBDuration": 1, "trial_count": 42, "ts": "orientation", "response": "left", "onset": 250.57520361497967, "quest_estimate": 6.52531048073711, "FB": 0, "displayFB": true, "punishment_amount": 0, "responseWindow": 1.5, "exp_stage": "adaptive_procedure", "stimResponseInterval": 1, "trial_time": 3.973667860031128}
{"stimulusDuration": 1.5, "reward_amount": 1, "FBonset": 0, "stim": {"ori_start": 30, "motion_direction": "out", "speed_end": 0.18, "oriDirection": -1, "oriBase": 30, "motionDirection": "out", "speedDirection": 1, "speedStrength": "medium", "speed_start": 0.12, "oriStrength": "medium", "ori_end": 23.50195236204568}, "ITI": 1.064306518331287, "rt": 0.32485413551330566, "decision_var": 6.498047637954318, "FBDuration": 1, "trial_count": 43, "ts": "orientation", "response": "left", "onset": 256.42134163062906, "quest_estimate": 6.51765707888441, "FB": 1, "displayFB": true, "punishment_amount": 0, "responseWindow": 1.5, "exp_stage": "adaptive_procedure", "stimResponseInterval": 1, "trial_time": 3.853160858154297}
{"stimulusDuration": 1.5, "reward_amount": 1, "FBonset": 0, "stim": {"ori_start": 30, "motion_direction": "in", "speed_end": 0.18, "oriDirection": 1, "oriBase": 30, "motionDirection": "in", "speedDirection": 1, "speedStrength": "medium", "speed_start": 0.12, "oriStrength": "medium", "ori_end": 36.4916341980109}, "ITI": 0.7278831895369904, "rt": 0.2017359733581543, "decision_var": 6.491634198010898, "FBDuration": 1, "trial_count": 44, "ts": "orientation", "response": "right", "onset": 262.48564814896037, "quest_estimate": 6.510581578617844, "FB": 1, "displayFB": true, "punishment_amount": 0, "responseWindow": 1.5, "exp_stage": "adaptive_procedure", "stimResponseInterval": 1, "trial_time": 3.7304270267486572}
{"stimulusDuration": 1.5, "reward_amount": 1, "FBonset": 0, "stim": {"ori_start": 30, "motion_direction": "out", "speed_end": 0.06, "oriDirection": 1, "oriBase": 30, "motionDirection": "out", "speedDirection": -1, "speedStrength": "medium", "speed_start": 0.12, "oriStrength": "medium", "ori_end": 36.48585676415307}, "ITI": 0.8113784264207987, "rt": 0.30997586250305176, "decision_var": 6.48585676415307, "FBDuration": 1, "trial_count": 45, "ts": "orientation", "response": "right", "onset": 268.2135313384974, "quest_estimate": 6.504016948631804, "FB": 1, "displayFB": true, "punishment_amount": 0, "responseWindow": 1.5, "exp_stage": "adaptive_procedure", "stimResponseInterval": 1, "trial_time": 3.8420941829681396}
{"stimulusDuration": 1.5, "reward_amount": 1, "FBonset": 0, "stim": {"ori_start": 30, "motion_direction": "out", "speed_end": 0.06, "oriDirection": -1, "oriBase": 30, "motionDirection": "out", "speedDirection": -1, "speedStrength": "medium", "speed_start": 0.12, "oriStrength": "medium", "ori_end": 23.519462115662222}, "ITI": 1.2283464692081763, "rt": 0.32961010932922363, "decision_var": 6.480537884337776, "FBDuration": 1, "trial_count": 46, "ts": "orientation", "response": "left", "onset": 274.02490976491816, "quest_estimate": 6.497905687941994, "FB": 1, "displayFB": true, "punishment_amount": 0, "responseWindow": 1.5, "exp_stage": "adaptive_procedure", "stimResponseInterval": 1, "trial_time": 3.8651740550994873}
{"stimulusDuration": 1.5, "reward_amount": 1, "FBonset": 0, "stim": {"ori_start": 30, "motion_direction": "in", "speed_end": 0.06, "oriDirection": 1, "oriBase": 30, "motionDirection": "in", "speedDirection": -1, "speedStrength": "medium", "speed_start": 0.12, "oriStrength": "medium", "ori_end": 36.475529582289894}, "ITI": 0.890346012532699, "rt": 0.47096991539001465, "decision_var": 6.475529582289894, "FBDuration": 1, "trial_count": 47, "ts": "orientation", "response": "left", "onset": 280.25325623412635, "quest_estimate": 6.518241623808171, "FB": 0, "displayFB": true, "punishment_amount": 0, "responseWindow": 1.5, "exp_stage": "adaptive_procedure", "stimResponseInterval": 1, "trial_time": 4.009158134460449}
{"stimulusDuration": 1.5, "reward_amount": 1, "FBonset": 0, "stim": {"ori_start": -60, "motion_direction": "in", "speed_end": 0.06, "oriDirection": 1, "oriBase": -60, "motionDirection": "in", "speedDirection": -1, "speedStrength": "medium", "speed_start": 0.12, "oriStrength": "medium", "ori_end": -53.507960442006365}, "ITI": 1.4007048414927499, "rt": 0.9124209880828857, "decision_var": 6.492039557993635, "FBDuration": 1, "trial_count": 48, "ts": "orientation", "response": "right", "onset": 286.14360224665904, "quest_estimate": 6.512083521044158, "FB": 1, "displayFB": true, "punishment_amount": 0, "responseWindow": 1.5, "exp_stage": "adaptive_procedure", "stimResponseInterval": 1, "trial_time": 4.441749095916748}
{"stimulusDuration": 1.5, "reward_amount": 1, "FBonset": 0, "stim": {"ori_start": 30, "motion_direction": "in", "speed_end": 0.06, "oriDirection": 1, "oriBase": 30, "motionDirection": "in", "speedDirection": -1, "speedStrength": "medium", "speed_start": 0.12, "oriStrength": "medium", "ori_end": 36.48696972714077}, "ITI": 1.4587850450824922, "rt": 0.4883460998535156, "decision_var": 6.486969727140767, "FBDuration": 1, "trial_count": 49, "ts": "orientation", "response": "right", "onset": 292.5443070881518, "quest_estimate": 6.506325587594441, "FB": 1, "displayFB": true, "punishment_amount": 0, "responseWindow": 1.5, "exp_stage": "adaptive_procedure", "stimResponseInterval": 1, "trial_time": 4.01531720161438}
{"stimulusDuration": 1.5, "reward_amount": 1, "FBonset": 0, "stim": {"ori_start": -60, "motion_direction": "out", "speed_end": 0.06, "oriDirection": 1, "oriBase": -60, "motionDirection": "out", "speedDirection": -1, "speedStrength": "medium", "speed_start": 0.12, "oriStrength": "medium", "ori_end": -53.517677875517066}, "ITI": 0.8414568325510531, "rt": 0.4920780658721924, "decision_var": 6.482322124482938, "FBDuration": 1, "trial_count": 50, "ts": "orientation", "response": "right", "onset": 299.0030921332343, "quest_estimate": 6.500924623163273, "FB": 1, "displayFB": true, "punishment_amount": 0, "responseWindow": 1.5, "exp_stage": "adaptive_procedure", "stimResponseInterval": 1, "trial_time": 4.023518085479736}
{"stimulusDuration": 1.5, "reward_amount": 1, "FBonset": 0, "stim": {"ori_start": 30, "motion_direction": "in", "speed_end": 0.18, "oriDirection": 1, "oriBase": 30, "motionDirection": "in", "speedDirection": 1, "speedStrength": "medium", "speed_start": 0.12, "oriStrength": "medium", "ori_end": 36.477975518825446}, "ITI": 0.7780114252665131, "rt": 0.46839094161987305, "decision_var": 6.477975518825447, "FBDuration": 1, "trial_count": 51, "ts": "orientation", "response": "left", "onset": 304.84454896578535, "quest_estimate": 6.5185560472776185, "FB": 0, "displayFB": true, "punishment_amount": 0, "responseWindow": 1.5, "exp_stage": "adaptive_procedure", "stimResponseInterval": 1, "trial_time": 4.007538795471191}
{"stimulusDuration": 1.5, "reward_amount": 1, "FBonset": 0, "stim": {"ori_start": 30, "motion_direction": "out", "speed_end": 0.18, "oriDirection": 1, "oriBase": 30, "motionDirection": "out", "speedDirection": 1, "speedStrength": "medium", "speed_start": 0.12, "oriStrength": "medium", "ori_end": 36.492174764952395}, "ITI": 1.336197963997377, "rt": 0.45290589332580566, "decision_var": 6.492174764952397, "FBDuration": 1, "trial_count": 52, "ts": "orientation", "response": "right", "onset": 310.6225603910519, "quest_estimate": 6.513118537593771, "FB": 1, "displayFB": true, "punishment_amount": 0, "responseWindow": 1.5, "exp_stage": "adaptive_procedure", "stimResponseInterval": 1, "trial_time": 3.9953200817108154}
{"stimulusDuration": 1.5, "reward_amount": 1, "FBonset": 0, "stim": {"ori_start": 30, "motion_direction": "in", "speed_end": 0.06, "oriDirection": -1, "oriBase": 30, "motionDirection": "in", "speedDirection": -1, "speedStrength": "medium", "speed_start": 0.12, "oriStrength": "medium", "ori_end": 23.51233816319847}, "ITI": 1.2143891163569496, "rt": 0.3680098056793213, "decision_var": 6.487661836801529, "FBDuration": 1, "trial_count": 53, "ts": "orientation", "response": "left", "onset": 316.95875835504927, "quest_estimate": 6.507998630748144, "FB": 1, "displayFB": true, "punishment_amount": 0, "responseWindow": 1.5, "exp_stage": "adaptive_procedure", "stimResponseInterval": 1, "trial_time": 3.905228853225708}
{"stimulusDuration": 1.5, "reward_amount": 1, "FBonset": 0, "stim": {"ori_start": -60, "motion_direction": "out", "speed_end": 0.06, "oriDirection": 1, "oriBase": -60, "motionDirection": "out", "speedDirection": -1, "speedStrength": "medium", "speed_start": 0.12, "oriStrength": "medium", "ori_end": -53.516463296748285}, "ITI": 0.698553916898064, "rt": 0.5952138900756836, "decision_var": 6.4835367032517155, "FBDuration": 1, "trial_count": 54, "ts": "orientation", "response": "right", "onset": 323.1731474714062, "quest_estimate": 6.503162967335085, "FB": 1, "displayFB": true, "punishment_amount": 0, "responseWindow": 1.5, "exp_stage": "adaptive_procedure", "stimResponseInterval": 1, "trial_time": 4.1327478885650635}
{"stimulusDuration": 1.5, "reward_amount": 1, "FBonset": 0, "stim": {"ori_start": 30, "motion_direction": "in", "speed_end": 0.18, "oriDirection": 1, "oriBase": 30, "motionDirection": "in", "speedDirection": 1, "speedStrength": "medium", "speed_start": 0.12, "oriStrength": "medium", "ori_end": 36.479697780758485}, "ITI": 1.1990779969340386, "rt": 0.4111671447753906, "decision_var": 6.479697780758482, "FBDuration": 1, "trial_count": 55, "ts": "orientation", "response": "right", "onset": 328.87170138830425, "quest_estimate": 6.49858335335745, "FB": 1, "displayFB": true, "punishment_amount": 0, "responseWindow": 1.5, "exp_stage": "adaptive_procedure", "stimResponseInterval": 1, "trial_time": 3.9482791423797607}
{"stimulusDuration": 1.5, "reward_amount": 1, "FBonset": 0, "stim": {"ori_start": -60, "motion_direction": "in", "speed_end": 0.06, "oriDirection": 1, "oriBase": -60, "motionDirection": "in", "speedDirection": -1, "speedStrength": "medium", "speed_start": 0.12, "oriStrength": "medium", "ori_end": -53.523941923207616}, "ITI": 0.854203183314182, "rt": 0.31548285484313965, "decision_var": 6.476058076792386, "FBDuration": 1, "trial_count": 56, "ts": "orientation", "response": "right", "onset": 335.07077938523827, "quest_estimate": 6.494236112556825, "FB": 1, "displayFB": true, "punishment_amount": 0, "responseWindow": 1.5, "exp_stage": "adaptive_procedure", "stimResponseInterval": 1, "trial_time": 3.850942850112915}
{"stimulusDuration": 1.5, "reward_amount": 1, "FBonset": 0, "stim": {"ori_start": -60, "motion_direction": "in", "speed_end": 0.06, "oriDirection": -1, "oriBase": -60, "motionDirection": "in", "speedDirection": -1, "speedStrength": "medium", "speed_start": 0.12, "oriStrength": "medium", "ori_end": -66.47254136880017}, "ITI": 0.5793372979181118, "rt": 0.31711316108703613, "decision_var": 6.472541368800169, "FBDuration": 1, "trial_count": 57, "ts": "orientation", "response": "left", "onset": 340.9249825685524, "quest_estimate": 6.490101488921125, "FB": 1, "displayFB": true, "punishment_amount": 0, "responseWindow": 1.5, "exp_stage": "adaptive_procedure", "stimResponseInterval": 1, "trial_time": 3.8462209701538086}
{"stimulusDuration": 1.5, "reward_amount": 1, "FBonset": 0, "stim": {"ori_start": 30, "motion_direction": "in", "speed_end": 0.06, "oriDirection": 1, "oriBase": 30, "motionDirection": "in", "speedDirection": -1, "speedStrength": "medium", "speed_start": 0.12, "oriStrength": "medium", "ori_end": 36.46907917717924}, "ITI": 1.4289629508105035, "rt": 0.2875359058380127, "decision_var": 6.469079177179239, "FBDuration": 1, "trial_count": 58, "ts": "orientation", "response": "right", "onset": 346.50431986647055, "quest_estimate": 6.486163093820879, "FB": 1, "displayFB": true, "punishment_amount": 0, "responseWindow": 1.5, "exp_stage": "adaptive_procedure", "stimResponseInterval": 1, "trial_time": 3.81925892829895}
{"stimulusDuration": 1.5, "reward_amount": 1, "FBonset": 0, "stim": {"ori_start": -60, "motion_direction": "out", "speed_end": 0.18, "oriDirection": 1, "oriBase": -60, "motionDirection": "out", "speedDirection": 1, "speedStrength": "medium", "speed_start": 0.12, "oriStrength": "medium", "ori_end": -53.534391682562294}, "ITI": 0.6041337783479245, "rt": 0.35634613037109375, "decision_var": 6.465608317437704, "FBDuration": 1, "trial_count": 59, "ts": "orientation", "response": "right", "onset": 352.93328281728105, "quest_estimate": 6.482532797610311, "FB": 1, "displayFB": true, "punishment_amount": 0, "responseWindow": 1.5, "exp_stage": "adaptive_procedure", "stimResponseInterval": 1, "trial_time": 3.890120029449463}
{"stimulusDuration": 1.5, "reward_amount": 1, "FBonset": 0, "stim": {"ori_start": -60, "motion_direction": "in", "speed_end": 0.18, "oriDirection": 1, "oriBase": -60, "motionDirection": "in", "speedDirection": 1, "speedStrength": "medium", "speed_start": 0.12, "oriStrength": "medium", "ori_end": -53.53784286540306}, "ITI": 0.5426404414222648, "rt": 0.46346211433410645, "decision_var": 6.462157134596945, "FBDuration": 1, "trial_count": 60, "ts": "orientation", "response": "right", "onset": 358.537416595629, "quest_estimate": 6.478998486008718, "FB": 1, "displayFB": true, "punishment_amount": 0, "responseWindow": 1.5, "exp_stage": "adaptive_procedure", "stimResponseInterval": 1, "trial_time": 3.9926860332489014}
{"stimulusDuration": 1.5, "reward_amount": 1, "FBonset": 0, "stim": {"ori_start": 30, "motion_direction": "in", "speed_end": 0.06, "oriDirection": -1, "oriBase": 30, "motionDirection": "in", "speedDirection": -1, "speedStrength": "medium", "speed_start": 0.12, "oriStrength": "medium", "ori_end": 23.541487012077845}, "ITI": 0.774547382262748, "rt": 0.3034031391143799, "decision_var": 6.4585129879221554, "FBDuration": 1, "trial_count": 61, "ts": "orientation", "response": "left", "onset": 364.08005703705123, "quest_estimate": 6.475561105257638, "FB": 1, "displayFB": true, "punishment_amount": 0, "responseWindow": 1.5, "exp_stage": "adaptive_procedure", "stimResponseInterval": 1, "trial_time": 3.8364310264587402}
{"stimulusDuration": 1.5, "reward_amount": 1, "FBonset": 0, "stim": {"ori_start": 30, "motion_direction": "in", "speed_end": 0.18, "oriDirection": -1, "oriBase": 30, "motionDirection": "in", "speedDirection": 1, "speedStrength": "medium", "speed_start": 0.12, "oriStrength": "medium", "ori_end": 23.545380350827955}, "ITI": 1.348924327646157, "rt": 0.44966912269592285, "decision_var": 6.454619649172043, "FBDuration": 1, "trial_count": 62, "ts": "orientation", "response": "left", "onset": 369.854604419314, "quest_estimate": 6.4722215707846456, "FB": 1, "displayFB": true, "punishment_amount": 0, "responseWindow": 1.5, "exp_stage": "adaptive_procedure", "stimResponseInterval": 1, "trial_time": 3.9895660877227783}
{"stimulusDuration": 1.5, "reward_amount": 1, "FBonset": 0, "stim": {"ori_start": 30, "motion_direction": "in", "speed_end": 0.18, "oriDirection": -1, "oriBase": 30, "motionDirection": "in", "speedDirection": 1, "speedStrength": "medium", "speed_start": 0.12, "oriStrength": "medium", "ori_end": 23.54958385294292}, "ITI": 0.7536954445164523, "rt": 0.40239500999450684, "decision_var": 6.45041614705708, "FBDuration": 1, "trial_count": 63, "ts": "orientation", "response": "left", "onset": 376.20352874696016, "quest_estimate": 6.468980472122478, "FB": 1, "displayFB": true, "punishment_amount": 0, "responseWindow": 1.5, "exp_stage": "adaptive_procedure", "stimResponseInterval": 1, "trial_time": 3.9415271282196045}
{"stimulusDuration": 1.5, "reward_amount": 1, "FBonset": 0, "stim": {"ori_start": 30, "motion_direction": "out", "speed_end": 0.06, "oriDirection": -1, "oriBase": 30, "motionDirection": "out", "speedDirection": -1, "speedStrength": "medium", "speed_start": 0.12, "oriStrength": "medium", "ori_end": 23.554164619569967}, "ITI": 0.916045117776709, "rt": 0.5250499248504639, "decision_var": 6.445835380430031, "FBDuration": 1, "trial_count": 64, "ts": "orientation", "response": "left", "onset": 381.9572241914766, "quest_estimate": 6.465837803071295, "FB": 1, "displayFB": true, "punishment_amount": 0, "responseWindow": 1.5, "exp_stage": "adaptive_procedure", "stimResponseInterval": 1, "trial_time": 4.0601489543914795}
