{"stimulusDuration": 1.5, "reward_amount": 1, "FBonset": 0, "stim": {"ori_start": -60, "motion_direction": "in", "speed_end": 0.06, "oriDirection": 1, "oriBase": -60, "motionDirection": "in", "speedDirection": -1, "speedStrength": "medium", "speed_start": 0.12, "oriStrength": "medium", "ori_end": -30}, "ITI": 0.6668530576110681, "rt": 0.3156261444091797, "decision_var": 30, "FBDuration": 0.5, "trial_count": 1, "ts": "orientation", "response": "right", "onset": 2, "quest_estimate": 23.905873068303592, "FB": 1, "displayFB": true, "punishment_amount": 0, "responseWindow": 1.5, "exp_stage": "adaptive_procedure", "stimResponseInterval": 0.24968126201587382, "trial_time": 2.597599983215332}
{"stimulusDuration": 1.5, "reward_amount": 1, "FBonset": 0, "stim": {"ori_start": 30, "motion_direction": "out", "speed_end": 0.18, "oriDirection": 1, "oriBase": 30, "motionDirection": "out", "speedDirection": 1, "speedStrength": "medium", "speed_start": 0.12, "oriStrength": "medium", "ori_end": 56.05735527427226}, "ITI": 0.7710933695005866, "rt": 0.5893049240112305, "decision_var": 26.05735527427226, "FBDuration": 0.5, "trial_count": 2, "ts": "orientation", "response": "right", "onset": 6.416534319626942, "quest_estimate": 18.59082863785301, "FB": 1, "displayFB": true, "punishment_amount": 0, "responseWindow": 1.5, "exp_stage": "adaptive_procedure", "stimResponseInterval": 0.6099812933178761, "trial_time": 3.230574131011963}
{"stimulusDuration": 1.5, "reward_amount": 1, "FBonset": 0, "stim": {"ori_start": 30, "motion_direction": "in", "speed_end": 0.06, "oriDirection": 1, "oriBase": 30, "motionDirection": "in", "speedDirection": -1, "speedStrength": "medium", "speed_start": 0.12, "oriStrength": "medium", "ori_end": 49.7676819750625}, "ITI": 0.239545881273456, "rt": 0.4990708827972412, "decision_var": 19.7676819750625, "FBDuration": 0.5, "trial_count": 3, "ts": "orientation", "response": "right", "onset": 11.297608982445405, "quest_estimate": 13.961013317514713, "FB": 1, "displayFB": true, "punishment_amount": 0, "responseWindow": 1.5, "exp_stage": "adaptive_procedure", "stimResponseInterval": 0.3841839418245787, "trial_time": 2.91457200050354}
{"stimulusDuration": 1.5, "reward_amount": 1, "FBonset": 0, "stim": {"ori_start": 30, "motion_direction": "in", "speed_end": 0.18, "oriDirection": 1, "oriBase": 30, "motionDirection": "in", "speedDirection": 1, "speedStrength": "medium", "speed_start": 0.12, "oriStrength": "medium", "ori_end": 44.57899872431736}, "ITI": 0.2968632989876947, "rt": 0.2823750972747803, "decision_var": 14.578998724317362, "FBDuration": 0.5, "trial_count": 4, "ts": "orientation", "response": "right", "onset": 15.421338805543439, "quest_estimate": 9.978812688304295, "FB": 1, "displayFB": true, "punishment_amount": 0, "responseWindow": 1.5, "exp_stage": "adaptive_procedure", "stimResponseInterval": 0.5729913460567766, "trial_time": 2.895228862762451}
{"stimulusDuration": 1.5, "reward_amount": 1, "FBonset": 0, "stim": {"ori_start": -60, "motion_direction": "in", "speed_end": 0.18, "oriDirection": 1, "oriBase": -60, "motionDirection": "in", "speedDirection": 1, "speedStrength": "medium", "speed_start": 0.12, "oriStrength": "medium", "ori_end": -49.74378971337403}, "ITI": 0.6878667203285729, "rt": 0.24184322357177734, "decision_var": 10.256210286625969, "FBDuration": 0.5, "trial_count": 5, "ts": "orientation", "response": "right", "onset": 19.79119345058791, "quest_estimate": 6.585719101026655, "FB": 1, "displayFB": true, "punishment_amount": 0, "responseWindow": 1.5, "exp_stage": "adaptive_procedure", "stimResponseInterval": 0.4570458569405971, "trial_time": 2.7340569496154785}
{"stimulusDuration": 1.5, "reward_amount": 1, "FBonset": 0, "stim": {"ori_start": 30, "motion_direction": "in", "speed_end": 0.06, "oriDirection": 1, "oriBase": 30, "motionDirection": "in", "speedDirection": -1, "speedStrength": "medium", "speed_start": 0.12, "oriStrength": "medium", "ori_end": 36.652387437939495}, "ITI": 0.07710328245987841, "rt": 0.2904012203216553, "decision_var": 6.652387437939492, "FBDuration": 0.5, "trial_count": 6, "ts": "orientation", "response": "left", "onset": 24.436106027857083, "quest_estimate": 17.573248839803803, "FB": 0, "displayFB": true, "punishment_amount": 0, "responseWindow": 1.5, "exp_stage": "adaptive_procedure", "stimResponseInterval": 0.6355767787690776, "trial_time": 2.965174913406372}
{"stimulusDuration": 1.5, "reward_amount": 1, "FBonset": 0, "stim": {"ori_start": -60, "motion_direction": "out", "speed_end": 0.18, "oriDirection": 1, "oriBase": -60, "motionDirection": "out", "speedDirection": 1, "speedStrength": "medium", "speed_start": 0.12, "oriStrength": "medium", "ori_end": -45.709842338908956}, "ITI": 0.6948990056383499, "rt": 0.39052605628967285, "decision_var": 14.290157661091044, "FBDuration": 0.5, "trial_count": 7, "ts": "orientation", "response": "right", "onset": 28.648786089086038, "quest_estimate": 14.666871189262585, "FB": 1, "displayFB": true, "punishment_amount": 0, "responseWindow": 1.5, "exp_stage": "adaptive_procedure", "stimResponseInterval": 0.2655608078733116, "trial_time": 2.68037486076355}
{"stimulusDuration": 1.5, "reward_amount": 1, "FBonset": 0, "stim": {"ori_start": -60, "motion_direction": "out", "speed_end": 0.18, "oriDirection": -1, "oriBase": -60, "motionDirection": "out", "speedDirection": 1, "speedStrength": "medium", "speed_start": 0.12, "oriStrength": "medium", "ori_end": -72.04516338490205}, "ITI": 0.9761815382837518, "rt": 0.38483214378356934, "decision_var": 12.045163384902047, "FBDuration": 0.5, "trial_count": 8, "ts": "orientation", "response": "left", "onset": 33.1092459025977, "quest_estimate": 12.498848846822526, "FB": 1, "displayFB": true, "punishment_amount": 0, "responseWindow": 1.5, "exp_stage": "adaptive_procedure", "stimResponseInterval": 0.8722363201677363, "trial_time": 3.286515951156616}
{"stimulusDuration": 1.5, "reward_amount": 1, "FBonset": 0, "stim": {"ori_start": -60, "motion_direction": "out", "speed_end": 0.06, "oriDirection": -1, "oriBase": -60, "motionDirection": "out", "speedDirection": -1, "speedStrength": "medium", "speed_start": 0.12, "oriStrength": "medium", "ori_end": -70.2736486435611}, "ITI": 0.3424796585173413, "rt": 0.2770509719848633, "decision_var": 10.273648643561106, "FBDuration": 0.5, "trial_count": 9, "ts": "orientation", "response": "right", "onset": 38.45766376104919, "quest_estimate": 18.593909439007923, "FB": 0, "displayFB": true, "punishment_amount": 0, "responseWindow": 1.5, "exp_stage": "adaptive_procedure", "stimResponseInterval": 0.5203589082413378, "trial_time": 2.8266069889068604}
{"stimulusDuration": 1.5, "reward_amount": 1, "FBonset": 0, "stim": {"ori_start": -60, "motion_direction": "out", "speed_end": 0.06, "oriDirection": -1, "oriBase": -60, "motionDirection": "out", "speedDirection": -1, "speedStrength": "medium", "speed_start": 0.12, "oriStrength": "medium", "ori_end": -74.13980231314139}, "ITI": 0.033714268286869076, "rt": 0.26026415824890137, "decision_var": 14.13980231314139, "FBDuration": 0.5, "trial_count": 10, "ts": "orientation", "response": "left", "onset": 42.82050232780787, "quest_estimate": 16.101753259225887, "FB": 1, "displayFB": true, "punishment_amount": 0, "responseWindow": 1.5, "exp_stage": "adaptive_procedure", "stimResponseInterval": 0.6821086604574584, "trial_time": 2.97414493560791}
{"stimulusDuration": 1.5, "reward_amount": 1, "FBonset": 0, "stim": {"ori_start": 30, "motion_direction": "in", "speed_end": 0.06, "oriDirection": -1, "oriBase": 30, "motionDirection": "in", "speedDirection": -1, "speedStrength": "medium", "speed_start": 0.12, "oriStrength": "medium", "ori_end": 17.049073446557}, "ITI": 0.8139287860249631, "rt": 0.3928799629211426, "decision_var": 12.950926553443, "FBDuration": 0.5, "trial_count": 11, "ts": "orientation", "response": "left", "onset": 47.0363252565522, "quest_estimate": 14.34615328246634, "FB": 1, "displayFB": true, "punishment_amount": 0, "responseWindow": 1.5, "exp_stage": "adaptive_procedure", "stimResponseInterval": 0.7485142128119691, "trial_time": 3.1727540493011475}
{"stimulusDuration": 1.5, "reward_amount": 1, "FBonset": 0, "stim": {"ori_start": 30, "motion_direction": "in", "speed_end": 0.06, "oriDirection": -1, "oriBase": 30, "motionDirection": "in", "speedDirection": -1, "speedStrength": "medium", "speed_start": 0.12, "oriStrength": "medium", "ori_end": 17.936194454641523}, "ITI": 0.11332149076110276, "rt": 0.3917701244354248, "decision_var": 12.063805545358477, "FBDuration": 0.5, "trial_count": 12, "ts": "orientation", "response": "left", "onset": 52.09876825538913, "quest_estimate": 13.129421099635092, "FB": 1, "displayFB": true, "punishment_amount": 0, "responseWindow": 1.5, "exp_stage": "adaptive_procedure", "stimResponseInterval": 0.2665587458213574, "trial_time": 2.6915528774261475}
{"stimulusDuration": 1.5, "reward_amount": 1, "FBonset": 0, "stim": {"ori_start": -60, "motion_direction": "in", "speed_end": 0.06, "oriDirection": -1, "oriBase": -60, "motionDirection": "in", "speedDirection": -1, "speedStrength": "medium", "speed_start": 0.12, "oriStrength": "medium", "ori_end": -71.6341658043466}, "ITI": 0.952503437215158, "rt": 0.3285818099975586, "decision_var": 11.634165804346598, "FBDuration": 0.5, "trial_count": 13, "ts": "orientation", "response": "left", "onset": 55.97864849197159, "quest_estimate": 12.293573040034225, "FB": 1, "displayFB": true, "punishment_amount": 0, "responseWindow": 1.5, "exp_stage": "adaptive_procedure", "stimResponseInterval": 0.329683529325685, "trial_time": 2.693758010864258}
{"stimulusDuration": 1.5, "reward_amount": 1, "FBonset": 0, "stim": {"ori_start": 30, "motion_direction": "out", "speed_end": 0.06, "oriDirection": -1, "oriBase": 30, "motionDirection": "out", "speedDirection": -1, "speedStrength": "medium", "speed_start": 0.12, "oriStrength": "medium", "ori_end": 18.68203729711727}, "ITI": 0.6773847708550198, "rt": 0.27280616760253906, "decision_var": 11.317962702882731, "FBDuration": 0.5, "trial_count": 14, "ts": "orientation", "response": "left", "onset": 60.76083545851243, "quest_estimate": 11.694054431171462, "FB": 1, "displayFB": true, "punishment_amount": 0, "responseWindow": 1.5, "exp_stage": "adaptive_procedure", "stimResponseInterval": 0.5420504693279793, "trial_time": 2.8503589630126953}
{"stimulusDuration": 1.5, "reward_amount": 1, "FBonset": 0, "stim": {"ori_start": 30, "motion_direction": "in", "speed_end": 0.18, "oriDirection": -1, "oriBase": 30, "motionDirection": "in", "speedDirection": 1, "speedStrength": "medium", "speed_start": 0.12, "oriStrength": "medium", "ori_end": 18.9300232768482}, "ITI": 0.4667427716907714, "rt": 0.285369873046875, "decision_var": 11.0699767231518, "FBDuration": 0.5, "trial_count": 15, "ts": "orientation", "response": "left", "onset": 65.48027069869543, "quest_estimate": 11.253490627965629, "FB": 1, "displayFB": true, "punishment_amount": 0, "responseWindow": 1.5, "exp_stage": "adaptive_procedure", "stimResponseInterval": 0.752212170976736, "trial_time": 3.0688910484313965}
{"stimulusDuration": 1.5, "reward_amount": 1, "FBonset": 0, "stim": {"ori_start": -60, "motion_direction": "in", "speed_end": 0.18, "oriDirection": -1, "oriBase": -60, "motionDirection": "in", "speedDirection": 1, "speedStrength": "medium", "speed_start": 0.12, "oriStrength": "medium", "ori_end": -70.88421815362612}, "ITI": 0.361818721807055, "rt": 0.3339731693267822, "decision_var": 10.884218153626119, "FBDuration": 0.5, "trial_count": 16, "ts": "orientation", "response": "right", "onset": 70.19922564136294, "quest_estimate": 12.487567006486504, "FB": 0, "displayFB": true, "punishment_amount": 0, "responseWindow": 1.5, "exp_stage": "adaptive_procedure", "stimResponseInterval": 0.4019831616026047, "trial_time": 2.762948989868164}
{"stimulusDuration": 1.5, "reward_amount": 1, "FBonset": 0, "stim": {"ori_start": 30, "motion_direction": "out", "speed_end": 0.06, "oriDirection": 1, "oriBase": 30, "motionDirection": "out", "speedDirection": -1, "speedStrength": "medium", "speed_start": 0.12, "oriStrength": "medium", "ori_end": 41.33238106000066}, "ITI": 0.20028457956542034, "rt": 0.5964829921722412, "decision_var": 11.332381060000657, "FBDuration": 0.5, "trial_count": 17, "ts": "orientation", "response": "right", "onset": 74.4630275247726, "quest_estimate": 11.988829366414798, "FB": 1, "displayFB": true, "punishment_amount": 0, "responseWindow": 1.5, "exp_stage": "adaptive_procedure", "stimResponseInterval": 0.04318001592574161, "trial_time": 2.6676230430603027}
{"stimulusDuration": 1.5, "reward_amount": 1, "FBonset": 0, "stim": {"ori_start": -60, "motion_direction": "out", "speed_end": 0.18, "oriDirection": 1, "oriBase": -60, "motionDirection": "out", "speedDirection": 1, "speedStrength": "medium", "speed_start": 0.12, "oriStrength": "medium", "ori_end": -48.82118750781673}, "ITI": 0.7280449748731606, "rt": 0.4197227954864502, "decision_var": 11.178812492183269, "FBDuration": 0.5, "trial_count": 18, "ts": "orientation", "response": "right", "onset": 78.20649212026376, "quest_estimate": 11.63836992996524, "FB": 1, "displayFB": true, "punishment_amount": 0, "responseWindow": 1.5, "exp_stage": "adaptive_procedure", "stimResponseInterval": 0.13099780738900113, "trial_time": 2.583944082260132}
{"stimulusDuration": 1.5, "reward_amount": 1, "FBonset": 0, "stim": {"ori_start": 30, "motion_direction": "out", "speed_end": 0.06, "oriDirection": -1, "oriBase": 30, "motionDirection": "out", "speedDirection": -1, "speedStrength": "medium", "speed_start": 0.12, "oriStrength": "medium", "ori_end": 18.90904007086886}, "ITI": 0.6957931894165612, "rt": 0.3265838623046875, "decision_var": 11.090959929131142, "FBDuration": 0.5, "trial_count": 19, "ts": "orientation", "response": "left", "onset": 82.56553490252593, "quest_estimate": 11.404905113654387, "FB": 1, "displayFB": true, "punishment_amount": 0, "responseWindow": 1.5, "exp_stage": "adaptive_procedure", "stimResponseInterval": 0.623583854801435, "trial_time": 2.9907331466674805}
{"stimulusDuration": 1.5, "reward_amount": 1, "FBonset": 0, "stim": {"ori_start": 30, "motion_direction": "in", "speed_end": 0.06, "oriDirection": 1, "oriBase": 30, "motionDirection": "in", "speedDirection": -1, "speedStrength": "medium", "speed_start": 0.12, "oriStrength": "medium", "ori_end": 41.03612105862011}, "ITI": 0.02300327751140141, "rt": 0.49008607864379883, "decision_var": 11.036121058620111, "FBDuration": 0.5, "trial_count": 20, "ts": "orientation", "response": "left", "onset": 87.38491194674393, "quest_estimate": 11.813906645516628, "FB": 0, "displayFB": true, "punishment_amount": 0, "responseWindow": 1.5, "exp_stage": "adaptive_procedure", "stimResponseInterval": 0.7424314409517068, "trial_time": 3.268739938735962}
{"stimulusDuration": 1.5, "reward_amount": 1, "FBonset": 0, "stim": {"ori_start": -60, "motion_direction": "in", "speed_end": 0.06, "oriDirection": -1, "oriBase": -60, "motionDirection": "in", "speedDirection": -1, "speedStrength": "medium", "speed_start": 0.12, "oriStrength": "medium", "ori_end": -71.1513422175953}, "ITI": 0.26127046952710864, "rt": 0.42174315452575684, "decision_var": 11.151342217595307, "FBDuration": 0.5, "trial_count": 21, "ts": "orientation", "response": "left", "onset": 91.65034666520704, "quest_estimate": 11.541896645196363, "FB": 1, "displayFB": true, "punishment_amount": 0, "responseWindow": 1.5, "exp_stage": "adaptive_procedure", "stimResponseInterval": 0.6832450045520846, "trial_time": 3.141010046005249}
{"stimulusDuration": 1.5, "reward_amount": 1, "FBonset": 0, "stim": {"ori_start": -60, "motion_direction": "out", "speed_end": 0.06, "oriDirection": -1, "oriBase": -60, "motionDirection": "out", "speedDirection": -1, "speedStrength": "medium", "speed_start": 0.12, "oriStrength": "medium", "ori_end": -71.09364049183263}, "ITI": 0.7937755447680512, "rt": 0.2968738079071045, "decision_var": 11.09364049183263, "FBDuration": 0.5, "trial_count": 22, "ts": "orientation", "response": "left", "onset": 96.09486213928623, "quest_estimate": 11.37629593884541, "FB": 1, "displayFB": true, "punishment_amount": 0, "responseWindow": 1.5, "exp_stage": "adaptive_procedure", "stimResponseInterval": 0.8781397660300834, "trial_time": 3.2149128913879395}
{"stimulusDuration": 1.5, "reward_amount": 1, "FBonset": 0, "stim": {"ori_start": -60, "motion_direction": "in", "speed_end": 0.18, "oriDirection": 1, "oriBase": -60, "motionDirection": "in", "speedDirection": 1, "speedStrength": "medium", "speed_start": 0.12, "oriStrength": "medium", "ori_end": -48.93688467835263}, "ITI": 0.6990671845241763, "rt": 0.31258320808410645, "decision_var": 11.063115321647377, "FBDuration": 0.5, "trial_count": 23, "ts": "orientation", "response": "right", "onset": 101.26677745008436, "quest_estimate": 11.251540805344849, "FB": 1, "displayFB": true, "punishment_amount": 0, "responseWindow": 1.5, "exp_stage": "adaptive_procedure", "stimResponseInterval": 0.6508101187884499, "trial_time": 2.9962241649627686}
{"stimulusDuration": 1.5, "reward_amount": 1, "FBonset": 0, "stim": {"ori_start": -60, "motion_direction": "out", "speed_end": 0.18, "oriDirection": -1, "oriBase": -60, "motionDirection": "out", "speedDirection": 1, "speedStrength": "medium", "speed_start": 0.12, "oriStrength": "medium", "ori_end": -71.03623415442702}, "ITI": 0.17635656180646686, "rt": 0.5355730056762695, "decision_var": 11.036234154427024, "FBDuration": 0.5, "trial_count": 24, "ts": "orientation", "response": "left", "onset": 106.11665475339699, "quest_estimate": 11.179029077976253, "FB": 1, "displayFB": true, "punishment_amount": 0, "responseWindow": 1.5, "exp_stage": "adaptive_procedure", "stimResponseInterval": 0.019989023451978394, "trial_time": 2.586313009262085}
{"stimulusDuration": 1.5, "reward_amount": 1, "FBonset": 0, "stim": {"ori_start": -60, "motion_direction": "in", "speed_end": 0.18, "oriDirection": 1, "oriBase": -60, "motionDirection": "in", "speedDirection": 1, "speedStrength": "medium", "speed_start": 0.12, "oriStrength": "medium", "ori_end": -48.98880455078526}, "ITI": 0.13413801572621298, "rt": 0.3080899715423584, "decision_var": 11.011195449214739, "FBDuration": 0.5, "trial_count": 25, "ts": "orientation", "response": "right", "onset": 109.81300033865543, "quest_estimate": 11.120070370591574, "FB": 1, "displayFB": true, "punishment_amount": 0, "responseWindow": 1.5, "exp_stage": "adaptive_procedure", "stimResponseInterval": 0.7307368508122529, "trial_time": 3.0726258754730225}
{"stimulusDuration": 1.5, "reward_amount": 1, "FBonset": 0, "stim": {"ori_start": 30, "motion_direction": "out", "speed_end": 0.06, "oriDirection": 1, "oriBase": 30, "motionDirection": "out", "speedDirection": -1, "speedStrength": "medium", "speed_start": 0.12, "oriStrength": "medium", "ori_end": 40.98992391254744}, "ITI": 0.3007688952549562, "rt": 0.2996969223022461, "decision_var": 10.989923912547443, "FBDuration": 0.5, "trial_count": 26, "ts": "orientation", "response": "right", "onset": 114.1778752051939, "quest_estimate": 11.073058645179259, "FB": 1, "displayFB": true, "punishment_amount": 0, "responseWindow": 1.5, "exp_stage": "adaptive_procedure", "stimResponseInterval": 0.7248553164086882, "trial_time": 3.058626890182495}
{"stimulusDuration": 1.5, "reward_amount": 1, "FBonset": 0, "stim": {"ori_start": 30, "motion_direction": "in", "speed_end": 0.18, "oriDirection": 1, "oriBase": 30, "motionDirection": "in", "speedDirection": 1, "speedStrength": "medium", "speed_start": 0.12, "oriStrength": "medium", "ori_end": 40.9749391419614}, "ITI": 0.8525953883809336, "rt": 0.4478340148925781, "decision_var": 10.974939141961404, "FBDuration": 0.5, "trial_count": 27, "ts": "orientation", "response": "right", "onset": 118.70349941685754, "quest_estimate": 11.036025017906244, "FB": 1, "displayFB": true, "punishment_amount": 0, "responseWindow": 1.5, "exp_stage": "adaptive_procedure", "stimResponseInterval": 0.4847911785083543, "trial_time": 2.972712993621826}
{"stimulusDuration": 1.5, "reward_amount": 1, "FBonset": 0, "stim": {"ori_start": 30, "motion_direction": "in", "speed_end": 0.06, "oriDirection": 1, "oriBase": 30, "motionDirection": "in", "speedDirection": -1, "speedStrength": "medium", "speed_start": 0.12, "oriStrength": "medium", "ori_end": 40.96165127686656}, "ITI": 0.7521710166340607, "rt": 0.3378419876098633, "decision_var": 10.961651276866558, "FBDuration": 0.5, "trial_count": 28, "ts": "orientation", "response": "left", "onset": 123.54088598374683, "quest_estimate": 11.140499562129861, "FB": 0, "displayFB": true, "punishment_amount": 0, "responseWindow": 1.5, "exp_stage": "adaptive_procedure", "stimResponseInterval": 0.3543712717143017, "trial_time": 2.726430892944336}
{"stimulusDuration": 1.5, "reward_amount": 1, "FBonset": 0, "stim": {"ori_start": 30, "motion_direction": "out", "speed_end": 0.18, "oriDirection": -1, "oriBase": 30, "motionDirection": "out", "speedDirection": 1, "speedStrength": "medium", "speed_start": 0.12, "oriStrength": "medium", "ori_end": 18.9943219557258}, "ITI": 0.3297154169293377, "rt": 0.7635397911071777, "decision_var": 11.005678044274202, "FBDuration": 0.5, "trial_count": 29, "ts": "orientation", "response": "left", "onset": 128.1474282720952, "quest_estimate": 11.098207086436897, "FB": 1, "displayFB": true, "punishment_amount": 0, "responseWindow": 1.5, "exp_stage": "adaptive_procedure", "stimResponseInterval": 0.023159339346841112, "trial_time": 2.81252121925354}
{"stimulusDuration": 1.5, "reward_amount": 1, "FBonset": 0, "stim": {"ori_start": -60, "motion_direction": "out", "speed_end": 0.18, "oriDirection": 1, "oriBase": -60, "motionDirection": "out", "speedDirection": 1, "speedStrength": "medium", "speed_start": 0.12, "oriStrength": "medium", "ori_end": -49.009770346423664}, "ITI": 0.10861675641813717, "rt": 0.36229515075683594, "decision_var": 10.990229653576332, "FBDuration": 0.5, "trial_count": 30, "ts": "orientation", "response": "right", "onset": 132.00030302837138, "quest_estimate": 11.064542171626158, "FB": 1, "displayFB": true, "punishment_amount": 0, "responseWindow": 1.5, "exp_stage": "adaptive_procedure", "stimResponseInterval": 0.34409933772364887, "trial_time": 2.74635910987854}
{"stimulusDuration": 1.5, "reward_amount": 1, "FBonset": 0, "stim": {"ori_start": -60, "motion_direction": "out", "speed_end": 0.06, "oriDirection": -1, "oriBase": -60, "motionDirection": "out", "speedDirection": -1, "speedStrength": "medium", "speed_start": 0.12, "oriStrength": "medium", "ori_end": -70.97910460380356}, "ITI": 0.3478456228409337, "rt": 0.3836209774017334, "decision_var": 10.979104603803567, "FBDuration": 0.5, "trial_count": 31, "ts": "orientation", "response": "right", "onset": 135.95301912251315, "quest_estimate": 11.145943571244448, "FB": 0, "displayFB": true, "punishment_amount": 0, "responseWindow": 1.5, "exp_stage": "adaptive_procedure", "stimResponseInterval": 0.3127435649794501, "trial_time": 2.7310118675231934}
{"stimulusDuration": 1.5, "reward_amount": 1, "FBonset": 0, "stim": {"ori_start": -60, "motion_direction": "out", "speed_end": 0.06, "oriDirection": 1, "oriBase": -60, "motionDirection": "out", "speedDirection": -1, "speedStrength": "medium", "speed_start": 0.12, "oriStrength": "medium", "ori_end": -48.98256641157268}, "ITI": 0.8356526742853125, "rt": 0.2600259780883789, "decision_var": 11.017433588427323, "FBDuration": 0.5, "trial_count": 32, "ts": "orientation", "response": "right", "onset": 140.11360831033355, "quest_estimate": 11.10795914497356, "FB": 1, "displayFB": true, "punishment_amount": 0, "responseWindow": 1.5, "exp_stage": "adaptive_procedure", "stimResponseInterval": 0.5028255065256961, "trial_time": 2.802611827850342}
{"stimulusDuration": 1.5, "reward_amount": 1, "FBonset": 0, "stim": {"ori_start": 30, "motion_direction": "out", "speed_end": 0.06, "oriDirection": -1, "oriBase": 30, "motionDirection": "out", "speedDirection": -1, "speedStrength": "medium", "speed_start": 0.12, "oriStrength": "medium", "ori_end": 19.001055093596097}, "ITI": 0.005162522691155136, "rt": 0.3816978931427002, "decision_var": 10.998944906403903, "FBDuration": 0.5, "trial_count": 33, "ts": "orientation", "response": "left", "onset": 144.95208649114454, "quest_estimate": 11.077541090989904, "FB": 1, "displayFB": true, "punishment_amount": 0, "responseWindow": 1.5, "exp_stage": "adaptive_procedure", "stimResponseInterval": 0.9982111193837948, "trial_time": 3.4135360717773438}
{"stimulusDuration": 1.5, "reward_amount": 1, "FBonset": 0, "stim": {"ori_start": 30, "motion_direction": "out", "speed_end": 0.18, "oriDirection": -1, "oriBase": 30, "motionDirection": "out", "speedDirection": 1, "speedStrength": "medium", "speed_start": 0.12, "oriStrength": "medium", "ori_end": 19.01147404696543}, "ITI": 0.3276441266614588, "rt": 0.4636979103088379, "decision_var": 10.988525953034571, "FBDuration": 0.5, "trial_count": 34, "ts": "orientation", "response": "left", "onset": 149.4554601332195, "quest_estimate": 11.05325265389094, "FB": 1, "displayFB": true, "punishment_amount": 0, "responseWindow": 1.5, "exp_stage": "adaptive_procedure", "stimResponseInterval": 0.2532364269580012, "trial_time": 2.7445011138916016}
{"stimulusDuration": 1.5, "reward_amount": 1, "FBonset": 0, "stim": {"ori_start": -60, "motion_direction": "in", "speed_end": 0.06, "oriDirection": -1, "oriBase": -60, "motionDirection": "in", "speedDirection": -1, "speedStrength": "medium", "speed_start": 0.12, "oriStrength": "medium", "ori_end": -70.97984284621539}, "ITI": 0.5892209666642445, "rt": 0.42369794845581055, "decision_var": 10.979842846215387, "FBDuration": 0.5, "trial_count": 35, "ts": "orientation", "response": "left", "onset": 153.53634068683897, "quest_estimate": 11.03378077964916, "FB": 1, "displayFB": true, "punishment_amount": 0, "responseWindow": 1.5, "exp_stage": "adaptive_procedure", "stimResponseInterval": 0.11051586645639211, "trial_time": 2.5624091625213623}
{"stimulusDuration": 1.5, "reward_amount": 1, "FBonset": 0, "stim": {"ori_start": -60, "motion_direction": "in", "speed_end": 0.06, "oriDirection": -1, "oriBase": -60, "motionDirection": "in", "speedDirection": -1, "speedStrength": "medium", "speed_start": 0.12, "oriStrength": "medium", "ori_end": -70.97239164292905}, "ITI": 0.9639099261848307, "rt": 0.3470909595489502, "decision_var": 10.972391642929054, "FBDuration": 0.5, "trial_count": 36, "ts": "orientation", "response": "right", "onset": 157.7360775199596, "quest_estimate": 11.083651946778243, "FB": 0, "displayFB": true, "punishment_amount": 0, "responseWindow": 1.5, "exp_stage": "adaptive_procedure", "stimResponseInterval": 0.7991699153007099, "trial_time": 3.1743950843811035}
{"stimulusDuration": 1.5, "reward_amount": 1, "FBonset": 0, "stim": {"ori_start": -60, "motion_direction": "out", "speed_end": 0.18, "oriDirection": 1, "oriBase": -60, "motionDirection": "out", "speedDirection": 1, "speedStrength": "medium", "speed_start": 0.12, "oriStrength": "medium", "ori_end": -49.005235189995844}, "ITI": 0.3016561234074572, "rt": 0.41452598571777344, "decision_var": 10.994764810004156, "FBDuration": 0.5, "trial_count": 37, "ts": "orientation", "response": "right", "onset": 162.99915736144513, "quest_estimate": 11.061735679856923, "FB": 1, "displayFB": true, "punishment_amount": 0, "responseWindow": 1.5, "exp_stage": "adaptive_procedure", "stimResponseInterval": 0.6298459906161928, "trial_time": 3.0742549896240234}
{"stimulusDuration": 1.5, "reward_amount": 1, "FBonset": 0, "stim": {"ori_start": -60, "motion_direction": "out", "speed_end": 0.06, "oriDirection": 1, "oriBase": -60, "motionDirection": "out", "speedDirection": -1, "speedStrength": "medium", "speed_start": 0.12, "oriStrength": "medium", "ori_end": -49.01362409762692}, "ITI": 0.8651111953486552, "rt": 0.2945830821990967, "decision_var": 10.986375902373076, "FBDuration": 0.5, "trial_count": 38, "ts": "orientation", "response": "right", "onset": 167.4306594754688, "quest_estimate": 11.044138926320674, "FB": 1, "displayFB": true, "punishment_amount": 0, "responseWindow": 1.5, "exp_stage": "adaptive_procedure", "stimResponseInterval": 0.38312456211971013, "trial_time": 2.707616090774536}
{"stimulusDuration": 1.5, "reward_amount": 1, "FBonset": 0, "stim": {"ori_start": -60, "motion_direction": "out", "speed_end": 0.06, "oriDirection": 1, "oriBase": -60, "motionDirection": "out", "speedDirection": -1, "speedStrength": "medium", "speed_start": 0.12, "oriStrength": "medium", "ori_end": -49.02059977142213}, "ITI": 0.3258182872705495, "rt": 0.4189760684967041, "decision_var": 10.97940022857787, "FBDuration": 0.5, "trial_count": 39, "ts": "orientation", "response": "right", "onset": 172.17889523293715, "quest_estimate": 11.029875313859588, "FB": 1, "displayFB": true, "punishment_amount": 0, "responseWindow": 1.5, "exp_stage": "adaptive_procedure", "stimResponseInterval": 0.21098570239576842, "trial_time": 2.659862995147705}
{"stimulusDuration": 1.5, "reward_amount": 1, "FBonset": 0, "stim": {"ori_start": 30, "motion_direction": "in", "speed_end": 0.18, "oriDirection": 1, "oriBase": 30, "motionDirection": "in", "speedDirection": 1, "speedStrength": "medium", "speed_start": 0.12, "oriStrength": "medium", "ori_end": 40.9734615543865}, "ITI": 0.15821513448907754, "rt": 0.32160496711730957, "decision_var": 10.973461554386507, "FBDuration": 0.5, "trial_count": 40, "ts": "orientation", "response": "left", "onset": 176.21569922260346, "quest_estimate": 11.066041140760426, "FB": 0, "displayFB": true, "punishment_amount": 0, "responseWindow": 1.5, "exp_stage": "adaptive_procedure", "stimResponseInterval": 0.5412008008061795, "trial_time": 2.8881349563598633}
{"stimulusDuration": 1.5, "reward_amount": 1, "FBonset": 0, "stim": {"ori_start": 30, "motion_direction": "out", "speed_end": 0.18, "oriDirection": 1, "oriBase": 30, "motionDirection": "out", "speedDirection": 1, "speedStrength": "medium", "speed_start": 0.12, "oriStrength": "medium", "ori_end": 40.99104573394817}, "ITI": 0.2943936457419184, "rt": 0.28835296630859375, "decision_var": 10.99104573394817, "FBDuration": 0.5, "trial_count": 41, "ts": "orientation", "response": "right", "onset": 180.41511515789873, "quest_estimate": 11.050097543421355, "FB": 1, "displayFB": true, "punishment_amount": 0, "responseWindow": 1.5, "exp_stage": "adaptive_procedure", "stimResponseInterval": 0.8049653485063848, "trial_time": 3.1184771060943604}
{"stimulusDuration": 1.5, "reward_amount": 1, "FBonset": 0, "stim": {"ori_start": 30, "motion_direction": "in", "speed_end": 0.18, "oriDirection": -1, "oriBase": 30, "motionDirection": "in", "speedDirection": 1, "speedStrength": "medium", "speed_start": 0.12, "oriStrength": "medium", "ori_end": 19.015862116677162}, "ITI": 0.007923391561604154, "rt": 0.4985949993133545, "decision_var": 10.984137883322838, "FBDuration": 0.5, "trial_count": 42, "ts": "orientation", "response": "left", "onset": 185.01447415214702, "quest_estimate": 11.03719727327205, "FB": 1, "displayFB": true, "punishment_amount": 0, "responseWindow": 1.5, "exp_stage": "adaptive_procedure", "stimResponseInterval": 0.13416210244104554, "trial_time": 2.6727499961853027}
{"stimulusDuration": 1.5, "reward_amount": 1, "FBonset": 0, "stim": {"ori_start": -60, "motion_direction": "out", "speed_end": 0.06, "oriDirection": 1, "oriBase": -60, "motionDirection": "out", "speedDirection": -1, "speedStrength": "medium", "speed_start": 0.12, "oriStrength": "medium", "ori_end": -49.021598890940226}, "ITI": 0.0486595165410576, "rt": 0.5035760402679443, "decision_var": 10.978401109059774, "FBDuration": 0.5, "trial_count": 43, "ts": "orientation", "response": "right", "onset": 188.65655964614967, "quest_estimate": 11.026627546790955, "FB": 1, "displayFB": true, "punishment_amount": 0, "responseWindow": 1.5, "exp_stage": "adaptive_procedure", "stimResponseInterval": 0.06795711137926175, "trial_time": 2.6025781631469727}
{"stimulusDuration": 1.5, "reward_amount": 1, "FBonset": 0, "stim": {"ori_start": 30, "motion_direction": "out", "speed_end": 0.06, "oriDirection": -1, "oriBase": 30, "motionDirection": "out", "speedDirection": -1, "speedStrength": "medium", "speed_start": 0.12, "oriStrength": "medium", "ori_end": 19.02645262165029}, "ITI": 0.2514863649739252, "rt": 0.34571099281311035, "decision_var": 10.97354737834971, "FBDuration": 0.5, "trial_count": 44, "ts": "orientation", "response": "left", "onset": 192.27317627406998, "quest_estimate": 11.017809622365455, "FB": 1, "displayFB": true, "punishment_amount": 0, "responseWindow": 1.5, "exp_stage": "adaptive_procedure", "stimResponseInterval": 0.24027018890765262, "trial_time": 2.614964008331299}
{"stimulusDuration": 1.5, "reward_amount": 1, "FBonset": 0, "stim": {"ori_start": -60, "motion_direction": "in", "speed_end": 0.06, "oriDirection": 1, "oriBase": -60, "motionDirection": "in", "speedDirection": -1, "speedStrength": "medium", "speed_start": 0.12, "oriStrength": "medium", "ori_end": -49.03065025272467}, "ITI": 0.3569279086828292, "rt": 0.29113101959228516, "decision_var": 10.96934974727533, "FBDuration": 0.5, "trial_count": 45, "ts": "orientation", "response": "right", "onset": 196.26493282795155, "quest_estimate": 11.010283411727727, "FB": 1, "displayFB": true, "punishment_amount": 0, "responseWindow": 1.5, "exp_stage": "adaptive_procedure", "stimResponseInterval": 0.4630827205237559, "trial_time": 2.7903451919555664}
{"stimulusDuration": 1.5, "reward_amount": 1, "FBonset": 0, "stim": {"ori_start": 30, "motion_direction": "in", "speed_end": 0.18, "oriDirection": -1, "oriBase": 30, "motionDirection": "in", "speedDirection": 1, "speedStrength": "medium", "speed_start": 0.12, "oriStrength": "medium", "ori_end": 19.034374693469314}, "ITI": 0.4043349749884386, "rt": 0.4145979881286621, "decision_var": 10.965625306530686, "FBDuration": 0.5, "trial_count": 46, "ts": "orientation", "response": "left", "onset": 200.58494345715815, "quest_estimate": 11.00368913894673, "FB": 1, "displayFB": true, "punishment_amount": 0, "responseWindow": 1.5, "exp_stage": "adaptive_procedure", "stimResponseInterval": 0.14632756139727365, "trial_time": 2.5917749404907227}
{"stimulusDuration": 1.5, "reward_amount": 1, "FBonset": 0, "stim": {"ori_start": -60, "motion_direction": "in", "speed_end": 0.18, "oriDirection": 1, "oriBase": -60, "motionDirection": "in", "speedDirection": 1, "speedStrength": "medium", "speed_start": 0.12, "oriStrength": "medium", "ori_end": -49.037777404611624}, "ITI": 0.4689550916884271, "rt": 0.29929018020629883, "decision_var": 10.962222595388376, "FBDuration": 0.5, "trial_count": 47, "ts": "orientation", "response": "right", "onset": 204.63560599354386, "quest_estimate": 10.99774937778178, "FB": 1, "displayFB": true, "punishment_amount": 0, "responseWindow": 1.5, "exp_stage": "adaptive_procedure", "stimResponseInterval": 0.6573271412109203, "trial_time": 2.9865970611572266}
{"stimulusDuration": 1.5, "reward_amount": 1, "FBonset": 0, "stim": {"ori_start": -60, "motion_direction": "out", "speed_end": 0.18, "oriDirection": -1, "oriBase": -60, "motionDirection": "out", "speedDirection": 1, "speedStrength": "medium", "speed_start": 0.12, "oriStrength": "medium", "ori_end": -70.95901213268843}, "ITI": 0.37364864183836066, "rt": 0.38760805130004883, "decision_var": 10.959012132688429, "FBDuration": 0.5, "trial_count": 48, "ts": "orientation", "response": "left", "onset": 209.2618882264432, "quest_estimate": 10.99225327391461, "FB": 1, "displayFB": true, "punishment_amount": 0, "responseWindow": 1.5, "exp_stage": "adaptive_procedure", "stimResponseInterval": 0.13961513566850037, "trial_time": 2.5621178150177}
{"stimulusDuration": 1.5, "reward_amount": 1, "FBonset": 0, "stim": {"ori_start": 30, "motion_direction": "in", "speed_end": 0.06, "oriDirection": -1, "oriBase": 30, "motionDirection": "in", "speedDirection": -1, "speedStrength": "medium", "speed_start": 0.12, "oriStrength": "medium", "ori_end": 19.044120884980302}, "ITI": 0.31531127305640916, "rt": 0.2856159210205078, "decision_var": 10.955879115019698, "FBDuration": 0.5, "trial_count": 49, "ts": "orientation", "response": "left", "onset": 213.27515200395007, "quest_estimate": 10.98704363398149, "FB": 1, "displayFB": true, "punishment_amount": 0, "responseWindow": 1.5, "exp_stage": "adaptive_procedure", "stimResponseInterval": 0.5773996089148601, "trial_time": 2.8997838497161865}
{"stimulusDuration": 1.5, "reward_amount": 1, "FBonset": 0, "stim": {"ori_start": 30, "motion_direction": "out", "speed_end": 0.18, "oriDirection": 1, "oriBase": 30, "motionDirection": "out", "speedDirection": 1, "speedStrength": "medium", "speed_start": 0.12, "oriStrength": "medium", "ori_end": 40.95271760675735}, "ITI": 0.6297298626486403, "rt": 0.31327199935913086, "decision_var": 10.952717606757354, "FBDuration": 0.5, "trial_count": 50, "ts": "orientation", "response": "right", "onset": 217.66786288592135, "quest_estimate": 10.982006838525418, "FB": 1, "displayFB": true, "punishment_amount": 0, "responseWindow": 1.5, "exp_stage": "adaptive_procedure", "stimResponseInterval": 0.17713502754781907, "trial_time": 2.515947103500366}
{"stimulusDuration": 1.5, "reward_amount": 1, "FBonset": 0, "stim": {"ori_start": -60, "motion_direction": "in", "speed_end": 0.18, "oriDirection": -1, "oriBase": -60, "motionDirection": "in", "speedDirection": 1, "speedStrength": "medium", "speed_start": 0.12, "oriStrength": "medium", "ori_end": -70.94942573435613}, "ITI": 0.8329022490384079, "rt": 0.44176506996154785, "decision_var": 10.949425734356122, "FBDuration": 0.5, "trial_count": 51, "ts": "orientation", "response": "left", "onset": 221.97472777611782, "quest_estimate": 10.977298124927287, "FB": 1, "displayFB": true, "punishment_amount": 0, "responseWindow": 1.5, "exp_stage": "adaptive_procedure", "stimResponseInterval": 0.8401241805320734, "trial_time": 3.316920042037964}
{"stimulusDuration": 1.5, "reward_amount": 1, "FBonset": 0, "stim": {"ori_start": 30, "motion_direction": "out", "speed_end": 0.18, "oriDirection": -1, "oriBase": 30, "motionDirection": "out", "speedDirection": 1, "speedStrength": "medium", "speed_start": 0.12, "oriStrength": "medium", "ori_end": 19.053999679368438}, "ITI": 0.873313906233387, "rt": 0.009341001510620117, "decision_var": 10.946000320631562, "FBDuration": 0.5, "trial_count": 52, "ts": "orientation", "response": "left", "onset": 227.1477542056883, "quest_estimate": 10.97246713518997, "FB": 1, "displayFB": true, "punishment_amount": 0, "responseWindow": 1.5, "exp_stage": "adaptive_procedure", "stimResponseInterval": 0.5858804514483535, "trial_time": 2.6215271949768066}
{"stimulusDuration": 1.5, "reward_amount": 1, "FBonset": 0, "stim": {"ori_start": 30, "motion_direction": "out", "speed_end": 0.18, "oriDirection": 1, "oriBase": 30, "motionDirection": "out", "speedDirection": 1, "speedStrength": "medium", "speed_start": 0.12, "oriStrength": "medium", "ori_end": 40.9421148815907}, "ITI": 0.5679430847434292, "rt": 0.3773159980773926, "decision_var": 10.942114881590697, "FBDuration": 0.5, "trial_count": 53, "ts": "orientation", "response": "right", "onset": 232.10694856337005, "quest_estimate": 10.96753424895477, "FB": 1, "displayFB": true, "punishment_amount": 0, "responseWindow": 1.5, "exp_stage": "adaptive_procedure", "stimResponseInterval": 0.30974890816194267, "trial_time": 2.7187180519104004}
{"stimulusDuration": 1.5, "reward_amount": 1, "FBonset": 0, "stim": {"ori_start": -60, "motion_direction": "in", "speed_end": 0.18, "oriDirection": -1, "oriBase": -60, "motionDirection": "in", "speedDirection": 1, "speedStrength": "medium", "speed_start": 0.12, "oriStrength": "medium", "ori_end": -70.93765769751519}, "ITI": 0.04896950586525639, "rt": 0.5481891632080078, "decision_var": 10.937657697515188, "FBDuration": 0.5, "trial_count": 54, "ts": "orientation", "response": "left", "onset": 236.48464055627542, "quest_estimate": 10.962533402094902, "FB": 1, "displayFB": true, "punishment_amount": 0, "responseWindow": 1.5, "exp_stage": "adaptive_procedure", "stimResponseInterval": 0.6021126131638741, "trial_time": 3.18692684173584}
{"stimulusDuration": 1.5, "reward_amount": 1, "FBonset": 0, "stim": {"ori_start": -60, "motion_direction": "in", "speed_end": 0.06, "oriDirection": 1, "oriBase": -60, "motionDirection": "in", "speedDirection": -1, "speedStrength": "medium", "speed_start": 0.12, "oriStrength": "medium", "ori_end": -49.067501296268354}, "ITI": 0.2259918838360354, "rt": 0.43358421325683594, "decision_var": 10.932498703731646, "FBDuration": 0.5, "trial_count": 55, "ts": "orientation", "response": "right", "onset": 240.63572267530455, "quest_estimate": 10.95750998339782, "FB": 1, "displayFB": true, "punishment_amount": 0, "responseWindow": 1.5, "exp_stage": "adaptive_procedure", "stimResponseInterval": 0.7817885535525768, "trial_time": 3.2496228218078613}
{"stimulusDuration": 1.5, "reward_amount": 1, "FBonset": 0, "stim": {"ori_start": 30, "motion_direction": "in", "speed_end": 0.18, "oriDirection": 1, "oriBase": 30, "motionDirection": "in", "speedDirection": 1, "speedStrength": "medium", "speed_start": 0.12, "oriStrength": "medium", "ori_end": 40.92648557258833}, "ITI": 0.8799298158531239, "rt": 0.3478579521179199, "decision_var": 10.926485572588327, "FBDuration": 0.5, "trial_count": 56, "ts": "orientation", "response": "left", "onset": 245.14350311269317, "quest_estimate": 10.969279305358384, "FB": 0, "displayFB": true, "punishment_amount": 0, "responseWindow": 1.5, "exp_stage": "adaptive_procedure", "stimResponseInterval": 0.7134411189487366, "trial_time": 3.0857298374176025}
{"stimulusDuration": 1.5, "reward_amount": 1, "FBonset": 0, "stim": {"ori_start": 30, "motion_direction": "out", "speed_end": 0.06, "oriDirection": 1, "oriBase": 30, "motionDirection": "out", "speedDirection": -1, "speedStrength": "medium", "speed_start": 0.12, "oriStrength": "medium", "ori_end": 40.939472327540386}, "ITI": 0.1253355061681216, "rt": 0.4236929416656494, "decision_var": 10.939472327540383, "FBDuration": 0.5, "trial_count": 57, "ts": "orientation", "response": "right", "onset": 250.23687404749504, "quest_estimate": 10.964410075176286, "FB": 1, "displayFB": true, "punishment_amount": 0, "responseWindow": 1.5, "exp_stage": "adaptive_procedure", "stimResponseInterval": 0.7947690274958805, "trial_time": 3.2481141090393066}
{"stimulusDuration": 1.5, "reward_amount": 1, "FBonset": 0, "stim": {"ori_start": -60, "motion_direction": "out", "speed_end": 0.18, "oriDirection": -1, "oriBase": -60, "motionDirection": "out", "speedDirection": 1, "speedStrength": "medium", "speed_start": 0.12, "oriStrength": "medium", "ori_end": -70.9347202298451}, "ITI": 0.41440498768716694, "rt": 0.35469818115234375, "decision_var": 10.934720229845098, "FBDuration": 0.5, "trial_count": 58, "ts": "orientation", "response": "left", "onset": 254.65697858115902, "quest_estimate": 10.959483139543597, "FB": 1, "displayFB": true, "punishment_amount": 0, "responseWindow": 1.5, "exp_stage": "adaptive_procedure", "stimResponseInterval": 0.7694092238775632, "trial_time": 3.1491730213165283}
{"stimulusDuration": 1.5, "reward_amount": 1, "FBonset": 0, "stim": {"ori_start": 30, "motion_direction": "in", "speed_end": 0.18, "oriDirection": -1, "oriBase": 30, "motionDirection": "in", "speedDirection": 1, "speedStrength": "medium", "speed_start": 0.12, "oriStrength": "medium", "ori_end": 19.070815290301933}, "ITI": 0.7472492686076917, "rt": 0.5223510265350342, "decision_var": 10.929184709698067, "FBDuration": 0.5, "trial_count": 59, "ts": "orientation", "response": "left", "onset": 259.34079279272373, "quest_estimate": 10.954550001168432, "FB": 1, "displayFB": true, "punishment_amount": 0, "responseWindow": 1.5, "exp_stage": "adaptive_procedure", "stimResponseInterval": 0.23147948119972916, "trial_time": 2.792863130569458}
{"stimulusDuration": 1.5, "reward_amount": 1, "FBonset": 0, "stim": {"ori_start": 30, "motion_direction": "out", "speed_end": 0.06, "oriDirection": 1, "oriBase": 30, "motionDirection": "out", "speedDirection": -1, "speedStrength": "medium", "speed_start": 0.12, "oriStrength": "medium", "ori_end": 40.92270116894246}, "ITI": 0.9835444489937333, "rt": 0.6199371814727783, "decision_var": 10.92270116894246, "FBDuration": 0.5, "trial_count": 60, "ts": "orientation", "response": "right", "onset": 263.81952154253116, "quest_estimate": 10.949668288749368, "FB": 1, "displayFB": true, "punishment_amount": 0, "responseWindow": 1.5, "exp_stage": "adaptive_procedure", "stimResponseInterval": 0.7495933039790592, "trial_time": 3.395601987838745}
{"stimulusDuration": 1.5, "reward_amount": 1, "FBonset": 0, "stim": {"ori_start": 30, "motion_direction": "in", "speed_end": 0.06, "oriDirection": -1, "oriBase": 30, "motionDirection": "in", "speedDirection": -1, "speedStrength": "medium", "speed_start": 0.12, "oriStrength": "medium", "ori_end": 19.084924598202026}, "ITI": 0.6837478192444348, "rt": 0.3905179500579834, "decision_var": 10.915075401797974, "FBDuration": 0.5, "trial_count": 61, "ts": "orientation", "response": "left", "onset": 269.05265929550393, "quest_estimate": 10.944897587012584, "FB": 1, "displayFB": true, "punishment_amount": 0, "responseWindow": 1.5, "exp_stage": "adaptive_procedure", "stimResponseInterval": 0.2506632517692067, "trial_time": 2.6814589500427246}
{"stimulusDuration": 1.5, "reward_amount": 1, "FBonset": 0, "stim": {"ori_start": -60, "motion_direction": "in", "speed_end": 0.18, "oriDirection": -1, "oriBase": -60, "motionDirection": "in", "speedDirection": 1, "speedStrength": "medium", "speed_start": 0.12, "oriStrength": "medium", "ori_end": -70.9060776791743}, "ITI": 0.14059126640319253, "rt": 0.5216319561004639, "decision_var": 10.906077679174295, "FBDuration": 0.5, "trial_count": 62, "ts": "orientation", "response": "left", "onset": 273.48707036651757, "quest_estimate": 10.94029517210523, "FB": 1, "displayFB": true, "punishment_amount": 0, "responseWindow": 1.5, "exp_stage": "adaptive_procedure", "stimResponseInterval": 0.0030473520693923284, "trial_time": 2.5741589069366455}
{"stimulusDuration": 1.5, "reward_amount": 1, "FBonset": 0, "stim": {"ori_start": -60, "motion_direction": "in", "speed_end": 0.06, "oriDirection": 1, "oriBase": -60, "motionDirection": "in", "speedDirection": -1, "speedStrength": "medium", "speed_start": 0.12, "oriStrength": "medium", "ori_end": -49.10287776083522}, "ITI": 0.9736590136266701, "rt": 0.27931904792785645, "decision_var": 10.89712223916478, "FBDuration": 0.5, "trial_count": 63, "ts": "orientation", "response": "right", "onset": 277.1307089849902, "quest_estimate": 10.935912172143627, "FB": 1, "displayFB": true, "punishment_amount": 0, "responseWindow": 1.5, "exp_stage": "adaptive_procedure", "stimResponseInterval": 0.943382587732269, "trial_time": 3.249336004257202}
{"stimulusDuration": 1.5, "reward_amount": 1, "FBonset": 0, "stim": {"ori_start": 30, "motion_direction": "out", "speed_end": 0.18, "oriDirection": -1, "oriBase": 30, "motionDirection": "out", "speedDirection": 1, "speedStrength": "medium", "speed_start": 0.12, "oriStrength": "medium", "ori_end": 19.10909352667331}, "ITI": 0.0650600269908096, "rt": 0.44017505645751953, "decision_var": 10.890906473326691, "FBDuration": 0.5, "trial_count": 64, "ts": "orientation", "response": "left", "onset": 282.54775058634914, "quest_estimate": 10.931790586525029, "FB": 1, "displayFB": true, "punishment_amount": 0, "responseWindow": 1.5, "exp_stage": "adaptive_procedure", "stimResponseInterval": 0.801600651830499, "trial_time": 3.282809019088745}
