{"stimulusDuration": 1.5, "reward_amount": 1, "FBonset": 0, "stim": {"ori_start": 30, "motion_direction": "out", "speed_end": 0.06, "oriDirection": 1, "oriBase": 30, "motionDirection": "out", "speedDirection": -1, "speedStrength": "medium", "speed_start": 0.12, "oriStrength": "medium", "ori_end": 60}, "ITI": 0.5689990936395815, "rt": 0.27106595039367676, "decision_var": 30, "FBDuration": 1, "trial_count": 1, "ts": "orientation", "response": "right", "onset": 2, "quest_estimate": 27.0851368517413, "FB": 1, "displayFB": true, "punishment_amount": 0, "responseWindow": 1.5, "exp_stage": "adaptive_procedure", "stimResponseInterval": 1.0912840046121874, "trial_time": 3.901683807373047}
{"stimulusDuration": 1.5, "reward_amount": 1, "FBonset": 0, "stim": {"ori_start": -60, "motion_direction": "out", "speed_end": 0.18, "oriDirection": -1, "oriBase": -60, "motionDirection": "out", "speedDirection": 1, "speedStrength": "medium", "speed_start": 0.12, "oriStrength": "medium", "ori_end": -85}, "ITI": 0.6464481996551399, "rt": 0.5318279266357422, "decision_var": 25, "FBDuration": 1, "trial_count": 2, "ts": "orientation", "response": "left", "onset": 7.660283098251769, "quest_estimate": 24.316064552468653, "FB": 1, "displayFB": true, "punishment_amount": 0, "responseWindow": 1.5, "exp_stage": "adaptive_procedure", "stimResponseInterval": 0.5366465991803229, "trial_time": 3.5939857959747314}
{"stimulusDuration": 1.5, "reward_amount": 1, "FBonset": 0, "stim": {"ori_start": 30, "motion_direction": "out", "speed_end": 0.06, "oriDirection": -1, "oriBase": 30, "motionDirection": "out", "speedDirection": -1, "speedStrength": "medium", "speed_start": 0.12, "oriStrength": "medium", "ori_end": 5.395791914626322}, "ITI": 1.0441305289224623, "rt": 0.379565954208374, "decision_var": 24.604208085373678, "FBDuration": 1, "trial_count": 3, "ts": "orientation", "response": "left", "onset": 12.843377897087231, "quest_estimate": 21.894185110663926, "FB": 1, "displayFB": true, "punishment_amount": 0, "responseWindow": 1.5, "exp_stage": "adaptive_procedure", "stimResponseInterval": 0.8522765569399668, "trial_time": 3.773831844329834}
{"stimulusDuration": 1.5, "reward_amount": 1, "FBonset": 0, "stim": {"ori_start": 30, "motion_direction": "out", "speed_end": 0.18, "oriDirection": 1, "oriBase": 30, "motionDirection": "out", "speedDirection": 1, "speedStrength": "medium", "speed_start": 0.12, "oriStrength": "medium", "ori_end": 52.42015487038394}, "ITI": 1.184308872827871, "rt": 0.34240102767944336, "decision_var": 22.420154870383936, "FBDuration": 1, "trial_count": 4, "ts": "orientation", "response": "right", "onset": 18.73978498294966, "quest_estimate": 19.818038799492413, "FB": 1, "displayFB": true, "punishment_amount": 0, "responseWindow": 1.5, "exp_stage": "adaptive_procedure", "stimResponseInterval": 0.7664369320824704, "trial_time": 3.6514179706573486}
{"stimulusDuration": 1.5, "reward_amount": 1, "FBonset": 0, "stim": {"ori_start": 30, "motion_direction": "in", "speed_end": 0.06, "oriDirection": -1, "oriBase": 30, "motionDirection": "in", "speedDirection": -1, "speedStrength": "medium", "speed_start": 0.12, "oriStrength": "medium", "ori_end": 9.514894936131583}, "ITI": 1.032888431023638, "rt": 0.3035709857940674, "decision_var": 20.485105063868417, "FBDuration": 1, "trial_count": 5, "ts": "orientation", "response": "left", "onset": 24.690530787860002, "quest_estimate": 18.014115762101248, "FB": 1, "displayFB": true, "punishment_amount": 0, "responseWindow": 1.5, "exp_stage": "adaptive_procedure", "stimResponseInterval": 0.9682395965958066, "trial_time": 3.8147411346435547}
{"stimulusDuration": 1.5, "reward_amount": 1, "FBonset": 0, "stim": {"ori_start": -60, "motion_direction": "out", "speed_end": 0.18, "oriDirection": 1, "oriBase": -60, "motionDirection": "out", "speedDirection": 1, "speedStrength": "medium", "speed_start": 0.12, "oriStrength": "medium", "ori_end": -41.25334759300797}, "ITI": 0.6430774318227059, "rt": 0.2534971237182617, "decision_var": 18.746652406992027, "FBDuration": 1, "trial_count": 6, "ts": "orientation", "response": "right", "onset": 30.691658815479446, "quest_estimate": 16.42788505011709, "FB": 1, "displayFB": true, "punishment_amount": 0, "responseWindow": 1.5, "exp_stage": "adaptive_procedure", "stimResponseInterval": 1.319234492645705, "trial_time": 4.109913110733032}
{"stimulusDuration": 1.5, "reward_amount": 1, "FBonset": 0, "stim": {"ori_start": -60, "motion_direction": "out", "speed_end": 0.18, "oriDirection": 1, "oriBase": -60, "motionDirection": "out", "speedDirection": 1, "speedStrength": "medium", "speed_start": 0.12, "oriStrength": "medium", "ori_end": -42.831671559183114}, "ITI": 0.8315872836426084, "rt": 0.3743019104003906, "decision_var": 17.168328440816886, "FBDuration": 1, "trial_count": 7, "ts": "orientation", "response": "right", "onset": 36.65397073994786, "quest_estimate": 15.023627161058954, "FB": 1, "displayFB": true, "punishment_amount": 0, "responseWindow": 1.5, "exp_stage": "adaptive_procedure", "stimResponseInterval": 0.5340634183438464, "trial_time": 3.447356939315796}
{"stimulusDuration": 1.5, "reward_amount": 1, "FBonset": 0, "stim": {"ori_start": -60, "motion_direction": "out", "speed_end": 0.06, "oriDirection": -1, "oriBase": -60, "motionDirection": "out", "speedDirection": -1, "speedStrength": "medium", "speed_start": 0.12, "oriStrength": "medium", "ori_end": -75.73734624534907}, "ITI": 1.2853388379204413, "rt": 0.2989230155944824, "decision_var": 15.737346245349066, "FBDuration": 1, "trial_count": 8, "ts": "orientation", "response": "left", "onset": 42.01962144193431, "quest_estimate": 13.771628749159138, "FB": 1, "displayFB": true, "punishment_amount": 0, "responseWindow": 1.5, "exp_stage": "adaptive_procedure", "stimResponseInterval": 0.624331775039719, "trial_time": 3.461120128631592}
{"stimulusDuration": 1.5, "reward_amount": 1, "FBonset": 0, "stim": {"ori_start": 30, "motion_direction": "in", "speed_end": 0.18, "oriDirection": -1, "oriBase": 30, "motionDirection": "in", "speedDirection": 1, "speedStrength": "medium", "speed_start": 0.12, "oriStrength": "medium", "ori_end": 15.569620489875485}, "ITI": 0.8460979294534914, "rt": 0.3129129409790039, "decision_var": 14.430379510124515, "FBDuration": 1, "trial_count": 9, "ts": "orientation", "response": "left", "onset": 47.929292054894475, "quest_estimate": 12.651179311550433, "FB": 1, "displayFB": true, "punishment_amount": 0, "responseWindow": 1.5, "exp_stage": "adaptive_procedure", "stimResponseInterval": 1.2427134605812937, "trial_time": 4.082630157470703}
{"stimulusDuration": 1.5, "reward_amount": 1, "FBonset": 0, "stim": {"ori_start": -60, "motion_direction": "in", "speed_end": 0.18, "oriDirection": 1, "oriBase": -60, "motionDirection": "in", "speedDirection": 1, "speedStrength": "medium", "speed_start": 0.12, "oriStrength": "medium", "ori_end": -46.76267907234292}, "ITI": 0.8377110116853739, "rt": 0.3255269527435303, "decision_var": 13.237320927657084, "FBDuration": 1, "trial_count": 10, "ts": "orientation", "response": "right", "onset": 54.01810344492926, "quest_estimate": 11.648377261280839, "FB": 1, "displayFB": true, "punishment_amount": 0, "responseWindow": 1.5, "exp_stage": "adaptive_procedure", "stimResponseInterval": 1.0335656529733883, "trial_time": 3.895051956176758}
{"stimulusDuration": 1.5, "reward_amount": 1, "FBonset": 0, "stim": {"ori_start": 30, "motion_direction": "out", "speed_end": 0.06, "oriDirection": -1, "oriBase": 30, "motionDirection": "out", "speedDirection": -1, "speedStrength": "medium", "speed_start": 0.12, "oriStrength": "medium", "ori_end": 17.84544757984561}, "ITI": 1.1081673275851323, "rt": 0.3097958564758301, "decision_var": 12.154552420154388, "FBDuration": 1, "trial_count": 11, "ts": "orientation", "response": "left", "onset": 59.889380109588025, "quest_estimate": 10.746491999727905, "FB": 1, "displayFB": true, "punishment_amount": 0, "responseWindow": 1.5, "exp_stage": "adaptive_procedure", "stimResponseInterval": 0.683479325315214, "trial_time": 3.5221939086914062}
{"stimulusDuration": 1.5, "reward_amount": 1, "FBonset": 0, "stim": {"ori_start": 30, "motion_direction": "out", "speed_end": 0.18, "oriDirection": -1, "oriBase": 30, "motionDirection": "out", "speedDirection": 1, "speedStrength": "medium", "speed_start": 0.12, "oriStrength": "medium", "ori_end": 18.839568737493167}, "ITI": 0.8092698392921234, "rt": 0.3236508369445801, "decision_var": 11.160431262506833, "FBDuration": 1, "trial_count": 12, "ts": "orientation", "response": "left", "onset": 65.68102676248837, "quest_estimate": 9.946444153625304, "FB": 1, "displayFB": true, "punishment_amount": 0, "responseWindow": 1.5, "exp_stage": "adaptive_procedure", "stimResponseInterval": 1.3468913764033141, "trial_time": 4.206712961196899}
{"stimulusDuration": 1.5, "reward_amount": 1, "FBonset": 0, "stim": {"ori_start": -60, "motion_direction": "in", "speed_end": 0.06, "oriDirection": 1, "oriBase": -60, "motionDirection": "in", "speedDirection": -1, "speedStrength": "medium", "speed_start": 0.12, "oriStrength": "medium", "ori_end": -49.715185283693074}, "ITI": 1.2639037933047932, "rt": 0.3273639678955078, "decision_var": 10.284814716306926, "FBDuration": 1, "trial_count": 13, "ts": "orientation", "response": "right", "onset": 71.8371879781838, "quest_estimate": 9.237069426725025, "FB": 1, "displayFB": true, "punishment_amount": 0, "responseWindow": 1.5, "exp_stage": "adaptive_procedure", "stimResponseInterval": 0.7233655163609947, "trial_time": 3.577820062637329}
{"stimulusDuration": 1.5, "reward_amount": 1, "FBonset": 0, "stim": {"ori_start": 30, "motion_direction": "in", "speed_end": 0.18, "oriDirection": -1, "oriBase": 30, "motionDirection": "in", "speedDirection": 1, "speedStrength": "medium", "speed_start": 0.12, "oriStrength": "medium", "ori_end": 20.496987650852343}, "ITI": 0.7628849670890081, "rt": 0.3416628837585449, "decision_var": 9.503012349147657, "FBDuration": 1, "trial_count": 14, "ts": "orientation", "response": "left", "onset": 77.8244572878496, "quest_estimate": 8.607640023836876, "FB": 1, "displayFB": true, "punishment_amount": 0, "responseWindow": 1.5, "exp_stage": "adaptive_procedure", "stimResponseInterval": 0.5199458290955432, "trial_time": 3.39933705329895}
{"stimulusDuration": 1.5, "reward_amount": 1, "FBonset": 0, "stim": {"ori_start": 30, "motion_direction": "in", "speed_end": 0.18, "oriDirection": 1, "oriBase": 30, "motionDirection": "in", "speedDirection": 1, "speedStrength": "medium", "speed_start": 0.12, "oriStrength": "medium", "ori_end": 38.80049690008009}, "ITI": 0.793201310464031, "rt": 0.2886080741882324, "decision_var": 8.800496900080091, "FBDuration": 1, "trial_count": 15, "ts": "orientation", "response": "left", "onset": 83.10728808403415, "quest_estimate": 10.745087622275324, "FB": 0, "displayFB": true, "punishment_amount": 0, "responseWindow": 1.5, "exp_stage": "adaptive_procedure", "stimResponseInterval": 1.2249724871789553, "trial_time": 4.050624132156372}
{"stimulusDuration": 1.5, "reward_amount": 1, "FBonset": 0, "stim": {"ori_start": -60, "motion_direction": "in", "speed_end": 0.06, "oriDirection": -1, "oriBase": -60, "motionDirection": "in", "speedDirection": -1, "speedStrength": "medium", "speed_start": 0.12, "oriStrength": "medium", "ori_end": -70.27850555268755}, "ITI": 0.7748953778025458, "rt": 0.3010540008544922, "decision_var": 10.278505552687552, "FBDuration": 1, "trial_count": 16, "ts": "orientation", "response": "left", "onset": 89.12546188167714, "quest_estimate": 10.25652725555069, "FB": 1, "displayFB": true, "punishment_amount": 0, "responseWindow": 1.5, "exp_stage": "adaptive_procedure", "stimResponseInterval": 0.6638842733270449, "trial_time": 3.49782395362854}
{"stimulusDuration": 1.5, "reward_amount": 1, "FBonset": 0, "stim": {"ori_start": 30, "motion_direction": "out", "speed_end": 0.06, "oriDirection": 1, "oriBase": 30, "motionDirection": "out", "speedDirection": -1, "speedStrength": "medium", "speed_start": 0.12, "oriStrength": "medium", "ori_end": 39.85191191211349}, "ITI": 1.2739275312097431, "rt": 0.4421098232269287, "decision_var": 9.851911912113497, "FBDuration": 1, "trial_count": 17, "ts": "orientation", "response": "right", "onset": 94.56424153280673, "quest_estimate": 9.88402398897071, "FB": 1, "displayFB": true, "punishment_amount": 0, "responseWindow": 1.5, "exp_stage": "adaptive_procedure", "stimResponseInterval": 1.3094919680580168, "trial_time": 4.294697046279907}
{"stimulusDuration": 1.5, "reward_amount": 1, "FBonset": 0, "stim": {"ori_start": 30, "motion_direction": "out", "speed_end": 0.06, "oriDirection": 1, "oriBase": 30, "motionDirection": "out", "speedDirection": -1, "speedStrength": "medium", "speed_start": 0.12, "oriStrength": "medium", "ori_end": 39.56225717012802}, "ITI": 1.0382350461857341, "rt": 0.3501880168914795, "decision_var": 9.562257170128017, "FBDuration": 1, "trial_count": 18, "ts": "orientation", "response": "right", "onset": 101.1476610320745, "quest_estimate": 9.604852201184347, "FB": 1, "displayFB": true, "punishment_amount": 0, "responseWindow": 1.5, "exp_stage": "adaptive_procedure", "stimResponseInterval": 1.1849848171198645, "trial_time": 4.0754289627075195}
{"stimulusDuration": 1.5, "reward_amount": 1, "FBonset": 0, "stim": {"ori_start": -60, "motion_direction": "out", "speed_end": 0.18, "oriDirection": 1, "oriBase": -60, "motionDirection": "out", "speedDirection": 1, "speedStrength": "medium", "speed_start": 0.12, "oriStrength": "medium", "ori_end": -50.618537262966115}, "ITI": 1.0609629825021598, "rt": 0.315540075302124, "decision_var": 9.381462737033889, "FBDuration": 1, "trial_count": 19, "ts": "orientation", "response": "right", "onset": 107.3708808953801, "quest_estimate": 9.393448159216366, "FB": 1, "displayFB": true, "punishment_amount": 0, "responseWindow": 1.5, "exp_stage": "adaptive_procedure", "stimResponseInterval": 0.6382170613770302, "trial_time": 3.4853930473327637}
{"stimulusDuration": 1.5, "reward_amount": 1, "FBonset": 0, "stim": {"ori_start": 30, "motion_direction": "out", "speed_end": 0.06, "oriDirection": 1, "oriBase": 30, "motionDirection": "out", "speedDirection": -1, "speedStrength": "medium", "speed_start": 0.12, "oriStrength": "medium", "ori_end": 39.26207571598907}, "ITI": 0.5352635516671969, "rt": 0.37528300285339355, "decision_var": 9.26207571598907, "FBDuration": 1, "trial_count": 20, "ts": "orientation", "response": "right", "onset": 113.07006093925929, "quest_estimate": 9.227980980551933, "FB": 1, "displayFB": true, "punishment_amount": 0, "responseWindow": 1.5, "exp_stage": "adaptive_procedure", "stimResponseInterval": 1.4967487062953486, "trial_time": 4.403675079345703}
{"stimulusDuration": 1.5, "reward_amount": 1, "FBonset": 0, "stim": {"ori_start": 30, "motion_direction": "out", "speed_end": 0.18, "oriDirection": -1, "oriBase": 30, "motionDirection": "out", "speedDirection": 1, "speedStrength": "medium", "speed_start": 0.12, "oriStrength": "medium", "ori_end": 20.83253153236412}, "ITI": 1.1966177283458563, "rt": 0.34306788444519043, "decision_var": 9.167468467635882, "FBDuration": 1, "trial_count": 21, "ts": "orientation", "response": "left", "onset": 119.10207319722184, "quest_estimate": 9.094599770932113, "FB": 1, "displayFB": true, "punishment_amount": 0, "responseWindow": 1.5, "exp_stage": "adaptive_procedure", "stimResponseInterval": 1.474170364313986, "trial_time": 4.348320007324219}
{"stimulusDuration": 1.5, "reward_amount": 1, "FBonset": 0, "stim": {"ori_start": -60, "motion_direction": "in", "speed_end": 0.06, "oriDirection": -1, "oriBase": -60, "motionDirection": "in", "speedDirection": -1, "speedStrength": "medium", "speed_start": 0.12, "oriStrength": "medium", "ori_end": -69.09316186830178}, "ITI": 0.699496298280164, "rt": 0.6079850196838379, "decision_var": 9.093161868301777, "FBDuration": 1, "trial_count": 22, "ts": "orientation", "response": "left", "onset": 125.77286128988169, "quest_estimate": 8.978571429001459, "FB": 1, "displayFB": true, "punishment_amount": 0, "responseWindow": 1.5, "exp_stage": "adaptive_procedure", "stimResponseInterval": 0.8298831608434387, "trial_time": 3.978266954421997}
{"stimulusDuration": 1.5, "reward_amount": 1, "FBonset": 0, "stim": {"ori_start": 30, "motion_direction": "in", "speed_end": 0.18, "oriDirection": 1, "oriBase": 30, "motionDirection": "in", "speedDirection": 1, "speedStrength": "medium", "speed_start": 0.12, "oriStrength": "medium", "ori_end": 39.028599572133786}, "ITI": 0.938787802611158, "rt": 0.28914308547973633, "decision_var": 9.028599572133782, "FBDuration": 1, "trial_count": 23, "ts": "orientation", "response": "right", "onset": 131.30224074900528, "quest_estimate": 8.870133756538898, "FB": 1, "displayFB": true, "punishment_amount": 0, "responseWindow": 1.5, "exp_stage": "adaptive_procedure", "stimResponseInterval": 0.8746625864587632, "trial_time": 3.7058799266815186}
{"stimulusDuration": 1.5, "reward_amount": 1, "FBonset": 0, "stim": {"ori_start": -60, "motion_direction": "in", "speed_end": 0.18, "oriDirection": -1, "oriBase": -60, "motionDirection": "in", "speedDirection": 1, "speedStrength": "medium", "speed_start": 0.12, "oriStrength": "medium", "ori_end": -68.97215194865242}, "ITI": 0.7394200443041368, "rt": 0.3464980125427246, "decision_var": 8.972151948652428, "FBDuration": 1, "trial_count": 24, "ts": "orientation", "response": "left", "onset": 137.1156911380752, "quest_estimate": 8.773459752717617, "FB": 1, "displayFB": true, "punishment_amount": 0, "responseWindow": 1.5, "exp_stage": "adaptive_procedure", "stimResponseInterval": 1.049298759882976, "trial_time": 3.9227168560028076}
{"stimulusDuration": 1.5, "reward_amount": 1, "FBonset": 0, "stim": {"ori_start": 30, "motion_direction": "in", "speed_end": 0.06, "oriDirection": 1, "oriBase": 30, "motionDirection": "in", "speedDirection": -1, "speedStrength": "medium", "speed_start": 0.12, "oriStrength": "medium", "ori_end": 38.92503651763731}, "ITI": 0.5315420291296458, "rt": 0.3422119617462158, "decision_var": 8.925036517637313, "FBDuration": 1, "trial_count": 25, "ts": "orientation", "response": "left", "onset": 142.9044099422623, "quest_estimate": 9.143935925747186, "FB": 0, "displayFB": true, "punishment_amount": 0, "responseWindow": 1.5, "exp_stage": "adaptive_procedure", "stimResponseInterval": 1.1506287379746138, "trial_time": 4.029031991958618}
{"stimulusDuration": 1.5, "reward_amount": 1, "FBonset": 0, "stim": {"ori_start": 30, "motion_direction": "out", "speed_end": 0.18, "oriDirection": 1, "oriBase": 30, "motionDirection": "out", "speedDirection": 1, "speedStrength": "medium", "speed_start": 0.12, "oriStrength": "medium", "ori_end": 39.05606674758032}, "ITI": 1.4745964086206516, "rt": 0.5145690441131592, "decision_var": 9.05606674758032, "FBDuration": 1, "trial_count": 26, "ts": "orientation", "response": "left", "onset": 148.58658070936656, "quest_estimate": 9.349072554442625, "FB": 0, "displayFB": true, "punishment_amount": 0, "responseWindow": 1.5, "exp_stage": "adaptive_procedure", "stimResponseInterval": 0.6347450531385705, "trial_time": 3.685250997543335}
{"stimulusDuration": 1.5, "reward_amount": 1, "FBonset": 0, "stim": {"ori_start": 30, "motion_direction": "out", "speed_end": 0.18, "oriDirection": 1, "oriBase": 30, "motionDirection": "out", "speedDirection": 1, "speedStrength": "medium", "speed_start": 0.12, "oriStrength": "medium", "ori_end": 39.18705149177558}, "ITI": 1.3398030326798844, "rt": 0.32883787155151367, "decision_var": 9.187051491775577, "FBDuration": 1, "trial_count": 27, "ts": "orientation", "response": "right", "onset": 154.69592217112577, "quest_estimate": 9.262278778586396, "FB": 1, "displayFB": true, "punishment_amount": 0, "responseWindow": 1.5, "exp_stage": "adaptive_procedure", "stimResponseInterval": 0.9254852604402093, "trial_time": 3.794887065887451}
{"stimulusDuration": 1.5, "reward_amount": 1, "FBonset": 0, "stim": {"ori_start": -60, "motion_direction": "out", "speed_end": 0.06, "oriDirection": -1, "oriBase": -60, "motionDirection": "out", "speedDirection": -1, "speedStrength": "medium", "speed_start": 0.12, "oriStrength": "medium", "ori_end": -69.14218278967309}, "ITI": 1.4982067668562278, "rt": 0.4081408977508545, "decision_var": 9.142182789673079, "FBDuration": 1, "trial_count": 28, "ts": "orientation", "response": "left", "onset": 160.96121046424588, "quest_estimate": 9.19995910204814, "FB": 1, "displayFB": true, "punishment_amount": 0, "responseWindow": 1.5, "exp_stage": "adaptive_procedure", "stimResponseInterval": 1.0416021397769741, "trial_time": 3.989436149597168}
{"stimulusDuration": 1.5, "reward_amount": 1, "FBonset": 0, "stim": {"ori_start": -60, "motion_direction": "out", "speed_end": 0.18, "oriDirection": -1, "oriBase": -60, "motionDirection": "out", "speedDirection": 1, "speedStrength": "medium", "speed_start": 0.12, "oriStrength": "medium", "ori_end": -69.10752552814512}, "ITI": 0.606391530379411, "rt": 0.37021899223327637, "decision_var": 9.107525528145114, "FBDuration": 1, "trial_count": 29, "ts": "orientation", "response": "right", "onset": 167.50101937087908, "quest_estimate": 9.374951530282083, "FB": 0, "displayFB": true, "punishment_amount": 0, "responseWindow": 1.5, "exp_stage": "adaptive_procedure", "stimResponseInterval": 1.4660357475386823, "trial_time": 4.368187189102173}
{"stimulusDuration": 1.5, "reward_amount": 1, "FBonset": 0, "stim": {"ori_start": -60, "motion_direction": "in", "speed_end": 0.18, "oriDirection": 1, "oriBase": -60, "motionDirection": "in", "speedDirection": 1, "speedStrength": "medium", "speed_start": 0.12, "oriStrength": "medium", "ori_end": -50.788058250442155}, "ITI": 1.2668390656990933, "rt": 0.42938804626464844, "decision_var": 9.211941749557845, "FBDuration": 1, "trial_count": 30, "ts": "orientation", "response": "right", "onset": 173.57344664879716, "quest_estimate": 9.298777642554949, "FB": 1, "displayFB": true, "punishment_amount": 0, "responseWindow": 1.5, "exp_stage": "adaptive_procedure", "stimResponseInterval": 1.1479119710331198, "trial_time": 4.117387771606445}
{"stimulusDuration": 1.5, "reward_amount": 1, "FBonset": 0, "stim": {"ori_start": -60, "motion_direction": "in", "speed_end": 0.06, "oriDirection": 1, "oriBase": -60, "motionDirection": "in", "speedDirection": -1, "speedStrength": "medium", "speed_start": 0.12, "oriStrength": "medium", "ori_end": -50.82630047697005}, "ITI": 0.8264038205809303, "rt": 0.25000500679016113, "decision_var": 9.173699523029953, "FBDuration": 1, "trial_count": 31, "ts": "orientation", "response": "right", "onset": 179.98819768552937, "quest_estimate": 9.238451535717111, "FB": 1, "displayFB": true, "punishment_amount": 0, "responseWindow": 1.5, "exp_stage": "adaptive_procedure", "stimResponseInterval": 0.7283187062078986, "trial_time": 3.517547130584717}
{"stimulusDuration": 1.5, "reward_amount": 1, "FBonset": 0, "stim": {"ori_start": -60, "motion_direction": "out", "speed_end": 0.06, "oriDirection": 1, "oriBase": -60, "motionDirection": "out", "speedDirection": -1, "speedStrength": "medium", "speed_start": 0.12, "oriStrength": "medium", "ori_end": -50.85407725542779}, "ITI": 1.0593042700611555, "rt": 0.1725780963897705, "decision_var": 9.14592274457221, "FBDuration": 1, "trial_count": 32, "ts": "orientation", "response": "right", "onset": 185.5429202123182, "quest_estimate": 9.196830400763986, "FB": 1, "displayFB": true, "punishment_amount": 0, "responseWindow": 1.5, "exp_stage": "adaptive_procedure", "stimResponseInterval": 1.453647752159466, "trial_time": 4.160053014755249}
{"stimulusDuration": 1.5, "reward_amount": 1, "FBonset": 0, "stim": {"ori_start": -60, "motion_direction": "out", "speed_end": 0.18, "oriDirection": -1, "oriBase": -60, "motionDirection": "out", "speedDirection": 1, "speedStrength": "medium", "speed_start": 0.12, "oriStrength": "medium", "ori_end": -69.12180026316855}, "ITI": 1.4614294026991317, "rt": 0.3119661808013916, "decision_var": 9.121800263168545, "FBDuration": 1, "trial_count": 33, "ts": "orientation", "response": "left", "onset": 192.0558722345388, "quest_estimate": 9.163125206454911, "FB": 1, "displayFB": true, "punishment_amount": 0, "responseWindow": 1.5, "exp_stage": "adaptive_procedure", "stimResponseInterval": 0.6967040046072386, "trial_time": 3.5442609786987305}
{"stimulusDuration": 1.5, "reward_amount": 1, "FBonset": 0, "stim": {"ori_start": 30, "motion_direction": "in", "speed_end": 0.06, "oriDirection": 1, "oriBase": 30, "motionDirection": "in", "speedDirection": -1, "speedStrength": "medium", "speed_start": 0.12, "oriStrength": "medium", "ori_end": 39.105723125409696}, "ITI": 0.8888432252312144, "rt": 0.3115870952606201, "decision_var": 9.105723125409696, "FBDuration": 1, "trial_count": 34, "ts": "orientation", "response": "right", "onset": 198.21400564184518, "quest_estimate": 9.136268269543212, "FB": 1, "displayFB": true, "punishment_amount": 0, "responseWindow": 1.5, "exp_stage": "adaptive_procedure", "stimResponseInterval": 0.7847998620480809, "trial_time": 3.6385979652404785}
{"stimulusDuration": 1.5, "reward_amount": 1, "FBonset": 0, "stim": {"ori_start": -60, "motion_direction": "out", "speed_end": 0.18, "oriDirection": -1, "oriBase": -60, "motionDirection": "out", "speedDirection": 1, "speedStrength": "medium", "speed_start": 0.12, "oriStrength": "medium", "ori_end": -69.09127881271701}, "ITI": 1.0603487003294796, "rt": 0.28099918365478516, "decision_var": 9.091278812717, "FBDuration": 1, "trial_count": 35, "ts": "orientation", "response": "left", "onset": 203.88764872912446, "quest_estimate": 9.116854482651586, "FB": 1, "displayFB": true, "punishment_amount": 0, "responseWindow": 1.5, "exp_stage": "adaptive_procedure", "stimResponseInterval": 0.9111534659662421, "trial_time": 3.7242419719696045}
{"stimulusDuration": 1.5, "reward_amount": 1, "FBonset": 0, "stim": {"ori_start": 30, "motion_direction": "in", "speed_end": 0.18, "oriDirection": -1, "oriBase": 30, "motionDirection": "in", "speedDirection": 1, "speedStrength": "medium", "speed_start": 0.12, "oriStrength": "medium", "ori_end": 20.92205135312171}, "ITI": 0.6502534306099337, "rt": 0.3569221496582031, "decision_var": 9.07794864687829, "FBDuration": 1, "trial_count": 36, "ts": "orientation", "response": "left", "onset": 209.85915089542019, "quest_estimate": 9.100134195056558, "FB": 1, "displayFB": true, "punishment_amount": 0, "responseWindow": 1.5, "exp_stage": "adaptive_procedure", "stimResponseInterval": 1.34972507819495, "trial_time": 4.249060153961182}
{"stimulusDuration": 1.5, "reward_amount": 1, "FBonset": 0, "stim": {"ori_start": 30, "motion_direction": "in", "speed_end": 0.06, "oriDirection": -1, "oriBase": 30, "motionDirection": "in", "speedDirection": -1, "speedStrength": "medium", "speed_start": 0.12, "oriStrength": "medium", "ori_end": 20.936070751855404}, "ITI": 0.668428373214558, "rt": 0.3000040054321289, "decision_var": 9.063929248144596, "FBDuration": 1, "trial_count": 37, "ts": "orientation", "response": "left", "onset": 215.85912940422506, "quest_estimate": 9.085703255655357, "FB": 1, "displayFB": true, "punishment_amount": 0, "responseWindow": 1.5, "exp_stage": "adaptive_procedure", "stimResponseInterval": 0.9534493233984402, "trial_time": 3.7953882217407227}
{"stimulusDuration": 1.5, "reward_amount": 1, "FBonset": 0, "stim": {"ori_start": 30, "motion_direction": "in", "speed_end": 0.06, "oriDirection": 1, "oriBase": 30, "motionDirection": "in", "speedDirection": -1, "speedStrength": "medium", "speed_start": 0.12, "oriStrength": "medium", "ori_end": 39.053969394142996}, "ITI": 1.2404565955713371, "rt": 0.27917003631591797, "decision_var": 9.053969394143, "FBDuration": 1, "trial_count": 38, "ts": "orientation", "response": "left", "onset": 221.48100710083804, "quest_estimate": 9.12540571942806, "FB": 0, "displayFB": true, "punishment_amount": 0, "responseWindow": 1.5, "exp_stage": "adaptive_procedure", "stimResponseInterval": 0.8123496484292105, "trial_time": 3.6245031356811523}
{"stimulusDuration": 1.5, "reward_amount": 1, "FBonset": 0, "stim": {"ori_start": -60, "motion_direction": "out", "speed_end": 0.06, "oriDirection": 1, "oriBase": -60, "motionDirection": "out", "speedDirection": -1, "speedStrength": "medium", "speed_start": 0.12, "oriStrength": "medium", "ori_end": -50.913037268708734}, "ITI": 1.40733663248274, "rt": 0.33234286308288574, "decision_var": 9.086962731291269, "FBDuration": 1, "trial_count": 39, "ts": "orientation", "response": "right", "onset": 227.5338133448386, "quest_estimate": 9.11033713280121, "FB": 1, "displayFB": true, "punishment_amount": 0, "responseWindow": 1.5, "exp_stage": "adaptive_procedure", "stimResponseInterval": 0.6596874000831645, "trial_time": 3.5209500789642334}
{"stimulusDuration": 1.5, "reward_amount": 1, "FBonset": 0, "stim": {"ori_start": -60, "motion_direction": "in", "speed_end": 0.18, "oriDirection": -1, "oriBase": -60, "motionDirection": "in", "speedDirection": 1, "speedStrength": "medium", "speed_start": 0.12, "oriStrength": "medium", "ori_end": -69.07562924176811}, "ITI": 0.8568567255999717, "rt": 0.4100158214569092, "decision_var": 9.075629241768109, "FBDuration": 1, "trial_count": 40, "ts": "orientation", "response": "left", "onset": 233.6008373774045, "quest_estimate": 9.097275986295976, "FB": 1, "displayFB": true, "punishment_amount": 0, "responseWindow": 1.5, "exp_stage": "adaptive_procedure", "stimResponseInterval": 1.18309225426359, "trial_time": 4.135477066040039}
{"stimulusDuration": 1.5, "reward_amount": 1, "FBonset": 0, "stim": {"ori_start": -60, "motion_direction": "out", "speed_end": 0.06, "oriDirection": 1, "oriBase": -60, "motionDirection": "out", "speedDirection": -1, "speedStrength": "medium", "speed_start": 0.12, "oriStrength": "medium", "ori_end": -50.93635296965326}, "ITI": 1.0790487595633107, "rt": 0.43461179733276367, "decision_var": 9.063647030346747, "FBDuration": 1, "trial_count": 41, "ts": "orientation", "response": "right", "onset": 239.64078635726807, "quest_estimate": 9.08589354191098, "FB": 1, "displayFB": true, "punishment_amount": 0, "responseWindow": 1.5, "exp_stage": "adaptive_procedure", "stimResponseInterval": 1.0850985565912152, "trial_time": 4.0536510944366455}
{"stimulusDuration": 1.5, "reward_amount": 1, "FBonset": 0, "stim": {"ori_start": 30, "motion_direction": "out", "speed_end": 0.06, "oriDirection": -1, "oriBase": 30, "motionDirection": "out", "speedDirection": -1, "speedStrength": "medium", "speed_start": 0.12, "oriStrength": "medium", "ori_end": 20.944636818539223}, "ITI": 0.8579527752458436, "rt": 0.361328125, "decision_var": 9.055363181460777, "FBDuration": 1, "trial_count": 42, "ts": "orientation", "response": "left", "onset": 245.8049336734226, "quest_estimate": 9.075898800692915, "FB": 1, "displayFB": true, "punishment_amount": 0, "responseWindow": 1.5, "exp_stage": "adaptive_procedure", "stimResponseInterval": 0.541161460385492, "trial_time": 3.436012029647827}
{"stimulusDuration": 1.5, "reward_amount": 1, "FBonset": 0, "stim": {"ori_start": -60, "motion_direction": "in", "speed_end": 0.06, "oriDirection": 1, "oriBase": -60, "motionDirection": "in", "speedDirection": -1, "speedStrength": "medium", "speed_start": 0.12, "oriStrength": "medium", "ori_end": -50.95167765575789}, "ITI": 0.507791645530465, "rt": 0.3275411128997803, "decision_var": 9.04832234424211, "FBDuration": 1, "trial_count": 43, "ts": "orientation", "response": "right", "onset": 251.20404790905394, "quest_estimate": 9.067044211375375, "FB": 1, "displayFB": true, "punishment_amount": 0, "responseWindow": 1.5, "exp_stage": "adaptive_procedure", "stimResponseInterval": 0.7517670508432674, "trial_time": 3.6119930744171143}
{"stimulusDuration": 1.5, "reward_amount": 1, "FBonset": 0, "stim": {"ori_start": -60, "motion_direction": "in", "speed_end": 0.06, "oriDirection": 1, "oriBase": -60, "motionDirection": "in", "speedDirection": -1, "speedStrength": "medium", "speed_start": 0.12, "oriStrength": "medium", "ori_end": -50.958115632095925}, "ITI": 1.0616693398141006, "rt": 0.28147292137145996, "decision_var": 9.041884367904071, "FBDuration": 1, "trial_count": 44, "ts": "orientation", "response": "right", "onset": 256.4636066054277, "quest_estimate": 9.059125466880943, "FB": 1, "displayFB": true, "punishment_amount": 0, "responseWindow": 1.5, "exp_stage": "adaptive_procedure", "stimResponseInterval": 0.8709175849116861, "trial_time": 3.690523147583008}
{"stimulusDuration": 1.5, "reward_amount": 1, "FBonset": 0, "stim": {"ori_start": -60, "motion_direction": "in", "speed_end": 0.18, "oriDirection": -1, "oriBase": -60, "motionDirection": "in", "speedDirection": 1, "speedStrength": "medium", "speed_start": 0.12, "oriStrength": "medium", "ori_end": -69.03583526749448}, "ITI": 0.6248447838324824, "rt": 0.2835400104522705, "decision_var": 9.03583526749448, "FBDuration": 1, "trial_count": 45, "ts": "orientation", "response": "left", "onset": 262.3961935301535, "quest_estimate": 9.051977658913803, "FB": 1, "displayFB": true, "punishment_amount": 0, "responseWindow": 1.5, "exp_stage": "adaptive_procedure", "stimResponseInterval": 1.2622122091878771, "trial_time": 4.083431005477905}
{"stimulusDuration": 1.5, "reward_amount": 1, "FBonset": 0, "stim": {"ori_start": -60, "motion_direction": "out", "speed_end": 0.18, "oriDirection": 1, "oriBase": -60, "motionDirection": "out", "speedDirection": 1, "speedStrength": "medium", "speed_start": 0.12, "oriStrength": "medium", "ori_end": -50.97000460834323}, "ITI": 0.7188393596409117, "rt": 0.26441192626953125, "decision_var": 9.029995391656765, "FBDuration": 1, "trial_count": 46, "ts": "orientation", "response": "right", "onset": 268.2832505231738, "quest_estimate": 9.045742121994703, "FB": 1, "displayFB": true, "punishment_amount": 0, "responseWindow": 1.5, "exp_stage": "adaptive_procedure", "stimResponseInterval": 0.9439040122831224, "trial_time": 3.742655038833618}
{"stimulusDuration": 1.5, "reward_amount": 1, "FBonset": 0, "stim": {"ori_start": 30, "motion_direction": "out", "speed_end": 0.18, "oriDirection": -1, "oriBase": 30, "motionDirection": "out", "speedDirection": 1, "speedStrength": "medium", "speed_start": 0.12, "oriStrength": "medium", "ori_end": 20.975625941260226}, "ITI": 0.702217655982941, "rt": 0.3216590881347656, "decision_var": 9.024374058739774, "FBDuration": 1, "trial_count": 47, "ts": "orientation", "response": "left", "onset": 273.94599389509784, "quest_estimate": 9.039788056303056, "FB": 1, "displayFB": true, "punishment_amount": 0, "responseWindow": 1.5, "exp_stage": "adaptive_procedure", "stimResponseInterval": 0.6971978749669654, "trial_time": 3.5536060333251953}
{"stimulusDuration": 1.5, "reward_amount": 1, "FBonset": 0, "stim": {"ori_start": -60, "motion_direction": "in", "speed_end": 0.06, "oriDirection": -1, "oriBase": -60, "motionDirection": "in", "speedDirection": -1, "speedStrength": "medium", "speed_start": 0.12, "oriStrength": "medium", "ori_end": -69.01847921975593}, "ITI": 0.8137540318043537, "rt": 0.29357099533081055, "decision_var": 9.018479219755939, "FBDuration": 1, "trial_count": 48, "ts": "orientation", "response": "left", "onset": 279.34540942604775, "quest_estimate": 9.034086209871386, "FB": 1, "displayFB": true, "punishment_amount": 0, "responseWindow": 1.5, "exp_stage": "adaptive_procedure", "stimResponseInterval": 0.9515246927942078, "trial_time": 3.777420997619629}
{"stimulusDuration": 1.5, "reward_amount": 1, "FBonset": 0, "stim": {"ori_start": 30, "motion_direction": "in", "speed_end": 0.06, "oriDirection": 1, "oriBase": 30, "motionDirection": "in", "speedDirection": -1, "speedStrength": "medium", "speed_start": 0.12, "oriStrength": "medium", "ori_end": 39.01217795890091}, "ITI": 0.6595455642054113, "rt": 0.47557902336120605, "decision_var": 9.01217795890091, "FBDuration": 1, "trial_count": 49, "ts": "orientation", "response": "right", "onset": 285.1106881506463, "quest_estimate": 9.028611166304778, "FB": 1, "displayFB": true, "punishment_amount": 0, "responseWindow": 1.5, "exp_stage": "adaptive_procedure", "stimResponseInterval": 0.8896378150655244, "trial_time": 3.896886110305786}
{"stimulusDuration": 1.5, "reward_amount": 1, "FBonset": 0, "stim": {"ori_start": -60, "motion_direction": "out", "speed_end": 0.06, "oriDirection": 1, "oriBase": -60, "motionDirection": "out", "speedDirection": -1, "speedStrength": "medium", "speed_start": 0.12, "oriStrength": "medium", "ori_end": -50.99467602145531}, "ITI": 0.5814435313759807, "rt": 0.3155651092529297, "decision_var": 9.005323978544688, "FBDuration": 1, "trial_count": 50, "ts": "orientation", "response": "right", "onset": 290.6598715299172, "quest_estimate": 9.023340626542439, "FB": 1, "displayFB": true, "punishment_amount": 0, "responseWindow": 1.5, "exp_stage": "adaptive_procedure", "stimResponseInterval": 1.0051409135624592, "trial_time": 3.8526649475097656}
{"stimulusDuration": 1.5, "reward_amount": 1, "FBonset": 0, "stim": {"ori_start": 30, "motion_direction": "in", "speed_end": 0.06, "oriDirection": -1, "oriBase": 30, "motionDirection": "in", "speedDirection": -1, "speedStrength": "medium", "speed_start": 0.12, "oriStrength": "medium", "ori_end": 21.0014782027922}, "ITI": 1.12996743051015, "rt": 0.471513032913208, "decision_var": 8.9985217972078, "FBDuration": 1, "trial_count": 51, "ts": "orientation", "response": "left", "onset": 296.2464559748557, "quest_estimate": 9.018254805671376, "FB": 1, "displayFB": true, "punishment_amount": 0, "responseWindow": 1.5, "exp_stage": "adaptive_procedure", "stimResponseInterval": 0.5211847205770292, "trial_time": 3.5344600677490234}
{"stimulusDuration": 1.5, "reward_amount": 1, "FBonset": 0, "stim": {"ori_start": -60, "motion_direction": "out", "speed_end": 0.06, "oriDirection": -1, "oriBase": -60, "motionDirection": "out", "speedDirection": -1, "speedStrength": "medium", "speed_start": 0.12, "oriStrength": "medium", "ori_end": -68.99370224458126}, "ITI": 0.5573678776184494, "rt": 0.27062010765075684, "decision_var": 8.993702244581257, "FBDuration": 1, "trial_count": 52, "ts": "orientation", "response": "left", "onset": 301.89760812594284, "quest_estimate": 9.013335961669913, "FB": 1, "displayFB": true, "punishment_amount": 0, "responseWindow": 1.5, "exp_stage": "adaptive_procedure", "stimResponseInterval": 1.0632898878263966, "trial_time": 3.873056173324585}
{"stimulusDuration": 1.5, "reward_amount": 1, "FBonset": 0, "stim": {"ori_start": 30, "motion_direction": "in", "speed_end": 0.06, "oriDirection": -1, "oriBase": 30, "motionDirection": "in", "speedDirection": -1, "speedStrength": "medium", "speed_start": 0.12, "oriStrength": "medium", "ori_end": 21.010659481144934}, "ITI": 1.3915674314122315, "rt": 0.2694840431213379, "decision_var": 8.989340518855066, "FBDuration": 1, "trial_count": 53, "ts": "orientation", "response": "left", "onset": 307.51826589138767, "quest_estimate": 9.008568054514349, "FB": 1, "displayFB": true, "punishment_amount": 0, "responseWindow": 1.5, "exp_stage": "adaptive_procedure", "stimResponseInterval": 0.8521901940322463, "trial_time": 3.654265880584717}
{"stimulusDuration": 1.5, "reward_amount": 1, "FBonset": 0, "stim": {"ori_start": -60, "motion_direction": "in", "speed_end": 0.18, "oriDirection": 1, "oriBase": -60, "motionDirection": "in", "speedDirection": 1, "speedStrength": "medium", "speed_start": 0.12, "oriStrength": "medium", "ori_end": -51.01466726383767}, "ITI": 1.1086143184798476, "rt": 0.30414390563964844, "decision_var": 8.985332736162327, "FBDuration": 1, "trial_count": 54, "ts": "orientation", "response": "right", "onset": 313.76202351683213, "quest_estimate": 9.003936520018947, "FB": 1, "displayFB": true, "punishment_amount": 0, "responseWindow": 1.5, "exp_stage": "adaptive_procedure", "stimResponseInterval": 1.002607024410115, "trial_time": 3.844182014465332}
{"stimulusDuration": 1.5, "reward_amount": 1, "FBonset": 0, "stim": {"ori_start": -60, "motion_direction": "in", "speed_end": 0.18, "oriDirection": -1, "oriBase": -60, "motionDirection": "in", "speedDirection": 1, "speedStrength": "medium", "speed_start": 0.12, "oriStrength": "medium", "ori_end": -68.981589221165}, "ITI": 0.9007674373601544, "rt": 0.2424628734588623, "decision_var": 8.981589221164992, "FBDuration": 1, "trial_count": 55, "ts": "orientation", "response": "left", "onset": 319.8732448597221, "quest_estimate": 8.999428133494014, "FB": 1, "displayFB": true, "punishment_amount": 0, "responseWindow": 1.5, "exp_stage": "adaptive_procedure", "stimResponseInterval": 1.116604357391415, "trial_time": 3.900038957595825}
{"stimulusDuration": 1.5, "reward_amount": 1, "FBonset": 0, "stim": {"ori_start": 30, "motion_direction": "out", "speed_end": 0.18, "oriDirection": 1, "oriBase": 30, "motionDirection": "out", "speedDirection": 1, "speedStrength": "medium", "speed_start": 0.12, "oriStrength": "medium", "ori_end": 38.97803094450669}, "ITI": 1.246802792242291, "rt": 0.3080627918243408, "decision_var": 8.978030944506692, "FBDuration": 1, "trial_count": 56, "ts": "orientation", "response": "left", "onset": 325.89061665447366, "quest_estimate": 9.014746889683135, "FB": 0, "displayFB": true, "punishment_amount": 0, "responseWindow": 1.5, "exp_stage": "adaptive_procedure", "stimResponseInterval": 1.4082165247116556, "trial_time": 4.25481104850769}
{"stimulusDuration": 1.5, "reward_amount": 1, "FBonset": 0, "stim": {"ori_start": 30, "motion_direction": "in", "speed_end": 0.18, "oriDirection": 1, "oriBase": 30, "motionDirection": "in", "speedDirection": 1, "speedStrength": "medium", "speed_start": 0.12, "oriStrength": "medium", "ori_end": 38.98981772399197}, "ITI": 0.5509244751596545, "rt": 0.27508091926574707, "decision_var": 8.989817723991969, "FBDuration": 1, "trial_count": 57, "ts": "orientation", "response": "right", "onset": 332.5456359714276, "quest_estimate": 9.01051531708422, "FB": 1, "displayFB": true, "punishment_amount": 0, "responseWindow": 1.5, "exp_stage": "adaptive_procedure", "stimResponseInterval": 1.211551038238754, "trial_time": 4.017711877822876}
{"stimulusDuration": 1.5, "reward_amount": 1, "FBonset": 0, "stim": {"ori_start": 30, "motion_direction": "in", "speed_end": 0.18, "oriDirection": 1, "oriBase": 30, "motionDirection": "in", "speedDirection": 1, "speedStrength": "medium", "speed_start": 0.12, "oriStrength": "medium", "ori_end": 38.98620925417535}, "ITI": 0.9197322991431176, "rt": 0.3527209758758545, "decision_var": 8.98620925417535, "FBDuration": 1, "trial_count": 58, "ts": "orientation", "response": "right", "onset": 338.308111484826, "quest_estimate": 9.006413635391226, "FB": 1, "displayFB": true, "punishment_amount": 0, "responseWindow": 1.5, "exp_stage": "adaptive_procedure", "stimResponseInterval": 0.5468792236119846, "trial_time": 3.434022903442383}
{"stimulusDuration": 1.5, "reward_amount": 1, "FBonset": 0, "stim": {"ori_start": 30, "motion_direction": "out", "speed_end": 0.18, "oriDirection": -1, "oriBase": 30, "motionDirection": "out", "speedDirection": 1, "speedStrength": "medium", "speed_start": 0.12, "oriStrength": "medium", "ori_end": 21.017136474931263}, "ITI": 1.1643172699249407, "rt": 0.28925299644470215, "decision_var": 8.982863525068737, "FBDuration": 1, "trial_count": 59, "ts": "orientation", "response": "left", "onset": 343.7747230075811, "quest_estimate": 9.002431150252434, "FB": 1, "displayFB": true, "punishment_amount": 0, "responseWindow": 1.5, "exp_stage": "adaptive_procedure", "stimResponseInterval": 0.9478536165555678, "trial_time": 3.76819109916687}
{"stimulusDuration": 1.5, "reward_amount": 1, "FBonset": 0, "stim": {"ori_start": 30, "motion_direction": "out", "speed_end": 0.06, "oriDirection": -1, "oriBase": 30, "motionDirection": "out", "speedDirection": -1, "speedStrength": "medium", "speed_start": 0.12, "oriStrength": "medium", "ori_end": 21.02028688872689}, "ITI": 0.7771855572833857, "rt": 0.2326030731201172, "decision_var": 8.97971311127311, "FBDuration": 1, "trial_count": 60, "ts": "orientation", "response": "left", "onset": 349.8868938940616, "quest_estimate": 8.99855821417259, "FB": 1, "displayFB": true, "punishment_amount": 0, "responseWindow": 1.5, "exp_stage": "adaptive_procedure", "stimResponseInterval": 1.269882574941464, "trial_time": 4.03633189201355}
{"stimulusDuration": 1.5, "reward_amount": 1, "FBonset": 0, "stim": {"ori_start": -60, "motion_direction": "in", "speed_end": 0.18, "oriDirection": 1, "oriBase": -60, "motionDirection": "in", "speedDirection": 1, "speedStrength": "medium", "speed_start": 0.12, "oriStrength": "medium", "ori_end": -51.0233021724485}, "ITI": 0.9497945534373624, "rt": 0.3034830093383789, "decision_var": 8.976697827551497, "FBDuration": 1, "trial_count": 61, "ts": "orientation", "response": "right", "onset": 355.93396202628645, "quest_estimate": 8.994786299247263, "FB": 1, "displayFB": true, "punishment_amount": 0, "responseWindow": 1.5, "exp_stage": "adaptive_procedure", "stimResponseInterval": 0.8620162554662585, "trial_time": 3.6999659538269043}
{"stimulusDuration": 1.5, "reward_amount": 1, "FBonset": 0, "stim": {"ori_start": -60, "motion_direction": "out", "speed_end": 0.06, "oriDirection": -1, "oriBase": -60, "motionDirection": "out", "speedDirection": -1, "speedStrength": "medium", "speed_start": 0.12, "oriStrength": "medium", "ori_end": -68.97376279751361}, "ITI": 1.4178026565700874, "rt": 0.3043842315673828, "decision_var": 8.973762797513622, "FBDuration": 1, "trial_count": 62, "ts": "orientation", "response": "left", "onset": 361.74577283519005, "quest_estimate": 8.991108068726085, "FB": 1, "displayFB": true, "punishment_amount": 0, "responseWindow": 1.5, "exp_stage": "adaptive_procedure", "stimResponseInterval": 0.7596551229087507, "trial_time": 3.601207971572876}
{"stimulusDuration": 1.5, "reward_amount": 1, "FBonset": 0, "stim": {"ori_start": 30, "motion_direction": "in", "speed_end": 0.18, "oriDirection": -1, "oriBase": 30, "motionDirection": "in", "speedDirection": 1, "speedStrength": "medium", "speed_start": 0.12, "oriStrength": "medium", "ori_end": 21.02914317627129}, "ITI": 1.3604252630445108, "rt": 0.4950218200683594, "decision_var": 8.97085682372871, "FBDuration": 1, "trial_count": 63, "ts": "orientation", "response": "left", "onset": 367.9232306146689, "quest_estimate": 8.987517424740375, "FB": 1, "displayFB": true, "punishment_amount": 0, "responseWindow": 1.5, "exp_stage": "adaptive_procedure", "stimResponseInterval": 1.4740882679443685, "trial_time": 4.510783910751343}
{"stimulusDuration": 1.5, "reward_amount": 1, "FBonset": 0, "stim": {"ori_start": -60, "motion_direction": "in", "speed_end": 0.06, "oriDirection": -1, "oriBase": -60, "motionDirection": "in", "speedDirection": -1, "speedStrength": "medium", "speed_start": 0.12, "oriStrength": "medium", "ori_end": -68.96793097691372}, "ITI": 1.1591002528490846, "rt": 0.26754307746887207, "decision_var": 8.967930976913724, "FBDuration": 1, "trial_count": 64, "ts": "orientation", "response": "left", "onset": 374.7577441456578, "quest_estimate": 8.984074240725757, "FB": 1, "displayFB": true, "punishment_amount": 0, "responseWindow": 1.5, "exp_stage": "adaptive_procedure", "stimResponseInterval": 0.9880414478153141, "trial_time": 3.7932820320129395}
