{"stimulusDuration": 1.5, "reward_amount": 1, "FBonset": 0, "stim": {"ori_start": -60, "motion_direction": "in", "speed_end": 0.10762873426672631, "oriDirection": 1, "oriBase": -60, "motionDirection": "in", "speedDirection": -1, "speedStrength": "medium", "speed_start": 0.12, "oriStrength": "medium", "ori_end": -51.03499772612767}, "ITI": 1.1195064068178506, "rt": 0.43863606452941895, "decision_var": 8.965002273872326, "FBDuration": 1, "trial_count": 1, "ts": "orientation", "response": "right", "onset": 2, "quest_estimate": 8.980638640720592, "FB": 1, "displayFB": true, "punishment_amount": 0, "responseWindow": 1.5, "exp_stage": "adaptive_procedure", "stimResponseInterval": 0.5006446095149899, "trial_time": 3.4769771099090576}
{"stimulusDuration": 1.5, "reward_amount": 1, "FBonset": 0, "stim": {"ori_start": -60, "motion_direction": "out", "speed_end": 0.13342453149475964, "oriDirection": 1, "oriBase": -60, "motionDirection": "out", "speedDirection": 1, "speedStrength": "medium", "speed_start": 0.12, "oriStrength": "medium", "ori_end": -51.03810142027983}, "ITI": 1.3107917555995412, "rt": 0.5921788215637207, "decision_var": 8.961898579720167, "FBDuration": 1, "trial_count": 2, "ts": "orientation", "response": "right", "onset": 7.620151016332841, "quest_estimate": 8.977210557451706, "FB": 1, "displayFB": true, "punishment_amount": 0, "responseWindow": 1.5, "exp_stage": "adaptive_procedure", "stimResponseInterval": 1.3970693665937828, "trial_time": 4.522390842437744}
{"stimulusDuration": 1.5, "reward_amount": 1, "FBonset": 0, "stim": {"ori_start": 30, "motion_direction": "out", "speed_end": 0.10657546850524037, "oriDirection": -1, "oriBase": 30, "motionDirection": "out", "speedDirection": -1, "speedStrength": "medium", "speed_start": 0.12, "oriStrength": "medium", "ori_end": 21.04143081373875}, "ITI": 0.8960456055438015, "rt": 0.321897029876709, "decision_var": 8.95856918626125, "FBDuration": 1, "trial_count": 3, "ts": "orientation", "response": "left", "onset": 14.328012138526166, "quest_estimate": 8.973790045931384, "FB": 1, "displayFB": true, "punishment_amount": 0, "responseWindow": 1.5, "exp_stage": "adaptive_procedure", "stimResponseInterval": 0.6344922182409531, "trial_time": 3.495029926300049}
{"stimulusDuration": 1.5, "reward_amount": 1, "FBonset": 0, "stim": {"ori_start": 30, "motion_direction": "in", "speed_end": 0.13237126573327368, "oriDirection": 1, "oriBase": 30, "motionDirection": "in", "speedDirection": 1, "speedStrength": "medium", "speed_start": 0.12, "oriStrength": "medium", "ori_end": 38.95495777096292}, "ITI": 1.0814942806537837, "rt": 0.32559800148010254, "decision_var": 8.954957770962917, "FBDuration": 1, "trial_count": 4, "ts": "orientation", "response": "right", "onset": 19.85854996231092, "quest_estimate": 8.970376983580085, "FB": 1, "displayFB": true, "punishment_amount": 0, "responseWindow": 1.5, "exp_stage": "adaptive_procedure", "stimResponseInterval": 1.3633690481754552, "trial_time": 4.231729030609131}
{"stimulusDuration": 1.5, "reward_amount": 1, "FBonset": 0, "stim": {"ori_start": 30, "motion_direction": "in", "speed_end": 0.10762873426672631, "oriDirection": -1, "oriBase": 30, "motionDirection": "in", "speedDirection": -1, "speedStrength": "medium", "speed_start": 0.12, "oriStrength": "medium", "ori_end": 21.0489991281126}, "ITI": 1.0266116559216019, "rt": 0.3403639793395996, "decision_var": 8.951000871887398, "FBDuration": 1, "trial_count": 5, "ts": "orientation", "response": "left", "onset": 26.30341329114016, "quest_estimate": 8.966970731553864, "FB": 1, "displayFB": true, "punishment_amount": 0, "responseWindow": 1.5, "exp_stage": "adaptive_procedure", "stimResponseInterval": 1.4634239916230616, "trial_time": 4.331894874572754}
{"stimulusDuration": 1.5, "reward_amount": 1, "FBonset": 0, "stim": {"ori_start": -60, "motion_direction": "in", "speed_end": 0.10762873426672631, "oriDirection": -1, "oriBase": -60, "motionDirection": "in", "speedDirection": -1, "speedStrength": "medium", "speed_start": 0.12, "oriStrength": "medium", "ori_end": -68.94662607350307}, "ITI": 0.859246806029804, "rt": 0.41174888610839844, "decision_var": 8.946626073503076, "FBDuration": 1, "trial_count": 6, "ts": "orientation", "response": "left", "onset": 32.793448938684826, "quest_estimate": 8.963569775814253, "FB": 1, "displayFB": true, "punishment_amount": 0, "responseWindow": 1.5, "exp_stage": "adaptive_procedure", "stimResponseInterval": 0.6285453489483337, "trial_time": 3.5743398666381836}
{"stimulusDuration": 1.5, "reward_amount": 1, "FBonset": 0, "stim": {"ori_start": -60, "motion_direction": "out", "speed_end": 0.10657546850524037, "oriDirection": -1, "oriBase": -60, "motionDirection": "out", "speedDirection": -1, "speedStrength": "medium", "speed_start": 0.12, "oriStrength": "medium", "ori_end": -68.94174982054645}, "ITI": 1.1713541461618209, "rt": 0.3493778705596924, "decision_var": 8.941749820546445, "FBDuration": 1, "trial_count": 7, "ts": "orientation", "response": "left", "onset": 38.28124109366296, "quest_estimate": 8.960171367706689, "FB": 1, "displayFB": true, "punishment_amount": 0, "responseWindow": 1.5, "exp_stage": "adaptive_procedure", "stimResponseInterval": 1.283623914745438, "trial_time": 4.161224842071533}
{"stimulusDuration": 1.5, "reward_amount": 1, "FBonset": 0, "stim": {"ori_start": -60, "motion_direction": "out", "speed_end": 0.10657546850524037, "oriDirection": -1, "oriBase": -60, "motionDirection": "out", "speedDirection": -1, "speedStrength": "medium", "speed_start": 0.12, "oriStrength": "medium", "ori_end": -68.9366472142507}, "ITI": 1.1985349945298536, "rt": 0.24772000312805176, "decision_var": 8.936647214250698, "FBDuration": 1, "trial_count": 8, "ts": "orientation", "response": "left", "onset": 44.73621915457022, "quest_estimate": 8.956771183154999, "FB": 1, "displayFB": true, "punishment_amount": 0, "responseWindow": 1.5, "exp_stage": "adaptive_procedure", "stimResponseInterval": 0.7982062933794465, "trial_time": 3.583041191101074}
{"stimulusDuration": 1.5, "reward_amount": 1, "FBonset": 0, "stim": {"ori_start": -60, "motion_direction": "out", "speed_end": 0.13342453149475964, "oriDirection": -1, "oriBase": -60, "motionDirection": "out", "speedDirection": 1, "speedStrength": "medium", "speed_start": 0.12, "oriStrength": "medium", "ori_end": -68.93289380588809}, "ITI": 0.8949605545128425, "rt": 0.3815898895263672, "decision_var": 8.932893805888085, "FBDuration": 1, "trial_count": 9, "ts": "orientation", "response": "left", "onset": 50.73296044247952, "quest_estimate": 8.953363017219388, "FB": 1, "displayFB": true, "punishment_amount": 0, "responseWindow": 1.5, "exp_stage": "adaptive_procedure", "stimResponseInterval": 0.8607187791728057, "trial_time": 3.781036138534546}
{"stimulusDuration": 1.5, "reward_amount": 1, "FBonset": 0, "stim": {"ori_start": -60, "motion_direction": "in", "speed_end": 0.13237126573327368, "oriDirection": 1, "oriBase": -60, "motionDirection": "in", "speedDirection": 1, "speedStrength": "medium", "speed_start": 0.12, "oriStrength": "medium", "ori_end": -51.07051497000075}, "ITI": 1.2087842070680264, "rt": 0.40022993087768555, "decision_var": 8.929485029999249, "FBDuration": 1, "trial_count": 10, "ts": "orientation", "response": "right", "onset": 56.48863977616517, "quest_estimate": 8.949938527128513, "FB": 1, "displayFB": true, "punishment_amount": 0, "responseWindow": 1.5, "exp_stage": "adaptive_procedure", "stimResponseInterval": 0.8991123568207642, "trial_time": 3.8305890560150146}
{"stimulusDuration": 1.5, "reward_amount": 1, "FBonset": 0, "stim": {"ori_start": 30, "motion_direction": "in", "speed_end": 0.13237126573327368, "oriDirection": 1, "oriBase": 30, "motionDirection": "in", "speedDirection": 1, "speedStrength": "medium", "speed_start": 0.12, "oriStrength": "medium", "ori_end": 38.926360604340914}, "ITI": 1.1031199142201724, "rt": 0.3266761302947998, "decision_var": 8.92636060434091, "FBDuration": 1, "trial_count": 11, "ts": "orientation", "response": "right", "onset": 62.59653634005396, "quest_estimate": 8.946487032558181, "FB": 1, "displayFB": true, "punishment_amount": 0, "responseWindow": 1.5, "exp_stage": "adaptive_procedure", "stimResponseInterval": 0.997749936581972, "trial_time": 3.862194061279297}
{"stimulusDuration": 1.5, "reward_amount": 1, "FBonset": 0, "stim": {"ori_start": -60, "motion_direction": "out", "speed_end": 0.13342453149475964, "oriDirection": 1, "oriBase": -60, "motionDirection": "out", "speedDirection": 1, "speedStrength": "medium", "speed_start": 0.12, "oriStrength": "medium", "ori_end": -51.076533366956376}, "ITI": 0.7653684696892569, "rt": 0.33188295364379883, "decision_var": 8.923466633043624, "FBDuration": 1, "trial_count": 12, "ts": "orientation", "response": "right", "onset": 68.6974061908561, "quest_estimate": 8.942995377517022, "FB": 1, "displayFB": true, "punishment_amount": 0, "responseWindow": 1.5, "exp_stage": "adaptive_procedure", "stimResponseInterval": 1.4224879763877927, "trial_time": 4.289882183074951}
{"stimulusDuration": 1.5, "reward_amount": 1, "FBonset": 0, "stim": {"ori_start": -60, "motion_direction": "in", "speed_end": 0.13237126573327368, "oriDirection": 1, "oriBase": -60, "motionDirection": "in", "speedDirection": 1, "speedStrength": "medium", "speed_start": 0.12, "oriStrength": "medium", "ori_end": -51.079245763137656}, "ITI": 0.7354697619191892, "rt": 0.4444100856781006, "decision_var": 8.920754236862344, "FBDuration": 1, "trial_count": 13, "ts": "orientation", "response": "right", "onset": 74.88526263693315, "quest_estimate": 8.939447854281067, "FB": 1, "displayFB": true, "punishment_amount": 0, "responseWindow": 1.5, "exp_stage": "adaptive_procedure", "stimResponseInterval": 0.6729187140932549, "trial_time": 3.6479110717773438}
{"stimulusDuration": 1.5, "reward_amount": 1, "FBonset": 0, "stim": {"ori_start": 30, "motion_direction": "in", "speed_end": 0.13237126573327368, "oriDirection": -1, "oriBase": 30, "motionDirection": "in", "speedDirection": 1, "speedStrength": "medium", "speed_start": 0.12, "oriStrength": "medium", "ori_end": 21.08182164644792}, "ITI": 1.2781788667072251, "rt": 0.376309871673584, "decision_var": 8.91817835355208, "FBDuration": 1, "trial_count": 14, "ts": "orientation", "response": "left", "onset": 80.2936511129456, "quest_estimate": 8.93582618682202, "FB": 1, "displayFB": true, "punishment_amount": 0, "responseWindow": 1.5, "exp_stage": "adaptive_procedure", "stimResponseInterval": 1.203851729729998, "trial_time": 4.115309000015259}
{"stimulusDuration": 1.5, "reward_amount": 1, "FBonset": 0, "stim": {"ori_start": 30, "motion_direction": "out", "speed_end": 0.10657546850524037, "oriDirection": 1, "oriBase": 30, "motionDirection": "out", "speedDirection": -1, "speedStrength": "medium", "speed_start": 0.12, "oriStrength": "medium", "ori_end": 38.915696663442226}, "ITI": 0.9696954826450721, "rt": 0.33290982246398926, "decision_var": 8.915696663442226, "FBDuration": 1, "trial_count": 15, "ts": "orientation", "response": "right", "onset": 86.77568170938282, "quest_estimate": 8.932109569335747, "FB": 1, "displayFB": true, "punishment_amount": 0, "responseWindow": 1.5, "exp_stage": "adaptive_procedure", "stimResponseInterval": 0.7457806152568289, "trial_time": 3.612652063369751}
{"stimulusDuration": 1.5, "reward_amount": 1, "FBonset": 0, "stim": {"ori_start": 30, "motion_direction": "out", "speed_end": 0.13342453149475964, "oriDirection": 1, "oriBase": 30, "motionDirection": "out", "speedDirection": 1, "speedStrength": "medium", "speed_start": 0.12, "oriStrength": "medium", "ori_end": 38.91326860121221}, "ITI": 1.320075360404267, "rt": 0.3599278926849365, "decision_var": 8.913268601212213, "FBDuration": 1, "trial_count": 16, "ts": "orientation", "response": "right", "onset": 92.49115780728472, "quest_estimate": 8.928274754840597, "FB": 1, "displayFB": true, "punishment_amount": 0, "responseWindow": 1.5, "exp_stage": "adaptive_procedure", "stimResponseInterval": 1.2939612890040153, "trial_time": 4.187669992446899}
{"stimulusDuration": 1.5, "reward_amount": 1, "FBonset": 0, "stim": {"ori_start": 30, "motion_direction": "in", "speed_end": 0.10762873426672631, "oriDirection": -1, "oriBase": 30, "motionDirection": "in", "speedDirection": -1, "speedStrength": "medium", "speed_start": 0.12, "oriStrength": "medium", "ori_end": 21.08914558109665}, "ITI": 1.05885872379341, "rt": 0.43612098693847656, "decision_var": 8.910854418903352, "FBDuration": 1, "trial_count": 17, "ts": "orientation", "response": "left", "onset": 99.105194456693, "quest_estimate": 8.924296189244938, "FB": 1, "displayFB": true, "punishment_amount": 0, "responseWindow": 1.5, "exp_stage": "adaptive_procedure", "stimResponseInterval": 1.0167566441816955, "trial_time": 3.9862568378448486}
{"stimulusDuration": 1.5, "reward_amount": 1, "FBonset": 0, "stim": {"ori_start": -60, "motion_direction": "in", "speed_end": 0.13237126573327368, "oriDirection": -1, "oriBase": -60, "motionDirection": "in", "speedDirection": 1, "speedStrength": "medium", "speed_start": 0.12, "oriStrength": "medium", "ori_end": -68.90841426757851}, "ITI": 1.2557868830516092, "rt": 0.3027191162109375, "decision_var": 8.908414267578507, "FBDuration": 1, "trial_count": 18, "ts": "orientation", "response": "left", "onset": 105.1808098246681, "quest_estimate": 8.920146187519158, "FB": 1, "displayFB": true, "punishment_amount": 0, "responseWindow": 1.5, "exp_stage": "adaptive_procedure", "stimResponseInterval": 1.1451450573920403, "trial_time": 3.987277030944824}
{"stimulusDuration": 1.5, "reward_amount": 1, "FBonset": 0, "stim": {"ori_start": 30, "motion_direction": "out", "speed_end": 0.10657546850524037, "oriDirection": 1, "oriBase": 30, "motionDirection": "out", "speedDirection": -1, "speedStrength": "medium", "speed_start": 0.12, "oriStrength": "medium", "ori_end": 38.90590726591013}, "ITI": 0.7537638355130354, "rt": 0.3108651638031006, "decision_var": 8.90590726591013, "FBDuration": 1, "trial_count": 19, "ts": "orientation", "response": "right", "onset": 111.58174176511176, "quest_estimate": 8.915197236308302, "FB": 1, "displayFB": true, "punishment_amount": 0, "responseWindow": 1.5, "exp_stage": "adaptive_procedure", "stimResponseInterval": 1.2126824067072492, "trial_time": 4.059794187545776}
{"stimulusDuration": 1.5, "reward_amount": 1, "FBonset": 0, "stim": {"ori_start": 30, "motion_direction": "out", "speed_end": 0.10657546850524037, "oriDirection": 1, "oriBase": 30, "motionDirection": "out", "speedDirection": -1, "speedStrength": "medium", "speed_start": 0.12, "oriStrength": "medium", "ori_end": 38.903280243749506}, "ITI": 1.4244893008525223, "rt": 0.28499913215637207, "decision_var": 8.90328024374951, "FBDuration": 1, "trial_count": 20, "ts": "orientation", "response": "right", "onset": 117.54818800733204, "quest_estimate": 8.909597270598148, "FB": 1, "displayFB": true, "punishment_amount": 0, "responseWindow": 1.5, "exp_stage": "adaptive_procedure", "stimResponseInterval": 1.0253132342569093, "trial_time": 3.844774007797241}
{"stimulusDuration": 1.5, "reward_amount": 1, "FBonset": 0, "stim": {"ori_start": 30, "motion_direction": "out", "speed_end": 0.10657546850524037, "oriDirection": -1, "oriBase": 30, "motionDirection": "out", "speedDirection": -1, "speedStrength": "medium", "speed_start": 0.12, "oriStrength": "medium", "ori_end": 21.099580260762785}, "ITI": 0.5809865282105853, "rt": 0.32367801666259766, "decision_var": 8.900419739237215, "FBDuration": 1, "trial_count": 21, "ts": "orientation", "response": "left", "onset": 123.99799054244147, "quest_estimate": 8.903172368820258, "FB": 1, "displayFB": true, "punishment_amount": 0, "responseWindow": 1.5, "exp_stage": "adaptive_procedure", "stimResponseInterval": 1.4533998385870537, "trial_time": 4.310259103775024}
{"stimulusDuration": 1.5, "reward_amount": 1, "FBonset": 0, "stim": {"ori_start": 30, "motion_direction": "in", "speed_end": 0.13237126573327368, "oriDirection": 1, "oriBase": 30, "motionDirection": "in", "speedDirection": 1, "speedStrength": "medium", "speed_start": 0.12, "oriStrength": "medium", "ori_end": 38.89725818596954}, "ITI": 1.4798877212191042, "rt": 0.4074869155883789, "decision_var": 8.897258185969541, "FBDuration": 1, "trial_count": 22, "ts": "orientation", "response": "left", "onset": 130.0323769092391, "quest_estimate": 8.92308113109818, "FB": 0, "displayFB": true, "punishment_amount": 0, "responseWindow": 1.5, "exp_stage": "adaptive_procedure", "stimResponseInterval": 0.5820527814070942, "trial_time": 3.5184569358825684}
{"stimulusDuration": 1.5, "reward_amount": 1, "FBonset": 0, "stim": {"ori_start": -60, "motion_direction": "in", "speed_end": 0.10762873426672631, "oriDirection": -1, "oriBase": -60, "motionDirection": "in", "speedDirection": -1, "speedStrength": "medium", "speed_start": 0.12, "oriStrength": "medium", "ori_end": -68.90517769807096}, "ITI": 0.6930441377161425, "rt": 0.3135859966278076, "decision_var": 8.905177698070954, "FBDuration": 1, "trial_count": 23, "ts": "orientation", "response": "left", "onset": 136.0943174118653, "quest_estimate": 8.919767260615654, "FB": 1, "displayFB": true, "punishment_amount": 0, "responseWindow": 1.5, "exp_stage": "adaptive_procedure", "stimResponseInterval": 1.4103666870361589, "trial_time": 4.256549119949341}
{"stimulusDuration": 1.5, "reward_amount": 1, "FBonset": 0, "stim": {"ori_start": -60, "motion_direction": "out", "speed_end": 0.10657546850524037, "oriDirection": 1, "oriBase": -60, "motionDirection": "out", "speedDirection": -1, "speedStrength": "medium", "speed_start": 0.12, "oriStrength": "medium", "ori_end": -51.09728597748163}, "ITI": 0.7146439340463937, "rt": 0.39121198654174805, "decision_var": 8.90271402251837, "FBDuration": 1, "trial_count": 24, "ts": "orientation", "response": "right", "onset": 142.1977282366176, "quest_estimate": 8.916328626307273, "FB": 1, "displayFB": true, "punishment_amount": 0, "responseWindow": 1.5, "exp_stage": "adaptive_procedure", "stimResponseInterval": 0.7476847136032414, "trial_time": 3.6646041870117188}
{"stimulusDuration": 1.5, "reward_amount": 1, "FBonset": 0, "stim": {"ori_start": 30, "motion_direction": "in", "speed_end": 0.13237126573327368, "oriDirection": -1, "oriBase": 30, "motionDirection": "in", "speedDirection": 1, "speedStrength": "medium", "speed_start": 0.12, "oriStrength": "medium", "ori_end": 21.09995220865324}, "ITI": 0.9194913252402372, "rt": 0.3286309242248535, "decision_var": 8.900047791346761, "FBDuration": 1, "trial_count": 25, "ts": "orientation", "response": "left", "onset": 147.66005688426722, "quest_estimate": 8.912751066212174, "FB": 1, "displayFB": true, "punishment_amount": 0, "responseWindow": 1.5, "exp_stage": "adaptive_procedure", "stimResponseInterval": 1.3361929064604476, "trial_time": 4.193497180938721}
{"stimulusDuration": 1.5, "reward_amount": 1, "FBonset": 0, "stim": {"ori_start": 30, "motion_direction": "out", "speed_end": 0.13342453149475964, "oriDirection": 1, "oriBase": 30, "motionDirection": "out", "speedDirection": 1, "speedStrength": "medium", "speed_start": 0.12, "oriStrength": "medium", "ori_end": 38.897127481381645}, "ITI": 1.0976822651270464, "rt": 0.32532787322998047, "decision_var": 8.897127481381641, "FBDuration": 1, "trial_count": 26, "ts": "orientation", "response": "right", "onset": 153.9157411159679, "quest_estimate": 8.909018976958418, "FB": 1, "displayFB": true, "punishment_amount": 0, "responseWindow": 1.5, "exp_stage": "adaptive_procedure", "stimResponseInterval": 0.7612904589630907, "trial_time": 3.6241090297698975}
{"stimulusDuration": 1.5, "reward_amount": 1, "FBonset": 0, "stim": {"ori_start": -60, "motion_direction": "out", "speed_end": 0.10657546850524037, "oriDirection": 1, "oriBase": -60, "motionDirection": "out", "speedDirection": -1, "speedStrength": "medium", "speed_start": 0.12, "oriStrength": "medium", "ori_end": -51.106106905115624}, "ITI": 1.2370792655791694, "rt": 0.42440104484558105, "decision_var": 8.89389309488438, "FBDuration": 1, "trial_count": 27, "ts": "orientation", "response": "right", "onset": 159.77471384005804, "quest_estimate": 8.905114876245218, "FB": 1, "displayFB": true, "punishment_amount": 0, "responseWindow": 1.5, "exp_stage": "adaptive_procedure", "stimResponseInterval": 1.0814451975391992, "trial_time": 4.032513856887817}
{"stimulusDuration": 1.5, "reward_amount": 1, "FBonset": 0, "stim": {"ori_start": 30, "motion_direction": "in", "speed_end": 0.13237126573327368, "oriDirection": -1, "oriBase": 30, "motionDirection": "in", "speedDirection": 1, "speedStrength": "medium", "speed_start": 0.12, "oriStrength": "medium", "ori_end": 21.109726076538227}, "ITI": 0.9243702051437268, "rt": 0.34986114501953125, "decision_var": 8.890273923461773, "FBDuration": 1, "trial_count": 28, "ts": "orientation", "response": "left", "onset": 166.0932383031764, "quest_estimate": 8.90101888518307, "FB": 1, "displayFB": true, "punishment_amount": 0, "responseWindow": 1.5, "exp_stage": "adaptive_procedure", "stimResponseInterval": 0.6900502085123481, "trial_time": 3.579416036605835}
{"stimulusDuration": 1.5, "reward_amount": 1, "FBonset": 0, "stim": {"ori_start": 30, "motion_direction": "in", "speed_end": 0.10762873426672631, "oriDirection": 1, "oriBase": 30, "motionDirection": "in", "speedDirection": -1, "speedStrength": "medium", "speed_start": 0.12, "oriStrength": "medium", "ori_end": 38.88618573803312}, "ITI": 1.1623674780280644, "rt": 0.5033609867095947, "decision_var": 8.886185738033117, "FBDuration": 1, "trial_count": 29, "ts": "orientation", "response": "right", "onset": 171.70765871683247, "quest_estimate": 8.896708153658729, "FB": 1, "displayFB": true, "punishment_amount": 0, "responseWindow": 1.5, "exp_stage": "adaptive_procedure", "stimResponseInterval": 0.6647744921667811, "trial_time": 3.7074167728424072}
{"stimulusDuration": 1.5, "reward_amount": 1, "FBonset": 0, "stim": {"ori_start": -60, "motion_direction": "out", "speed_end": 0.13342453149475964, "oriDirection": -1, "oriBase": -60, "motionDirection": "out", "speedDirection": 1, "speedStrength": "medium", "speed_start": 0.12, "oriStrength": "medium", "ori_end": -68.88152723249263}, "ITI": 0.8381464597452744, "rt": 0.42909884452819824, "decision_var": 8.881527232492623, "FBDuration": 1, "trial_count": 30, "ts": "orientation", "response": "left", "onset": 177.5348006870273, "quest_estimate": 8.892156264333057, "FB": 1, "displayFB": true, "punishment_amount": 0, "responseWindow": 1.5, "exp_stage": "adaptive_procedure", "stimResponseInterval": 1.1374145625725296, "trial_time": 4.094106912612915}
{"stimulusDuration": 1.5, "reward_amount": 1, "FBonset": 0, "stim": {"ori_start": 30, "motion_direction": "in", "speed_end": 0.10762873426672631, "oriDirection": 1, "oriBase": 30, "motionDirection": "in", "speedDirection": -1, "speedStrength": "medium", "speed_start": 0.12, "oriStrength": "medium", "ori_end": 38.87617549487831}, "ITI": 0.636597099638933, "rt": 0.38965892791748047, "decision_var": 8.876175494878307, "FBDuration": 1, "trial_count": 31, "ts": "orientation", "response": "right", "onset": 183.51036170934512, "quest_estimate": 8.88733266339143, "FB": 1, "displayFB": true, "punishment_amount": 0, "responseWindow": 1.5, "exp_stage": "adaptive_procedure", "stimResponseInterval": 0.6121298304366531, "trial_time": 3.5348711013793945}
{"stimulusDuration": 1.5, "reward_amount": 1, "FBonset": 0, "stim": {"ori_start": 30, "motion_direction": "in", "speed_end": 0.10762873426672631, "oriDirection": -1, "oriBase": 30, "motionDirection": "in", "speedDirection": -1, "speedStrength": "medium", "speed_start": 0.12, "oriStrength": "medium", "ori_end": 21.128793664372644}, "ITI": 1.2668648390974295, "rt": 0.43149709701538086, "decision_var": 8.871206335627356, "FBDuration": 1, "trial_count": 32, "ts": "orientation", "response": "left", "onset": 188.7590886394207, "quest_estimate": 8.882202177376556, "FB": 1, "displayFB": true, "punishment_amount": 0, "responseWindow": 1.5, "exp_stage": "adaptive_procedure", "stimResponseInterval": 0.526359704565805, "trial_time": 3.4899520874023438}
{"stimulusDuration": 1.5, "reward_amount": 1, "FBonset": 0, "stim": {"ori_start": -60, "motion_direction": "in", "speed_end": 0.13237126573327368, "oriDirection": -1, "oriBase": -60, "motionDirection": "in", "speedDirection": 1, "speedStrength": "medium", "speed_start": 0.12, "oriStrength": "medium", "ori_end": -68.86673983617378}, "ITI": 0.743811562779529, "rt": 0.3057239055633545, "decision_var": 8.866739836173782, "FBDuration": 1, "trial_count": 33, "ts": "orientation", "response": "left", "onset": 194.55231318308392, "quest_estimate": 8.876724683679608, "FB": 1, "displayFB": true, "punishment_amount": 0, "responseWindow": 1.5, "exp_stage": "adaptive_procedure", "stimResponseInterval": 0.8284006939814241, "trial_time": 3.67146897315979}
{"stimulusDuration": 1.5, "reward_amount": 1, "FBonset": 0, "stim": {"ori_start": -60, "motion_direction": "out", "speed_end": 0.10657546850524037, "oriDirection": -1, "oriBase": -60, "motionDirection": "out", "speedDirection": -1, "speedStrength": "medium", "speed_start": 0.12, "oriStrength": "medium", "ori_end": -68.86251777549985}, "ITI": 0.5765514735369008, "rt": 0.49084901809692383, "decision_var": 8.86251777549985, "FBDuration": 1, "trial_count": 34, "ts": "orientation", "response": "right", "onset": 200.1245254398449, "quest_estimate": 8.896096181556697, "FB": 0, "displayFB": true, "punishment_amount": 0, "responseWindow": 1.5, "exp_stage": "adaptive_procedure", "stimResponseInterval": 1.0812931648569402, "trial_time": 4.103182792663574}
{"stimulusDuration": 1.5, "reward_amount": 1, "FBonset": 0, "stim": {"ori_start": 30, "motion_direction": "out", "speed_end": 0.13342453149475964, "oriDirection": -1, "oriBase": 30, "motionDirection": "out", "speedDirection": 1, "speedStrength": "medium", "speed_start": 0.12, "oriStrength": "medium", "ori_end": 21.12332126723795}, "ITI": 1.1898008710438746, "rt": 0.3413360118865967, "decision_var": 8.876678732762048, "FBDuration": 1, "trial_count": 35, "ts": "orientation", "response": "left", "onset": 205.78237007823873, "quest_estimate": 8.89242928705547, "FB": 1, "displayFB": true, "punishment_amount": 0, "responseWindow": 1.5, "exp_stage": "adaptive_procedure", "stimResponseInterval": 0.993680863563347, "trial_time": 3.8719630241394043}
{"stimulusDuration": 1.5, "reward_amount": 1, "FBonset": 0, "stim": {"ori_start": -60, "motion_direction": "in", "speed_end": 0.10762873426672631, "oriDirection": 1, "oriBase": -60, "motionDirection": "in", "speedDirection": -1, "speedStrength": "medium", "speed_start": 0.12, "oriStrength": "medium", "ori_end": -51.12800761412322}, "ITI": 0.6928425349293823, "rt": 0.4287421703338623, "decision_var": 8.871992385876776, "FBDuration": 1, "trial_count": 36, "ts": "orientation", "response": "right", "onset": 211.96585181284595, "quest_estimate": 8.888686969467095, "FB": 1, "displayFB": true, "punishment_amount": 0, "responseWindow": 1.5, "exp_stage": "adaptive_procedure", "stimResponseInterval": 1.4353280248979092, "trial_time": 4.400036096572876}
{"stimulusDuration": 1.5, "reward_amount": 1, "FBonset": 0, "stim": {"ori_start": 30, "motion_direction": "out", "speed_end": 0.13342453149475964, "oriDirection": -1, "oriBase": 30, "motionDirection": "out", "speedDirection": 1, "speedStrength": "medium", "speed_start": 0.12, "oriStrength": "medium", "ori_end": 21.132054453843125}, "ITI": 0.7501032455607763, "rt": 0.32654690742492676, "decision_var": 8.867945546156875, "FBDuration": 1, "trial_count": 37, "ts": "orientation", "response": "left", "onset": 218.09402237267324, "quest_estimate": 8.88487096306147, "FB": 1, "displayFB": true, "punishment_amount": 0, "responseWindow": 1.5, "exp_stage": "adaptive_procedure", "stimResponseInterval": 0.6613123079387453, "trial_time": 3.525254011154175}
{"stimulusDuration": 1.5, "reward_amount": 1, "FBonset": 0, "stim": {"ori_start": 30, "motion_direction": "in", "speed_end": 0.10762873426672631, "oriDirection": -1, "oriBase": 30, "motionDirection": "in", "speedDirection": -1, "speedStrength": "medium", "speed_start": 0.12, "oriStrength": "medium", "ori_end": 21.135824334347014}, "ITI": 1.3739826107165922, "rt": 0.3955519199371338, "decision_var": 8.864175665652986, "FBDuration": 1, "trial_count": 38, "ts": "orientation", "response": "left", "onset": 223.50543792617276, "quest_estimate": 8.880982921179257, "FB": 1, "displayFB": true, "punishment_amount": 0, "responseWindow": 1.5, "exp_stage": "adaptive_procedure", "stimResponseInterval": 1.231955249781623, "trial_time": 4.168937921524048}
{"stimulusDuration": 1.5, "reward_amount": 1, "FBonset": 0, "stim": {"ori_start": 30, "motion_direction": "in", "speed_end": 0.10762873426672631, "oriDirection": 1, "oriBase": 30, "motionDirection": "in", "speedDirection": -1, "speedStrength": "medium", "speed_start": 0.12, "oriStrength": "medium", "ori_end": 38.86062190504575}, "ITI": 1.1826840194045622, "rt": 0.3049139976501465, "decision_var": 8.860621905045743, "FBDuration": 1, "trial_count": 39, "ts": "orientation", "response": "right", "onset": 230.11137578667098, "quest_estimate": 8.877024350572274, "FB": 1, "displayFB": true, "punishment_amount": 0, "responseWindow": 1.5, "exp_stage": "adaptive_procedure", "stimResponseInterval": 0.7225784543115195, "trial_time": 3.560480833053589}
{"stimulusDuration": 1.5, "reward_amount": 1, "FBonset": 0, "stim": {"ori_start": -60, "motion_direction": "in", "speed_end": 0.10762873426672631, "oriDirection": -1, "oriBase": -60, "motionDirection": "in", "speedDirection": -1, "speedStrength": "medium", "speed_start": 0.12, "oriStrength": "medium", "ori_end": -68.85722733553592}, "ITI": 1.0819549451000934, "rt": 0.3766629695892334, "decision_var": 8.857227335535924, "FBDuration": 1, "trial_count": 40, "ts": "orientation", "response": "left", "onset": 236.01663826038705, "quest_estimate": 8.872996588293162, "FB": 1, "displayFB": true, "punishment_amount": 0, "responseWindow": 1.5, "exp_stage": "adaptive_procedure", "stimResponseInterval": 1.0375321944013367, "trial_time": 3.957087993621826}
{"stimulusDuration": 1.5, "reward_amount": 1, "FBonset": 0, "stim": {"ori_start": -60, "motion_direction": "out", "speed_end": 0.10657546850524037, "oriDirection": 1, "oriBase": -60, "motionDirection": "out", "speedDirection": -1, "speedStrength": "medium", "speed_start": 0.12, "oriStrength": "medium", "ori_end": -51.14606230068543}, "ITI": 1.147212404972054, "rt": 0.42694902420043945, "decision_var": 8.853937699314567, "FBDuration": 1, "trial_count": 41, "ts": "orientation", "response": "right", "onset": 242.1361253998885, "quest_estimate": 8.868900816679375, "FB": 1, "displayFB": true, "punishment_amount": 0, "responseWindow": 1.5, "exp_stage": "adaptive_procedure", "stimResponseInterval": 0.7971300450878713, "trial_time": 3.761357069015503}
{"stimulusDuration": 1.5, "reward_amount": 1, "FBonset": 0, "stim": {"ori_start": 30, "motion_direction": "in", "speed_end": 0.10762873426672631, "oriDirection": 1, "oriBase": 30, "motionDirection": "in", "speedDirection": -1, "speedStrength": "medium", "speed_start": 0.12, "oriStrength": "medium", "ori_end": 38.85070023705022}, "ITI": 1.4721136777680033, "rt": 0.45619893074035645, "decision_var": 8.85070023705022, "FBDuration": 1, "trial_count": 42, "ts": "orientation", "response": "right", "onset": 248.08046784994843, "quest_estimate": 8.86473810649455, "FB": 1, "displayFB": true, "punishment_amount": 0, "responseWindow": 1.5, "exp_stage": "adaptive_procedure", "stimResponseInterval": 0.5319422385194799, "trial_time": 3.52886700630188}
{"stimulusDuration": 1.5, "reward_amount": 1, "FBonset": 0, "stim": {"ori_start": -60, "motion_direction": "in", "speed_end": 0.13237126573327368, "oriDirection": -1, "oriBase": -60, "motionDirection": "in", "speedDirection": 1, "speedStrength": "medium", "speed_start": 0.12, "oriStrength": "medium", "ori_end": -68.84746254595794}, "ITI": 0.7126367718864555, "rt": 0.3384568691253662, "decision_var": 8.847462545957935, "FBDuration": 1, "trial_count": 43, "ts": "orientation", "response": "left", "onset": 254.08452376623592, "quest_estimate": 8.860509474208492, "FB": 1, "displayFB": true, "punishment_amount": 0, "responseWindow": 1.5, "exp_stage": "adaptive_procedure", "stimResponseInterval": 1.27019683493971, "trial_time": 4.14375901222229}
{"stimulusDuration": 1.5, "reward_amount": 1, "FBonset": 0, "stim": {"ori_start": -60, "motion_direction": "out", "speed_end": 0.10657546850524037, "oriDirection": 1, "oriBase": -60, "motionDirection": "out", "speedDirection": -1, "speedStrength": "medium", "speed_start": 0.12, "oriStrength": "medium", "ori_end": -51.15582856679308}, "ITI": 0.6055194065836949, "rt": 0.3644111156463623, "decision_var": 8.844171433206917, "FBDuration": 1, "trial_count": 44, "ts": "orientation", "response": "right", "onset": 260.06735737306207, "quest_estimate": 8.856215937357604, "FB": 1, "displayFB": true, "punishment_amount": 0, "responseWindow": 1.5, "exp_stage": "adaptive_procedure", "stimResponseInterval": 1.2988690266970462, "trial_time": 4.197602987289429}
{"stimulusDuration": 1.5, "reward_amount": 1, "FBonset": 0, "stim": {"ori_start": 30, "motion_direction": "out", "speed_end": 0.10657546850524037, "oriDirection": 1, "oriBase": 30, "motionDirection": "out", "speedDirection": -1, "speedStrength": "medium", "speed_start": 0.12, "oriStrength": "medium", "ori_end": 38.84077172922238}, "ITI": 1.4175225829562428, "rt": 0.3145768642425537, "decision_var": 8.840771729222386, "FBDuration": 1, "trial_count": 45, "ts": "orientation", "response": "right", "onset": 265.9717458063428, "quest_estimate": 8.851580441486252, "FB": 1, "displayFB": true, "punishment_amount": 0, "responseWindow": 1.5, "exp_stage": "adaptive_procedure", "stimResponseInterval": 1.337879402347796, "trial_time": 4.180233001708984}
{"stimulusDuration": 1.5, "reward_amount": 1, "FBonset": 0, "stim": {"ori_start": -60, "motion_direction": "in", "speed_end": 0.13237126573327368, "oriDirection": 1, "oriBase": -60, "motionDirection": "in", "speedDirection": 1, "speedStrength": "medium", "speed_start": 0.12, "oriStrength": "medium", "ori_end": -51.16281349302323}, "ITI": 0.8226462863398458, "rt": 0.3183557987213135, "decision_var": 8.83718650697677, "FBDuration": 1, "trial_count": 46, "ts": "orientation", "response": "right", "onset": 272.72714779164687, "quest_estimate": 8.846674108352463, "FB": 1, "displayFB": true, "punishment_amount": 0, "responseWindow": 1.5, "exp_stage": "adaptive_procedure", "stimResponseInterval": 0.8235193521693296, "trial_time": 3.678179979324341}
{"stimulusDuration": 1.5, "reward_amount": 1, "FBonset": 0, "stim": {"ori_start": -60, "motion_direction": "in", "speed_end": 0.13237126573327368, "oriDirection": -1, "oriBase": -60, "motionDirection": "in", "speedDirection": 1, "speedStrength": "medium", "speed_start": 0.12, "oriStrength": "medium", "ori_end": -68.83327400340671}, "ITI": 1.3470750582451632, "rt": 0.2669520378112793, "decision_var": 8.833274003406714, "FBDuration": 1, "trial_count": 47, "ts": "orientation", "response": "left", "onset": 278.37331343015603, "quest_estimate": 8.841451605703774, "FB": 1, "displayFB": true, "punishment_amount": 0, "responseWindow": 1.5, "exp_stage": "adaptive_procedure", "stimResponseInterval": 1.0990109950139635, "trial_time": 3.9043750762939453}
{"stimulusDuration": 1.5, "reward_amount": 1, "FBonset": 0, "stim": {"ori_start": -60, "motion_direction": "in", "speed_end": 0.10762873426672631, "oriDirection": 1, "oriBase": -60, "motionDirection": "in", "speedDirection": -1, "speedStrength": "medium", "speed_start": 0.12, "oriStrength": "medium", "ori_end": -51.171053394703954}, "ITI": 1.0520669086897185, "rt": 0.3013579845428467, "decision_var": 8.828946605296046, "FBDuration": 1, "trial_count": 48, "ts": "orientation", "response": "right", "onset": 284.81939948341517, "quest_estimate": 8.835857199019909, "FB": 1, "displayFB": true, "punishment_amount": 0, "responseWindow": 1.5, "exp_stage": "adaptive_procedure", "stimResponseInterval": 1.345427966755088, "trial_time": 4.187324047088623}
{"stimulusDuration": 1.5, "reward_amount": 1, "FBonset": 0, "stim": {"ori_start": 30, "motion_direction": "out", "speed_end": 0.13342453149475964, "oriDirection": -1, "oriBase": 30, "motionDirection": "out", "speedDirection": 1, "speedStrength": "medium", "speed_start": 0.12, "oriStrength": "medium", "ori_end": 21.17589968594388}, "ITI": 1.264762073365455, "rt": 0.4008190631866455, "decision_var": 8.824100314056121, "FBDuration": 1, "trial_count": 49, "ts": "orientation", "response": "left", "onset": 291.21689435886, "quest_estimate": 8.82982283692694, "FB": 1, "displayFB": true, "punishment_amount": 0, "responseWindow": 1.5, "exp_stage": "adaptive_procedure", "stimResponseInterval": 1.3948800807955788, "trial_time": 4.336639881134033}
{"stimulusDuration": 1.5, "reward_amount": 1, "FBonset": 0, "stim": {"ori_start": 30, "motion_direction": "out", "speed_end": 0.13342453149475964, "oriDirection": -1, "oriBase": 30, "motionDirection": "out", "speedDirection": 1, "speedStrength": "medium", "speed_start": 0.12, "oriStrength": "medium", "ori_end": 21.181389741675613}, "ITI": 0.6288944244669308, "rt": 0.3321659564971924, "decision_var": 8.818610258324387, "FBDuration": 1, "trial_count": 50, "ts": "orientation", "response": "left", "onset": 297.876536513021, "quest_estimate": 8.823266223795834, "FB": 1, "displayFB": true, "punishment_amount": 0, "responseWindow": 1.5, "exp_stage": "adaptive_procedure", "stimResponseInterval": 0.8156926596619991, "trial_time": 3.6759750843048096}
{"stimulusDuration": 1.5, "reward_amount": 1, "FBonset": 0, "stim": {"ori_start": 30, "motion_direction": "in", "speed_end": 0.13237126573327368, "oriDirection": 1, "oriBase": 30, "motionDirection": "in", "speedDirection": 1, "speedStrength": "medium", "speed_start": 0.12, "oriStrength": "medium", "ori_end": 38.81235608473327}, "ITI": 1.47837230165511, "rt": 0.31816720962524414, "decision_var": 8.81235608473327, "FBDuration": 1, "trial_count": 51, "ts": "orientation", "response": "right", "onset": 303.32112359714995, "quest_estimate": 8.816089022427668, "FB": 1, "displayFB": true, "punishment_amount": 0, "responseWindow": 1.5, "exp_stage": "adaptive_procedure", "stimResponseInterval": 1.393687066879832, "trial_time": 4.244431972503662}
{"stimulusDuration": 1.5, "reward_amount": 1, "FBonset": 0, "stim": {"ori_start": -60, "motion_direction": "in", "speed_end": 0.13237126573327368, "oriDirection": 1, "oriBase": -60, "motionDirection": "in", "speedDirection": 1, "speedStrength": "medium", "speed_start": 0.12, "oriStrength": "medium", "ori_end": -51.192961783154814}, "ITI": 1.0272224605779716, "rt": 0.37961816787719727, "decision_var": 8.807038216845186, "FBDuration": 1, "trial_count": 52, "ts": "orientation", "response": "right", "onset": 310.1931829656849, "quest_estimate": 8.808175364261686, "FB": 1, "displayFB": true, "punishment_amount": 0, "responseWindow": 1.5, "exp_stage": "adaptive_procedure", "stimResponseInterval": 0.7997544030906463, "trial_time": 3.7202751636505127}
{"stimulusDuration": 1.5, "reward_amount": 1, "FBonset": 0, "stim": {"ori_start": 30, "motion_direction": "out", "speed_end": 0.10657546850524037, "oriDirection": -1, "oriBase": 30, "motionDirection": "out", "speedDirection": -1, "speedStrength": "medium", "speed_start": 0.12, "oriStrength": "medium", "ori_end": 21.19792908124916}, "ITI": 1.1483968889189695, "rt": 0.3199770450592041, "decision_var": 8.80207091875084, "FBDuration": 1, "trial_count": 53, "ts": "orientation", "response": "left", "onset": 316.02015982935353, "quest_estimate": 8.799390872107246, "FB": 1, "displayFB": true, "punishment_amount": 0, "responseWindow": 1.5, "exp_stage": "adaptive_procedure", "stimResponseInterval": 1.2196372737661587, "trial_time": 4.068746089935303}
{"stimulusDuration": 1.5, "reward_amount": 1, "FBonset": 0, "stim": {"ori_start": -60, "motion_direction": "out", "speed_end": 0.13342453149475964, "oriDirection": 1, "oriBase": -60, "motionDirection": "out", "speedDirection": 1, "speedStrength": "medium", "speed_start": 0.12, "oriStrength": "medium", "ori_end": -51.20264114589568}, "ITI": 1.0888889169887095, "rt": 0.31392598152160645, "decision_var": 8.797358854104317, "FBDuration": 1, "trial_count": 54, "ts": "orientation", "response": "right", "onset": 322.3881939920387, "quest_estimate": 8.789582416594516, "FB": 1, "displayFB": true, "punishment_amount": 0, "responseWindow": 1.5, "exp_stage": "adaptive_procedure", "stimResponseInterval": 1.222093869251084, "trial_time": 4.078204870223999}
{"stimulusDuration": 1.5, "reward_amount": 1, "FBonset": 0, "stim": {"ori_start": -60, "motion_direction": "out", "speed_end": 0.10657546850524037, "oriDirection": -1, "oriBase": -60, "motionDirection": "out", "speedDirection": -1, "speedStrength": "medium", "speed_start": 0.12, "oriStrength": "medium", "ori_end": -68.79281226645084}, "ITI": 1.1594682050696847, "rt": 0.302034854888916, "decision_var": 8.792812266450841, "FBDuration": 1, "trial_count": 55, "ts": "orientation", "response": "left", "onset": 328.69917677827846, "quest_estimate": 8.778578828189112, "FB": 1, "displayFB": true, "punishment_amount": 0, "responseWindow": 1.5, "exp_stage": "adaptive_procedure", "stimResponseInterval": 1.229970526211723, "trial_time": 4.060935020446777}
{"stimulusDuration": 1.5, "reward_amount": 1, "FBonset": 0, "stim": {"ori_start": 30, "motion_direction": "in", "speed_end": 0.13237126573327368, "oriDirection": -1, "oriBase": 30, "motionDirection": "in", "speedDirection": 1, "speedStrength": "medium", "speed_start": 0.12, "oriStrength": "medium", "ori_end": 21.21165562565109}, "ITI": 1.1898395367318246, "rt": 0.2646470069885254, "decision_var": 8.78834437434891, "FBDuration": 1, "trial_count": 56, "ts": "orientation", "response": "left", "onset": 335.0886155095599, "quest_estimate": 8.766192768165535, "FB": 1, "displayFB": true, "punishment_amount": 0, "responseWindow": 1.5, "exp_stage": "adaptive_procedure", "stimResponseInterval": 1.2966091335588783, "trial_time": 4.099452972412109}
{"stimulusDuration": 1.5, "reward_amount": 1, "FBonset": 0, "stim": {"ori_start": -60, "motion_direction": "in", "speed_end": 0.10762873426672631, "oriDirection": -1, "oriBase": -60, "motionDirection": "in", "speedDirection": -1, "speedStrength": "medium", "speed_start": 0.12, "oriStrength": "medium", "ori_end": -68.7838688199232}, "ITI": 1.0507843519815765, "rt": 0.3173558712005615, "decision_var": 8.7838688199232, "FBDuration": 1, "trial_count": 57, "ts": "orientation", "response": "left", "onset": 341.5750641798506, "quest_estimate": 8.752223921785635, "FB": 1, "displayFB": true, "punishment_amount": 0, "responseWindow": 1.5, "exp_stage": "adaptive_procedure", "stimResponseInterval": 0.6342393418499617, "trial_time": 3.4827139377593994}
{"stimulusDuration": 1.5, "reward_amount": 1, "FBonset": 0, "stim": {"ori_start": 30, "motion_direction": "out", "speed_end": 0.13342453149475964, "oriDirection": 1, "oriBase": 30, "motionDirection": "out", "speedDirection": 1, "speedStrength": "medium", "speed_start": 0.12, "oriStrength": "medium", "ori_end": 38.77929706303612}, "ITI": 0.9514857495216802, "rt": 0.37056899070739746, "decision_var": 8.779297063036118, "FBDuration": 1, "trial_count": 58, "ts": "orientation", "response": "right", "onset": 347.2600878736821, "quest_estimate": 8.730077770296035, "FB": 1, "displayFB": true, "punishment_amount": 0, "responseWindow": 1.5, "exp_stage": "adaptive_procedure", "stimResponseInterval": 0.825666438570102, "trial_time": 3.7236180305480957}
{"stimulusDuration": 1.5, "reward_amount": 1, "FBonset": 0, "stim": {"ori_start": -60, "motion_direction": "out", "speed_end": 0.13342453149475964, "oriDirection": -1, "oriBase": -60, "motionDirection": "out", "speedDirection": 1, "speedStrength": "medium", "speed_start": 0.12, "oriStrength": "medium", "ori_end": -68.77437899765525}, "ITI": 1.1167031766302018, "rt": 0.3147609233856201, "decision_var": 8.77437899765524, "FBDuration": 1, "trial_count": 59, "ts": "orientation", "response": "left", "onset": 353.0372400617739, "quest_estimate": 8.70220721443902, "FB": 1, "displayFB": true, "punishment_amount": 0, "responseWindow": 1.5, "exp_stage": "adaptive_procedure", "stimResponseInterval": 1.4556927036227858, "trial_time": 4.3032920360565186}
{"stimulusDuration": 1.5, "reward_amount": 1, "FBonset": 0, "stim": {"ori_start": -60, "motion_direction": "out", "speed_end": 0.13342453149475964, "oriDirection": -1, "oriBase": -60, "motionDirection": "out", "speedDirection": 1, "speedStrength": "medium", "speed_start": 0.12, "oriStrength": "medium", "ori_end": -68.7688962809975}, "ITI": 0.5133371425727842, "rt": 0.38402485847473145, "decision_var": 8.768896280997488, "FBDuration": 1, "trial_count": 60, "ts": "orientation", "response": "left", "onset": 359.6096359420269, "quest_estimate": 8.66728648978858, "FB": 1, "displayFB": true, "punishment_amount": 0, "responseWindow": 1.5, "exp_stage": "adaptive_procedure", "stimResponseInterval": 0.7565409400267344, "trial_time": 3.681421995162964}
{"stimulusDuration": 1.5, "reward_amount": 1, "FBonset": 0, "stim": {"ori_start": 30, "motion_direction": "out", "speed_end": 0.13342453149475964, "oriDirection": 1, "oriBase": 30, "motionDirection": "out", "speedDirection": 1, "speedStrength": "medium", "speed_start": 0.12, "oriStrength": "medium", "ori_end": 38.76263377219867}, "ITI": 0.8999177569597046, "rt": 0.3051011562347412, "decision_var": 8.762633772198665, "FBDuration": 1, "trial_count": 61, "ts": "orientation", "response": "left", "onset": 364.8795140246264, "quest_estimate": 8.795288160270601, "FB": 0, "displayFB": true, "punishment_amount": 0, "responseWindow": 1.5, "exp_stage": "adaptive_procedure", "stimResponseInterval": 1.0122434982555555, "trial_time": 3.8537261486053467}
{"stimulusDuration": 1.5, "reward_amount": 1, "FBonset": 0, "stim": {"ori_start": 30, "motion_direction": "out", "speed_end": 0.10657546850524037, "oriDirection": -1, "oriBase": 30, "motionDirection": "out", "speedDirection": -1, "speedStrength": "medium", "speed_start": 0.12, "oriStrength": "medium", "ori_end": 21.22099709466603}, "ITI": 0.632839522141039, "rt": 0.32822513580322266, "decision_var": 8.779002905333972, "FBDuration": 1, "trial_count": 62, "ts": "orientation", "response": "left", "onset": 370.7916752798417, "quest_estimate": 8.790197319571778, "FB": 1, "displayFB": true, "punishment_amount": 0, "responseWindow": 1.5, "exp_stage": "adaptive_procedure", "stimResponseInterval": 0.8819942454538288, "trial_time": 3.749066114425659}
{"stimulusDuration": 1.5, "reward_amount": 1, "FBonset": 0, "stim": {"ori_start": -60, "motion_direction": "in", "speed_end": 0.10762873426672631, "oriDirection": 1, "oriBase": -60, "motionDirection": "in", "speedDirection": -1, "speedStrength": "medium", "speed_start": 0.12, "oriStrength": "medium", "ori_end": -51.22509569411516}, "ITI": 1.3739490775164251, "rt": 0.6736681461334229, "decision_var": 8.774904305884839, "FBDuration": 1, "trial_count": 63, "ts": "orientation", "response": "right", "onset": 376.3065090474366, "quest_estimate": 8.78478015008412, "FB": 1, "displayFB": true, "punishment_amount": 0, "responseWindow": 1.5, "exp_stage": "adaptive_procedure", "stimResponseInterval": 0.6378426529795054, "trial_time": 3.8497400283813477}
{"stimulusDuration": 1.5, "reward_amount": 1, "FBonset": 0, "stim": {"ori_start": -60, "motion_direction": "out", "speed_end": 0.13342453149475964, "oriDirection": 1, "oriBase": -60, "motionDirection": "out", "speedDirection": 1, "speedStrength": "medium", "speed_start": 0.12, "oriStrength": "medium", "ori_end": -51.22948250399503}, "ITI": 0.7841861102393173, "rt": 0.6411070823669434, "decision_var": 8.770517496004974, "FBDuration": 1, "trial_count": 64, "ts": "orientation", "response": "left", "onset": 382.3183007779325, "quest_estimate": 8.80018327437179, "FB": 0, "displayFB": true, "punishment_amount": 0, "responseWindow": 1.5, "exp_stage": "adaptive_procedure", "stimResponseInterval": 0.7655036262498718, "trial_time": 3.9480559825897217}
