{"stimulusDuration": 1.5, "reward_amount": 1, "FBonset": 0, "stim": {"ori_start": 30, "motion_direction": "in", "speed_end": 0.18, "oriDirection": -1, "oriBase": 30, "motionDirection": "in", "speedDirection": 1, "speedStrength": "medium", "speed_start": 0.12, "oriStrength": "medium", "ori_end": 19.06820941347497}, "ITI": 0.531220851734691, "rt": 0.321195125579834, "decision_var": 0.06, "FBDuration": 0.5, "trial_count": 1, "ts": "motion", "response": "up", "onset": 2, "quest_estimate": 0.05405249303064265, "FB": 1, "displayFB": true, "punishment_amount": 0, "responseWindow": 1.5, "exp_stage": "adaptive_procedure", "stimResponseInterval": 0.8257444218299799, "trial_time": 3.1822080612182617}
{"stimulusDuration": 1.5, "reward_amount": 1, "FBonset": 0, "stim": {"ori_start": 30, "motion_direction": "in", "speed_end": 0.05203764160274668, "oriDirection": 1, "oriBase": 30, "motionDirection": "in", "speedDirection": -1, "speedStrength": "medium", "speed_start": 0.12, "oriStrength": "medium", "ori_end": 40.931790586525025}, "ITI": 0.002563183806204128, "rt": 0.2797207832336426, "decision_var": 0.06796235839725331, "FBDuration": 0.5, "trial_count": 2, "ts": "motion", "response": "down", "onset": 6.856965273564671, "quest_estimate": 0.04824131887873747, "FB": 1, "displayFB": true, "punishment_amount": 0, "responseWindow": 1.5, "exp_stage": "adaptive_procedure", "stimResponseInterval": 0.5518626762444931, "trial_time": 2.857883930206299}
{"stimulusDuration": 1.5, "reward_amount": 1, "FBonset": 0, "stim": {"ori_start": -60, "motion_direction": "in", "speed_end": 0.06006316550538868, "oriDirection": -1, "oriBase": -60, "motionDirection": "in", "speedDirection": -1, "speedStrength": "medium", "speed_start": 0.12, "oriStrength": "medium", "ori_end": -70.93179058652503}, "ITI": 0.3380534287201781, "rt": 0.27412915229797363, "decision_var": 0.05993683449461132, "FBDuration": 0.5, "trial_count": 3, "ts": "motion", "response": "down", "onset": 10.911391133615368, "quest_estimate": 0.042536406297425625, "FB": 1, "displayFB": true, "punishment_amount": 0, "responseWindow": 1.5, "exp_stage": "adaptive_procedure", "stimResponseInterval": 0.4468863142245232, "trial_time": 2.759127140045166}
{"stimulusDuration": 1.5, "reward_amount": 1, "FBonset": 0, "stim": {"ori_start": 30, "motion_direction": "out", "speed_end": 0.06794826294689951, "oriDirection": 1, "oriBase": 30, "motionDirection": "out", "speedDirection": -1, "speedStrength": "medium", "speed_start": 0.12, "oriStrength": "medium", "ori_end": 40.931790586525025}, "ITI": 0.8540017467261598, "rt": 0.26129889488220215, "decision_var": 0.052051737053100476, "FBDuration": 0.5, "trial_count": 4, "ts": "motion", "response": "down", "onset": 15.196330876560069, "quest_estimate": 0.03699576720046285, "FB": 1, "displayFB": true, "punishment_amount": 0, "responseWindow": 1.5, "exp_stage": "adaptive_procedure", "stimResponseInterval": 0.7758685889744696, "trial_time": 3.07191801071167}
{"stimulusDuration": 1.5, "reward_amount": 1, "FBonset": 0, "stim": {"ori_start": -60, "motion_direction": "in", "speed_end": 0.0755497216461298, "oriDirection": 1, "oriBase": -60, "motionDirection": "in", "speedDirection": -1, "speedStrength": "medium", "speed_start": 0.12, "oriStrength": "medium", "ori_end": -49.068209413474975}, "ITI": 0.017617909659127018, "rt": 0.25482606887817383, "decision_var": 0.04445027835387019, "FBDuration": 0.5, "trial_count": 5, "ts": "motion", "response": "down", "onset": 20.3262012122607, "quest_estimate": 0.031669184532726005, "FB": 1, "displayFB": true, "punishment_amount": 0, "responseWindow": 1.5, "exp_stage": "adaptive_procedure", "stimResponseInterval": 0.6464073756335371, "trial_time": 2.9374778270721436}
{"stimulusDuration": 1.5, "reward_amount": 1, "FBonset": 0, "stim": {"ori_start": -60, "motion_direction": "out", "speed_end": 0.1572456783009018, "oriDirection": 1, "oriBase": -60, "motionDirection": "out", "speedDirection": 1, "speedStrength": "medium", "speed_start": 0.12, "oriStrength": "medium", "ori_end": -49.068209413474975}, "ITI": 0.7062165816241825, "rt": 0.30727314949035645, "decision_var": 0.037245678300901794, "FBDuration": 0.5, "trial_count": 6, "ts": "motion", "response": "up", "onset": 24.490226497553362, "quest_estimate": 0.026597707351469685, "FB": 1, "displayFB": true, "punishment_amount": 0, "responseWindow": 1.5, "exp_stage": "adaptive_procedure", "stimResponseInterval": 0.9649096166310891, "trial_time": 3.3100740909576416}
{"stimulusDuration": 1.5, "reward_amount": 1, "FBonset": 0, "stim": {"ori_start": 30, "motion_direction": "in", "speed_end": 0.15051868805975743, "oriDirection": -1, "oriBase": 30, "motionDirection": "in", "speedDirection": 1, "speedStrength": "medium", "speed_start": 0.12, "oriStrength": "medium", "ori_end": 19.06820941347497}, "ITI": 0.6176352312312958, "rt": 0.5881669521331787, "decision_var": 0.030518688059757423, "FBDuration": 0.5, "trial_count": 7, "ts": "motion", "response": "up", "onset": 29.66135269580863, "quest_estimate": 0.021809159012736452, "FB": 1, "displayFB": true, "punishment_amount": 0, "responseWindow": 1.5, "exp_stage": "adaptive_procedure", "stimResponseInterval": 0.006001839643407725, "trial_time": 2.634044885635376}
{"stimulusDuration": 1.5, "reward_amount": 1, "FBonset": 0, "stim": {"ori_start": 30, "motion_direction": "out", "speed_end": 0.1443128020124263, "oriDirection": 1, "oriBase": 30, "motionDirection": "out", "speedDirection": 1, "speedStrength": "medium", "speed_start": 0.12, "oriStrength": "medium", "ori_end": 40.931790586525025}, "ITI": 0.33806786369877206, "rt": 0.3024740219116211, "decision_var": 0.024312802012426298, "FBDuration": 0.5, "trial_count": 8, "ts": "motion", "response": "up", "onset": 33.78498976668334, "quest_estimate": 0.01732042674616959, "FB": 1, "displayFB": true, "punishment_amount": 0, "responseWindow": 1.5, "exp_stage": "adaptive_procedure", "stimResponseInterval": 0.5528438230243775, "trial_time": 2.894597053527832}
{"stimulusDuration": 1.5, "reward_amount": 1, "FBonset": 0, "stim": {"ori_start": -60, "motion_direction": "in", "speed_end": 0.13864194704971433, "oriDirection": -1, "oriBase": -60, "motionDirection": "in", "speedDirection": 1, "speedStrength": "medium", "speed_start": 0.12, "oriStrength": "medium", "ori_end": -70.93179058652503}, "ITI": 0.44284424687523727, "rt": 0.9799058437347412, "decision_var": 0.018641947049714336, "FBDuration": 0.5, "trial_count": 9, "ts": "motion", "response": "up", "onset": 38.17590145340649, "quest_estimate": 0.013138232706875239, "FB": 1, "displayFB": true, "punishment_amount": 0, "responseWindow": 1.5, "exp_stage": "adaptive_procedure", "stimResponseInterval": 0.330634438044777, "trial_time": 3.3405561447143555}
{"stimulusDuration": 1.5, "reward_amount": 1, "FBonset": 0, "stim": {"ori_start": -60, "motion_direction": "in", "speed_end": 0.13349674180889706, "oriDirection": -1, "oriBase": -60, "motionDirection": "in", "speedDirection": 1, "speedStrength": "medium", "speed_start": 0.12, "oriStrength": "medium", "ori_end": -70.93179058652503}, "ITI": 0.5812498330215567, "rt": 0.699674129486084, "decision_var": 0.013496741808897074, "FBDuration": 0.5, "trial_count": 10, "ts": "motion", "response": "up", "onset": 42.449380138326504, "quest_estimate": 0.009260883662818194, "FB": 1, "displayFB": true, "punishment_amount": 0, "responseWindow": 1.5, "exp_stage": "adaptive_procedure", "stimResponseInterval": 0.10804271872231874, "trial_time": 2.8461761474609375}
{"stimulusDuration": 1.5, "reward_amount": 1, "FBonset": 0, "stim": {"ori_start": 30, "motion_direction": "out", "speed_end": 0.12885169982556802, "oriDirection": -1, "oriBase": 30, "motionDirection": "out", "speedDirection": 1, "speedStrength": "medium", "speed_start": 0.12, "oriStrength": "medium", "ori_end": 19.06820941347497}, "ITI": 0.38241558205194526, "rt": 0.30922985076904297, "decision_var": 0.008851699825568014, "FBDuration": 0.5, "trial_count": 11, "ts": "motion", "response": "up", "onset": 46.63867269007038, "quest_estimate": 0.005680141001167642, "FB": 1, "displayFB": true, "punishment_amount": 0, "responseWindow": 1.5, "exp_stage": "adaptive_procedure", "stimResponseInterval": 0.41389132904332815, "trial_time": 2.754286050796509}
{"stimulusDuration": 1.5, "reward_amount": 1, "FBonset": 0, "stim": {"ori_start": -60, "motion_direction": "out", "speed_end": 0.12467139427503028, "oriDirection": 1, "oriBase": -60, "motionDirection": "out", "speedDirection": 1, "speedStrength": "medium", "speed_start": 0.12, "oriStrength": "medium", "ori_end": -49.068209413474975}, "ITI": 0.8810889222294951, "rt": 0.35097694396972656, "decision_var": 0.004671394275030286, "FBDuration": 0.5, "trial_count": 12, "ts": "motion", "response": "up", "onset": 50.93497960116565, "quest_estimate": 0.0023834004355618096, "FB": 1, "displayFB": true, "punishment_amount": 0, "responseWindow": 1.5, "exp_stage": "adaptive_procedure", "stimResponseInterval": 0.4423929125590893, "trial_time": 2.826792001724243}
{"stimulusDuration": 1.5, "reward_amount": 1, "FBonset": 0, "stim": {"ori_start": -60, "motion_direction": "in", "speed_end": 0.12091595269429259, "oriDirection": 1, "oriBase": -60, "motionDirection": "in", "speedDirection": 1, "speedStrength": "medium", "speed_start": 0.12, "oriStrength": "medium", "ori_end": -49.068209413474975}, "ITI": 0.3696450387226331, "rt": 0.2311999797821045, "decision_var": 0.0009159526942925933, "FBDuration": 0.5, "trial_count": 13, "ts": "motion", "response": "down", "onset": 55.75846143595423, "quest_estimate": 0.012842653552908166, "FB": 0, "displayFB": true, "punishment_amount": 0, "responseWindow": 1.5, "exp_stage": "adaptive_procedure", "stimResponseInterval": 0.6539281773869008, "trial_time": 2.910343885421753}
{"stimulusDuration": 1.5, "reward_amount": 1, "FBonset": 0, "stim": {"ori_start": -60, "motion_direction": "in", "speed_end": 0.13367367130851712, "oriDirection": -1, "oriBase": -60, "motionDirection": "in", "speedDirection": 1, "speedStrength": "medium", "speed_start": 0.12, "oriStrength": "medium", "ori_end": -70.93179058652503}, "ITI": 0.8610212448981498, "rt": 0.36752796173095703, "decision_var": 0.01367367130851712, "FBDuration": 0.5, "trial_count": 14, "ts": "motion", "response": "up", "onset": 60.282034652063764, "quest_estimate": 0.009168599355559304, "FB": 1, "displayFB": true, "punishment_amount": 0, "responseWindow": 1.5, "exp_stage": "adaptive_procedure", "stimResponseInterval": 0.13284384189941323, "trial_time": 2.533233880996704}
{"stimulusDuration": 1.5, "reward_amount": 1, "FBonset": 0, "stim": {"ori_start": -60, "motion_direction": "out", "speed_end": 0.12933406374245623, "oriDirection": -1, "oriBase": -60, "motionDirection": "out", "speedDirection": 1, "speedStrength": "medium", "speed_start": 0.12, "oriStrength": "medium", "ori_end": -70.93179058652503}, "ITI": 0.9440337649276396, "rt": 0.31524205207824707, "decision_var": 0.009334063742456239, "FBDuration": 0.5, "trial_count": 15, "ts": "motion", "response": "up", "onset": 64.77589973886133, "quest_estimate": 0.005764212735899089, "FB": 1, "displayFB": true, "punishment_amount": 0, "responseWindow": 1.5, "exp_stage": "adaptive_procedure", "stimResponseInterval": 0.7925896985121987, "trial_time": 3.145965814590454}
{"stimulusDuration": 1.5, "reward_amount": 1, "FBonset": 0, "stim": {"ori_start": -60, "motion_direction": "out", "speed_end": 0.11460636791395637, "oriDirection": -1, "oriBase": -60, "motionDirection": "out", "speedDirection": -1, "speedStrength": "medium", "speed_start": 0.12, "oriStrength": "medium", "ori_end": -70.93179058652503}, "ITI": 0.4823069570324461, "rt": 0.2826080322265625, "decision_var": 0.005393632086043619, "FBDuration": 0.5, "trial_count": 16, "ts": "motion", "response": "up", "onset": 70.01252320230117, "quest_estimate": 0.01673718070679147, "FB": 0, "displayFB": true, "punishment_amount": 0, "responseWindow": 1.5, "exp_stage": "adaptive_procedure", "stimResponseInterval": 0.27196419938872884, "trial_time": 2.587088108062744}
{"stimulusDuration": 1.5, "reward_amount": 1, "FBonset": 0, "stim": {"ori_start": -60, "motion_direction": "out", "speed_end": 0.1012003027689041, "oriDirection": -1, "oriBase": -60, "motionDirection": "out", "speedDirection": -1, "speedStrength": "medium", "speed_start": 0.12, "oriStrength": "medium", "ori_end": -70.93179058652503}, "ITI": 0.7878641359821881, "rt": 0.6203029155731201, "decision_var": 0.018799697231095903, "FBDuration": 0.5, "trial_count": 17, "ts": "motion", "response": "down", "onset": 74.26679435872234, "quest_estimate": 0.01298555268922378, "FB": 1, "displayFB": true, "punishment_amount": 0, "responseWindow": 1.5, "exp_stage": "adaptive_procedure", "stimResponseInterval": 0.37792127381277685, "trial_time": 3.025383949279785}
{"stimulusDuration": 1.5, "reward_amount": 1, "FBonset": 0, "stim": {"ori_start": 30, "motion_direction": "out", "speed_end": 0.10565152356321303, "oriDirection": 1, "oriBase": 30, "motionDirection": "out", "speedDirection": -1, "speedStrength": "medium", "speed_start": 0.12, "oriStrength": "medium", "ori_end": 40.931790586525025}, "ITI": 0.8957933717387481, "rt": 0.3388209342956543, "decision_var": 0.014348476436786967, "FBDuration": 0.5, "trial_count": 18, "ts": "motion", "response": "up", "onset": 78.9325797685173, "quest_estimate": 0.025366178307572596, "FB": 0, "displayFB": true, "punishment_amount": 0, "responseWindow": 1.5, "exp_stage": "adaptive_procedure", "stimResponseInterval": 0.24452692355822347, "trial_time": 2.609560966491699}
{"stimulusDuration": 1.5, "reward_amount": 1, "FBonset": 0, "stim": {"ori_start": -60, "motion_direction": "in", "speed_end": 0.14950761657393685, "oriDirection": 1, "oriBase": -60, "motionDirection": "in", "speedDirection": 1, "speedStrength": "medium", "speed_start": 0.12, "oriStrength": "medium", "ori_end": -49.068209413474975}, "ITI": 0.3557222398470947, "rt": 0.35488104820251465, "decision_var": 0.02950761657393686, "FBDuration": 0.5, "trial_count": 19, "ts": "motion", "response": "up", "onset": 83.57290006381427, "quest_estimate": 0.0213216275198249, "FB": 1, "displayFB": true, "punishment_amount": 0, "responseWindow": 1.5, "exp_stage": "adaptive_procedure", "stimResponseInterval": 0.8929137359361736, "trial_time": 3.2830440998077393}
{"stimulusDuration": 1.5, "reward_amount": 1, "FBonset": 0, "stim": {"ori_start": 30, "motion_direction": "out", "speed_end": 0.09534689228907804, "oriDirection": -1, "oriBase": 30, "motionDirection": "out", "speedDirection": -1, "speedStrength": "medium", "speed_start": 0.12, "oriStrength": "medium", "ori_end": 19.06820941347497}, "ITI": 0.6696270001608275, "rt": 0.4587571620941162, "decision_var": 0.024653107710921954, "FBDuration": 0.5, "trial_count": 20, "ts": "motion", "response": "down", "onset": 88.32153603959755, "quest_estimate": 0.017505725384124406, "FB": 1, "displayFB": true, "punishment_amount": 0, "responseWindow": 1.5, "exp_stage": "adaptive_procedure", "stimResponseInterval": 0.05122122364731807, "trial_time": 2.5437819957733154}
{"stimulusDuration": 1.5, "reward_amount": 1, "FBonset": 0, "stim": {"ori_start": 30, "motion_direction": "out", "speed_end": 0.14013338783960905, "oriDirection": 1, "oriBase": 30, "motionDirection": "out", "speedDirection": 1, "speedStrength": "medium", "speed_start": 0.12, "oriStrength": "medium", "ori_end": 40.931790586525025}, "ITI": 0.43255492514147387, "rt": 0.3914339542388916, "decision_var": 0.020133387839609045, "FBDuration": 0.5, "trial_count": 21, "ts": "motion", "response": "up", "onset": 92.5423842634057, "quest_estimate": 0.013919171361969213, "FB": 1, "displayFB": true, "punishment_amount": 0, "responseWindow": 1.5, "exp_stage": "adaptive_procedure", "stimResponseInterval": 0.20855455494776387, "trial_time": 2.628588914871216}
{"stimulusDuration": 1.5, "reward_amount": 1, "FBonset": 0, "stim": {"ori_start": -60, "motion_direction": "out", "speed_end": 0.10406142176044161, "oriDirection": -1, "oriBase": -60, "motionDirection": "out", "speedDirection": -1, "speedStrength": "medium", "speed_start": 0.12, "oriStrength": "medium", "ori_end": -70.93179058652503}, "ITI": 0.5205345687529237, "rt": 0.4408419132232666, "decision_var": 0.015938578239558375, "FBDuration": 0.5, "trial_count": 22, "ts": "motion", "response": "up", "onset": 96.68349374349494, "quest_estimate": 0.025862775938584173, "FB": 0, "displayFB": true, "punishment_amount": 0, "responseWindow": 1.5, "exp_stage": "adaptive_procedure", "stimResponseInterval": 0.6090744567781452, "trial_time": 3.086172103881836}
{"stimulusDuration": 1.5, "reward_amount": 1, "FBonset": 0, "stim": {"ori_start": -60, "motion_direction": "out", "speed_end": 0.15025534574849173, "oriDirection": -1, "oriBase": -60, "motionDirection": "out", "speedDirection": 1, "speedStrength": "medium", "speed_start": 0.12, "oriStrength": "medium", "ori_end": -70.93179058652503}, "ITI": 0.5679842799317378, "rt": 0.329099178314209, "decision_var": 0.030255345748491723, "FBDuration": 0.5, "trial_count": 23, "ts": "motion", "response": "up", "onset": 101.313102769026, "quest_estimate": 0.022020858960943558, "FB": 1, "displayFB": true, "punishment_amount": 0, "responseWindow": 1.5, "exp_stage": "adaptive_procedure", "stimResponseInterval": 0.7827690611672304, "trial_time": 3.1506950855255127}
{"stimulusDuration": 1.5, "reward_amount": 1, "FBonset": 0, "stim": {"ori_start": -60, "motion_direction": "out", "speed_end": 0.09426250393213344, "oriDirection": -1, "oriBase": -60, "motionDirection": "out", "speedDirection": -1, "speedStrength": "medium", "speed_start": 0.12, "oriStrength": "medium", "ori_end": -70.93179058652503}, "ITI": 0.3688043854856109, "rt": 0.3920600414276123, "decision_var": 0.025737496067866558, "FBDuration": 0.5, "trial_count": 24, "ts": "motion", "response": "down", "onset": 106.16385611012497, "quest_estimate": 0.01838394824944642, "FB": 1, "displayFB": true, "punishment_amount": 0, "responseWindow": 1.5, "exp_stage": "adaptive_procedure", "stimResponseInterval": 0.8422920832885883, "trial_time": 3.2706849575042725}
{"stimulusDuration": 1.5, "reward_amount": 1, "FBonset": 0, "stim": {"ori_start": 30, "motion_direction": "out", "speed_end": 0.14150396467174806, "oriDirection": 1, "oriBase": 30, "motionDirection": "out", "speedDirection": 1, "speedStrength": "medium", "speed_start": 0.12, "oriStrength": "medium", "ori_end": 40.931790586525025}, "ITI": 0.2248551129064863, "rt": 0.30586695671081543, "decision_var": 0.021503964671748053, "FBDuration": 0.5, "trial_count": 25, "ts": "motion", "response": "up", "onset": 110.87495257889917, "quest_estimate": 0.014952291357842526, "FB": 1, "displayFB": true, "punishment_amount": 0, "responseWindow": 1.5, "exp_stage": "adaptive_procedure", "stimResponseInterval": 0.7654462075522916, "trial_time": 3.111455202102661}
{"stimulusDuration": 1.5, "reward_amount": 1, "FBonset": 0, "stim": {"ori_start": 30, "motion_direction": "in", "speed_end": 0.10245363785346981, "oriDirection": -1, "oriBase": 30, "motionDirection": "in", "speedDirection": -1, "speedStrength": "medium", "speed_start": 0.12, "oriStrength": "medium", "ori_end": 19.06820941347497}, "ITI": 0.23886694669118713, "rt": 0.3293471336364746, "decision_var": 0.017546362146530187, "FBDuration": 0.5, "trial_count": 26, "ts": "motion", "response": "down", "onset": 115.36525389935795, "quest_estimate": 0.011722972502318699, "FB": 1, "displayFB": true, "punishment_amount": 0, "responseWindow": 1.5, "exp_stage": "adaptive_procedure", "stimResponseInterval": 0.8104247367655568, "trial_time": 3.1717121601104736}
{"stimulusDuration": 1.5, "reward_amount": 1, "FBonset": 0, "stim": {"ori_start": -60, "motion_direction": "out", "speed_end": 0.13385379737583675, "oriDirection": -1, "oriBase": -60, "motionDirection": "out", "speedDirection": 1, "speedStrength": "medium", "speed_start": 0.12, "oriStrength": "medium", "ori_end": -70.93179058652503}, "ITI": 0.0980122183004184, "rt": 0.35468602180480957, "decision_var": 0.013853797375836752, "FBDuration": 0.5, "trial_count": 27, "ts": "motion", "response": "down", "onset": 119.9145455828147, "quest_estimate": 0.022487358425731185, "FB": 0, "displayFB": true, "punishment_amount": 0, "responseWindow": 1.5, "exp_stage": "adaptive_procedure", "stimResponseInterval": 0.31110851046202204, "trial_time": 2.696225166320801}
{"stimulusDuration": 1.5, "reward_amount": 1, "FBonset": 0, "stim": {"ori_start": 30, "motion_direction": "out", "speed_end": 0.09353249851191026, "oriDirection": 1, "oriBase": 30, "motionDirection": "out", "speedDirection": -1, "speedStrength": "medium", "speed_start": 0.12, "oriStrength": "medium", "ori_end": 40.931790586525025}, "ITI": 0.10982401976881329, "rt": 0.48052000999450684, "decision_var": 0.026467501488089733, "FBDuration": 0.5, "trial_count": 28, "ts": "motion", "response": "up", "onset": 123.82366631157714, "quest_estimate": 0.03498367395193902, "FB": 0, "displayFB": true, "punishment_amount": 0, "responseWindow": 1.5, "exp_stage": "adaptive_procedure", "stimResponseInterval": 0.5905745045557849, "trial_time": 3.108109951019287}
{"stimulusDuration": 1.5, "reward_amount": 1, "FBonset": 0, "stim": {"ori_start": -60, "motion_direction": "in", "speed_end": 0.07908117759865722, "oriDirection": -1, "oriBase": -60, "motionDirection": "in", "speedDirection": -1, "speedStrength": "medium", "speed_start": 0.12, "oriStrength": "medium", "ori_end": -70.93179058652503}, "ITI": 0.605812139773886, "rt": 0.5645589828491211, "decision_var": 0.04091882240134277, "FBDuration": 0.5, "trial_count": 29, "ts": "motion", "response": "down", "onset": 128.02406483590175, "quest_estimate": 0.03118801459725362, "FB": 1, "displayFB": true, "punishment_amount": 0, "responseWindow": 1.5, "exp_stage": "adaptive_procedure", "stimResponseInterval": 0.087748049278362, "trial_time": 2.6867799758911133}
{"stimulusDuration": 1.5, "reward_amount": 1, "FBonset": 0, "stim": {"ori_start": 30, "motion_direction": "out", "speed_end": 0.15654835485111115, "oriDirection": -1, "oriBase": 30, "motionDirection": "out", "speedDirection": 1, "speedStrength": "medium", "speed_start": 0.12, "oriStrength": "medium", "ori_end": 19.06820941347497}, "ITI": 0.10507299504896406, "rt": 0.4587211608886719, "decision_var": 0.03654835485111116, "FBDuration": 0.5, "trial_count": 30, "ts": "motion", "response": "up", "onset": 132.217625024954, "quest_estimate": 0.027548397419679328, "FB": 1, "displayFB": true, "punishment_amount": 0, "responseWindow": 1.5, "exp_stage": "adaptive_procedure", "stimResponseInterval": 0.13368868738099382, "trial_time": 2.6318728923797607}
{"stimulusDuration": 1.5, "reward_amount": 1, "FBonset": 0, "stim": {"ori_start": -60, "motion_direction": "in", "speed_end": 0.08760913185568135, "oriDirection": -1, "oriBase": -60, "motionDirection": "in", "speedDirection": -1, "speedStrength": "medium", "speed_start": 0.12, "oriStrength": "medium", "ori_end": -70.93179058652503}, "ITI": 0.1386067165173791, "rt": 0.36184120178222656, "decision_var": 0.032390868144318644, "FBDuration": 0.5, "trial_count": 31, "ts": "motion", "response": "down", "onset": 135.95638670738396, "quest_estimate": 0.02406966674364274, "FB": 1, "displayFB": true, "punishment_amount": 0, "responseWindow": 1.5, "exp_stage": "adaptive_procedure", "stimResponseInterval": 0.9203310627600372, "trial_time": 3.315857172012329}
{"stimulusDuration": 1.5, "reward_amount": 1, "FBonset": 0, "stim": {"ori_start": -60, "motion_direction": "out", "speed_end": 0.09155534491084247, "oriDirection": 1, "oriBase": -60, "motionDirection": "out", "speedDirection": -1, "speedStrength": "medium", "speed_start": 0.12, "oriStrength": "medium", "ori_end": -49.068209413474975}, "ITI": 0.7950645714902036, "rt": 0.3148629665374756, "decision_var": 0.028444655089157535, "FBDuration": 0.5, "trial_count": 32, "ts": "motion", "response": "down", "onset": 140.51532448666137, "quest_estimate": 0.02075375138525841, "FB": 1, "displayFB": true, "punishment_amount": 0, "responseWindow": 1.5, "exp_stage": "adaptive_procedure", "stimResponseInterval": 0.9836928366174909, "trial_time": 3.3391599655151367}
{"stimulusDuration": 1.5, "reward_amount": 1, "FBonset": 0, "stim": {"ori_start": -60, "motion_direction": "in", "speed_end": 0.09529477296884645, "oriDirection": 1, "oriBase": -60, "motionDirection": "in", "speedDirection": -1, "speedStrength": "medium", "speed_start": 0.12, "oriStrength": "medium", "ori_end": -49.068209413474975}, "ITI": 0.7545549875629602, "rt": 0.3198120594024658, "decision_var": 0.024705227031153555, "FBDuration": 0.5, "trial_count": 33, "ts": "motion", "response": "down", "onset": 145.79408189476908, "quest_estimate": 0.01760051309648076, "FB": 1, "displayFB": true, "punishment_amount": 0, "responseWindow": 1.5, "exp_stage": "adaptive_procedure", "stimResponseInterval": 0.351794535162509, "trial_time": 2.6970810890197754}
{"stimulusDuration": 1.5, "reward_amount": 1, "FBonset": 0, "stim": {"ori_start": 30, "motion_direction": "out", "speed_end": 0.14116643001061543, "oriDirection": 1, "oriBase": 30, "motionDirection": "out", "speedDirection": 1, "speedStrength": "medium", "speed_start": 0.12, "oriStrength": "medium", "ori_end": 40.931790586525025}, "ITI": 0.26963307807253845, "rt": 0.3557920455932617, "decision_var": 0.021166430010615446, "FBDuration": 0.5, "trial_count": 34, "ts": "motion", "response": "up", "onset": 150.40043141749456, "quest_estimate": 0.014607900209231514, "FB": 1, "displayFB": true, "punishment_amount": 0, "responseWindow": 1.5, "exp_stage": "adaptive_procedure", "stimResponseInterval": 0.25199394064361114, "trial_time": 2.6416890621185303}
{"stimulusDuration": 1.5, "reward_amount": 1, "FBonset": 0, "stim": {"ori_start": 30, "motion_direction": "in", "speed_end": 0.13782108231723822, "oriDirection": 1, "oriBase": 30, "motionDirection": "in", "speedDirection": 1, "speedStrength": "medium", "speed_start": 0.12, "oriStrength": "medium", "ori_end": 40.931790586525025}, "ITI": 0.8741628786541771, "rt": 0.602402925491333, "decision_var": 0.017821082317238224, "FBDuration": 0.5, "trial_count": 35, "ts": "motion", "response": "down", "onset": 154.4220584362107, "quest_estimate": 0.02475614468680115, "FB": 0, "displayFB": true, "punishment_amount": 0, "responseWindow": 1.5, "exp_stage": "adaptive_procedure", "stimResponseInterval": 0.01160016739104075, "trial_time": 2.645159959793091}
{"stimulusDuration": 1.5, "reward_amount": 1, "FBonset": 0, "stim": {"ori_start": -60, "motion_direction": "out", "speed_end": 0.09069758201857543, "oriDirection": 1, "oriBase": -60, "motionDirection": "out", "speedDirection": -1, "speedStrength": "medium", "speed_start": 0.12, "oriStrength": "medium", "ori_end": -49.068209413474975}, "ITI": 0.3946788774209605, "rt": 0.3602640628814697, "decision_var": 0.029302417981424567, "FBDuration": 0.5, "trial_count": 36, "ts": "motion", "response": "down", "onset": 158.80782148225592, "quest_estimate": 0.021594283737625584, "FB": 1, "displayFB": true, "punishment_amount": 0, "responseWindow": 1.5, "exp_stage": "adaptive_procedure", "stimResponseInterval": 0.3146080980242607, "trial_time": 2.6986701488494873}
{"stimulusDuration": 1.5, "reward_amount": 1, "FBonset": 0, "stim": {"ori_start": 30, "motion_direction": "in", "speed_end": 0.09421435313022647, "oriDirection": -1, "oriBase": 30, "motionDirection": "in", "speedDirection": -1, "speedStrength": "medium", "speed_start": 0.12, "oriStrength": "medium", "ori_end": 19.06820941347497}, "ITI": 0.7938075002209979, "rt": 0.2814290523529053, "decision_var": 0.025785646869773533, "FBDuration": 0.5, "trial_count": 37, "ts": "motion", "response": "down", "onset": 163.01710845770114, "quest_estimate": 0.018578324272095853, "FB": 1, "displayFB": true, "punishment_amount": 0, "responseWindow": 1.5, "exp_stage": "adaptive_procedure", "stimResponseInterval": 0.3628047273098791, "trial_time": 2.674093008041382}
{"stimulusDuration": 1.5, "reward_amount": 1, "FBonset": 0, "stim": {"ori_start": -60, "motion_direction": "in", "speed_end": 0.09755716703064642, "oriDirection": 1, "oriBase": -60, "motionDirection": "in", "speedDirection": -1, "speedStrength": "medium", "speed_start": 0.12, "oriStrength": "medium", "ori_end": -49.068209413474975}, "ITI": 0.6120392620169208, "rt": 0.33056092262268066, "decision_var": 0.02244283296935358, "FBDuration": 0.5, "trial_count": 38, "ts": "motion", "response": "down", "onset": 167.673720685232, "quest_estimate": 0.015706312970552597, "FB": 1, "displayFB": true, "punishment_amount": 0, "responseWindow": 1.5, "exp_stage": "adaptive_procedure", "stimResponseInterval": 0.8741186172855531, "trial_time": 3.2437429428100586}
{"stimulusDuration": 1.5, "reward_amount": 1, "FBonset": 0, "stim": {"ori_start": 30, "motion_direction": "in", "speed_end": 0.13926777728500095, "oriDirection": -1, "oriBase": 30, "motionDirection": "in", "speedDirection": 1, "speedStrength": "medium", "speed_start": 0.12, "oriStrength": "medium", "ori_end": 19.06820941347497}, "ITI": 0.5926411243509575, "rt": 0.30661702156066895, "decision_var": 0.019267777285000953, "FBDuration": 0.5, "trial_count": 39, "ts": "motion", "response": "up", "onset": 172.6598785645345, "quest_estimate": 0.012975036676308144, "FB": 1, "displayFB": true, "punishment_amount": 0, "responseWindow": 1.5, "exp_stage": "adaptive_procedure", "stimResponseInterval": 0.5393042259196044, "trial_time": 2.879956007003784}
{"stimulusDuration": 1.5, "reward_amount": 1, "FBonset": 0, "stim": {"ori_start": -60, "motion_direction": "out", "speed_end": 0.10374659664813025, "oriDirection": 1, "oriBase": -60, "motionDirection": "out", "speedDirection": -1, "speedStrength": "medium", "speed_start": 0.12, "oriStrength": "medium", "ori_end": -49.068209413474975}, "ITI": 0.2549238012148304, "rt": 0.37259602546691895, "decision_var": 0.01625340335186974, "FBDuration": 0.5, "trial_count": 40, "ts": "motion", "response": "down", "onset": 177.29182391480506, "quest_estimate": 0.010380470498759106, "FB": 1, "displayFB": true, "punishment_amount": 0, "responseWindow": 1.5, "exp_stage": "adaptive_procedure", "stimResponseInterval": 0.12138219007899909, "trial_time": 2.5274620056152344}
{"stimulusDuration": 1.5, "reward_amount": 1, "FBonset": 0, "stim": {"ori_start": 30, "motion_direction": "in", "speed_end": 0.1066070415560523, "oriDirection": 1, "oriBase": 30, "motionDirection": "in", "speedDirection": -1, "speedStrength": "medium", "speed_start": 0.12, "oriStrength": "medium", "ori_end": 40.931790586525025}, "ITI": 0.04792817419341644, "rt": 0.3137691020965576, "decision_var": 0.013392958443947695, "FBDuration": 0.5, "trial_count": 41, "ts": "motion", "response": "down", "onset": 181.1681299060989, "quest_estimate": 0.007917894892793376, "FB": 1, "displayFB": true, "punishment_amount": 0, "responseWindow": 1.5, "exp_stage": "adaptive_procedure", "stimResponseInterval": 0.9914992000200664, "trial_time": 3.3455429077148438}
{"stimulusDuration": 1.5, "reward_amount": 1, "FBonset": 0, "stim": {"ori_start": 30, "motion_direction": "out", "speed_end": 0.1306790755404704, "oriDirection": -1, "oriBase": 30, "motionDirection": "out", "speedDirection": 1, "speedStrength": "medium", "speed_start": 0.12, "oriStrength": "medium", "ori_end": 19.06820941347497}, "ITI": 0.1529476307872374, "rt": 0.46950197219848633, "decision_var": 0.010679075540470408, "FBDuration": 0.5, "trial_count": 42, "ts": "motion", "response": "down", "onset": 185.7075572803124, "quest_estimate": 0.016220685781260583, "FB": 0, "displayFB": true, "punishment_amount": 0, "responseWindow": 1.5, "exp_stage": "adaptive_procedure", "stimResponseInterval": 0.7917221473729155, "trial_time": 3.293767213821411}
{"stimulusDuration": 1.5, "reward_amount": 1, "FBonset": 0, "stim": {"ori_start": -60, "motion_direction": "out", "speed_end": 0.13998639069017588, "oriDirection": -1, "oriBase": -60, "motionDirection": "out", "speedDirection": 1, "speedStrength": "medium", "speed_start": 0.12, "oriStrength": "medium", "ori_end": -70.93179058652503}, "ITI": 0.8889469275547666, "rt": 0.42729783058166504, "decision_var": 0.01998639069017588, "FBDuration": 0.5, "trial_count": 43, "ts": "motion", "response": "up", "onset": 190.15222705847253, "quest_estimate": 0.013600474349881306, "FB": 1, "displayFB": true, "punishment_amount": 0, "responseWindow": 1.5, "exp_stage": "adaptive_procedure", "stimResponseInterval": 0.222652320991777, "trial_time": 2.6856000423431396}
{"stimulusDuration": 1.5, "reward_amount": 1, "FBonset": 0, "stim": {"ori_start": -60, "motion_direction": "in", "speed_end": 0.1371198909897098, "oriDirection": -1, "oriBase": -60, "motionDirection": "in", "speedDirection": 1, "speedStrength": "medium", "speed_start": 0.12, "oriStrength": "medium", "ori_end": -70.93179058652503}, "ITI": 0.6991017594930624, "rt": 0.3381328582763672, "decision_var": 0.017119890989709813, "FBDuration": 0.5, "trial_count": 44, "ts": "motion", "response": "up", "onset": 194.7638263070191, "quest_estimate": 0.011103905782435829, "FB": 1, "displayFB": true, "punishment_amount": 0, "responseWindow": 1.5, "exp_stage": "adaptive_procedure", "stimResponseInterval": 0.8429659134265064, "trial_time": 3.220750093460083}
{"stimulusDuration": 1.5, "reward_amount": 1, "FBonset": 0, "stim": {"ori_start": -60, "motion_direction": "out", "speed_end": 0.13438875680343568, "oriDirection": 1, "oriBase": -60, "motionDirection": "out", "speedDirection": 1, "speedStrength": "medium", "speed_start": 0.12, "oriStrength": "medium", "ori_end": -49.068209413474975}, "ITI": 0.83506444955266, "rt": 0.318011999130249, "decision_var": 0.014388756803435689, "FBDuration": 0.5, "trial_count": 45, "ts": "motion", "response": "down", "onset": 199.80589397993865, "quest_estimate": 0.019594259838999872, "FB": 0, "displayFB": true, "punishment_amount": 0, "responseWindow": 1.5, "exp_stage": "adaptive_procedure", "stimResponseInterval": 0.6821558474546339, "trial_time": 3.029355049133301}
{"stimulusDuration": 1.5, "reward_amount": 1, "FBonset": 0, "stim": {"ori_start": 30, "motion_direction": "out", "speed_end": 0.0962231294270051, "oriDirection": -1, "oriBase": 30, "motionDirection": "out", "speedDirection": -1, "speedStrength": "medium", "speed_start": 0.12, "oriStrength": "medium", "ori_end": 19.06820941347497}, "ITI": 0.5415647591029422, "rt": 0.4065408706665039, "decision_var": 0.023776870572994893, "FBDuration": 0.5, "trial_count": 46, "ts": "motion", "response": "down", "onset": 204.82311427694594, "quest_estimate": 0.01696076677464913, "FB": 1, "displayFB": true, "punishment_amount": 0, "responseWindow": 1.5, "exp_stage": "adaptive_procedure", "stimResponseInterval": 0.47096685132620864, "trial_time": 2.904036045074463}
{"stimulusDuration": 1.5, "reward_amount": 1, "FBonset": 0, "stim": {"ori_start": -60, "motion_direction": "in", "speed_end": 0.09907972938978621, "oriDirection": -1, "oriBase": -60, "motionDirection": "in", "speedDirection": -1, "speedStrength": "medium", "speed_start": 0.12, "oriStrength": "medium", "ori_end": -70.93179058652503}, "ITI": 0.6483239778993184, "rt": 0.3942439556121826, "decision_var": 0.02092027061021378, "FBDuration": 0.5, "trial_count": 47, "ts": "motion", "response": "down", "onset": 209.3356458873751, "quest_estimate": 0.014442128714636043, "FB": 1, "displayFB": true, "punishment_amount": 0, "responseWindow": 1.5, "exp_stage": "adaptive_procedure", "stimResponseInterval": 0.4635667545654186, "trial_time": 2.887364149093628}
{"stimulusDuration": 1.5, "reward_amount": 1, "FBonset": 0, "stim": {"ori_start": -60, "motion_direction": "in", "speed_end": 0.101811747801065, "oriDirection": 1, "oriBase": -60, "motionDirection": "in", "speedDirection": -1, "speedStrength": "medium", "speed_start": 0.12, "oriStrength": "medium", "ori_end": -49.068209413474975}, "ITI": 0.8985746172428826, "rt": 0.3027620315551758, "decision_var": 0.018188252198935002, "FBDuration": 0.5, "trial_count": 48, "ts": "motion", "response": "down", "onset": 213.94753661983984, "quest_estimate": 0.012035126481414977, "FB": 1, "displayFB": true, "punishment_amount": 0, "responseWindow": 1.5, "exp_stage": "adaptive_procedure", "stimResponseInterval": 0.7519478431488009, "trial_time": 3.0877230167388916}
{"stimulusDuration": 1.5, "reward_amount": 1, "FBonset": 0, "stim": {"ori_start": -60, "motion_direction": "out", "speed_end": 0.10442418124155334, "oriDirection": 1, "oriBase": -60, "motionDirection": "out", "speedDirection": -1, "speedStrength": "medium", "speed_start": 0.12, "oriStrength": "medium", "ori_end": -49.068209413474975}, "ITI": 0.5212291810255647, "rt": 0.30623698234558105, "decision_var": 0.015575818758446651, "FBDuration": 0.5, "trial_count": 49, "ts": "motion", "response": "down", "onset": 219.0980590802315, "quest_estimate": 0.009736101562424153, "FB": 1, "displayFB": true, "punishment_amount": 0, "responseWindow": 1.5, "exp_stage": "adaptive_procedure", "stimResponseInterval": 0.17524358882310198, "trial_time": 2.511378049850464}
{"stimulusDuration": 1.5, "reward_amount": 1, "FBonset": 0, "stim": {"ori_start": 30, "motion_direction": "in", "speed_end": 0.13307761265396847, "oriDirection": 1, "oriBase": 30, "motionDirection": "in", "speedDirection": 1, "speedStrength": "medium", "speed_start": 0.12, "oriStrength": "medium", "ori_end": 40.931790586525025}, "ITI": 0.9206297915088331, "rt": 0.2764170169830322, "decision_var": 0.013077612653968486, "FBDuration": 0.5, "trial_count": 50, "ts": "motion", "response": "up", "onset": 223.29453185008018, "quest_estimate": 0.007541234650677159, "FB": 1, "displayFB": true, "punishment_amount": 0, "responseWindow": 1.5, "exp_stage": "adaptive_procedure", "stimResponseInterval": 0.5640874303091112, "trial_time": 2.872972011566162}
{"stimulusDuration": 1.5, "reward_amount": 1, "FBonset": 0, "stim": {"ori_start": -60, "motion_direction": "in", "speed_end": 0.13068896465600188, "oriDirection": 1, "oriBase": -60, "motionDirection": "in", "speedDirection": 1, "speedStrength": "medium", "speed_start": 0.12, "oriStrength": "medium", "ori_end": -49.068209413474975}, "ITI": 0.9613493065043972, "rt": 0.26374316215515137, "decision_var": 0.010688964656001894, "FBDuration": 0.5, "trial_count": 51, "ts": "motion", "response": "up", "onset": 228.2792490718981, "quest_estimate": 0.005446512681280609, "FB": 1, "displayFB": true, "punishment_amount": 0, "responseWindow": 1.5, "exp_stage": "adaptive_procedure", "stimResponseInterval": 0.7968123819201849, "trial_time": 3.09082293510437}
{"stimulusDuration": 1.5, "reward_amount": 1, "FBonset": 0, "stim": {"ori_start": -60, "motion_direction": "in", "speed_end": 0.12840493918513035, "oriDirection": 1, "oriBase": -60, "motionDirection": "in", "speedDirection": 1, "speedStrength": "medium", "speed_start": 0.12, "oriStrength": "medium", "ori_end": -49.068209413474975}, "ITI": 0.241624923080746, "rt": 0.3389408588409424, "decision_var": 0.008404939185130349, "FBDuration": 0.5, "trial_count": 52, "ts": "motion", "response": "up", "onset": 233.5374107603227, "quest_estimate": 0.0034478942770131624, "FB": 1, "displayFB": true, "punishment_amount": 0, "responseWindow": 1.5, "exp_stage": "adaptive_procedure", "stimResponseInterval": 0.49191519174171605, "trial_time": 2.8668429851531982}
{"stimulusDuration": 1.5, "reward_amount": 1, "FBonset": 0, "stim": {"ori_start": 30, "motion_direction": "in", "speed_end": 0.1262213147829726, "oriDirection": 1, "oriBase": 30, "motionDirection": "in", "speedDirection": 1, "speedStrength": "medium", "speed_start": 0.12, "oriStrength": "medium", "ori_end": 40.931790586525025}, "ITI": 0.5141035279911832, "rt": 0.3041558265686035, "decision_var": 0.006221314782972602, "FBDuration": 0.5, "trial_count": 53, "ts": "motion", "response": "up", "onset": 237.77095087514516, "quest_estimate": 0.0015413042234728794, "FB": 1, "displayFB": true, "punishment_amount": 0, "responseWindow": 1.5, "exp_stage": "adaptive_procedure", "stimResponseInterval": 0.7332331809533885, "trial_time": 3.0720720291137695}
{"stimulusDuration": 1.5, "reward_amount": 1, "FBonset": 0, "stim": {"ori_start": -60, "motion_direction": "out", "speed_end": 0.12413359639465477, "oriDirection": 1, "oriBase": -60, "motionDirection": "out", "speedDirection": 1, "speedStrength": "medium", "speed_start": 0.12, "oriStrength": "medium", "ori_end": -49.068209413474975}, "ITI": 0.6394906660595245, "rt": 0.2674078941345215, "decision_var": 0.0041335963946547635, "FBDuration": 0.5, "trial_count": 54, "ts": "motion", "response": "down", "onset": 242.51828758408973, "quest_estimate": 0.007986313681194138, "FB": 0, "displayFB": true, "punishment_amount": 0, "responseWindow": 1.5, "exp_stage": "adaptive_procedure", "stimResponseInterval": 0.9193970577204298, "trial_time": 3.223414897918701}
{"stimulusDuration": 1.5, "reward_amount": 1, "FBonset": 0, "stim": {"ori_start": 30, "motion_direction": "out", "speed_end": 0.10868950904123857, "oriDirection": -1, "oriBase": 30, "motionDirection": "out", "speedDirection": -1, "speedStrength": "medium", "speed_start": 0.12, "oriStrength": "medium", "ori_end": 19.06820941347497}, "ITI": 0.3674791860929394, "rt": 0.5916540622711182, "decision_var": 0.011310490958761424, "FBDuration": 0.5, "trial_count": 55, "ts": "motion", "response": "down", "onset": 247.57717530786968, "quest_estimate": 0.0059597528875175235, "FB": 1, "displayFB": true, "punishment_amount": 0, "responseWindow": 1.5, "exp_stage": "adaptive_procedure", "stimResponseInterval": 0.04982562633218801, "trial_time": 2.6662490367889404}
{"stimulusDuration": 1.5, "reward_amount": 1, "FBonset": 0, "stim": {"ori_start": 30, "motion_direction": "out", "speed_end": 0.11088800300743973, "oriDirection": 1, "oriBase": 30, "motionDirection": "out", "speedDirection": -1, "speedStrength": "medium", "speed_start": 0.12, "oriStrength": "medium", "ori_end": 40.931790586525025}, "ITI": 0.8742239759419619, "rt": 0.28361010551452637, "decision_var": 0.009111996992560274, "FBDuration": 0.5, "trial_count": 56, "ts": "motion", "response": "down", "onset": 251.4944801202948, "quest_estimate": 0.0040211633467265445, "FB": 1, "displayFB": true, "punishment_amount": 0, "responseWindow": 1.5, "exp_stage": "adaptive_procedure", "stimResponseInterval": 0.8634238674916965, "trial_time": 3.187429904937744}
{"stimulusDuration": 1.5, "reward_amount": 1, "FBonset": 0, "stim": {"ori_start": 30, "motion_direction": "in", "speed_end": 0.1270036872949387, "oriDirection": -1, "oriBase": 30, "motionDirection": "in", "speedDirection": 1, "speedStrength": "medium", "speed_start": 0.12, "oriStrength": "medium", "ori_end": 19.06820941347497}, "ITI": 0.6143652403892794, "rt": 0.3369889259338379, "decision_var": 0.007003687294938686, "FBDuration": 0.5, "trial_count": 57, "ts": "motion", "response": "down", "onset": 256.7321279637285, "quest_estimate": 0.010618939320941878, "FB": 0, "displayFB": true, "punishment_amount": 0, "responseWindow": 1.5, "exp_stage": "adaptive_procedure", "stimResponseInterval": 0.7002645325975514, "trial_time": 3.070909023284912}
{"stimulusDuration": 1.5, "reward_amount": 1, "FBonset": 0, "stim": {"ori_start": 30, "motion_direction": "out", "speed_end": 0.10573370126241931, "oriDirection": -1, "oriBase": 30, "motionDirection": "out", "speedDirection": -1, "speedStrength": "medium", "speed_start": 0.12, "oriStrength": "medium", "ori_end": 19.06820941347497}, "ITI": 0.43121881855870814, "rt": 0.3414790630340576, "decision_var": 0.014266298737580688, "FBDuration": 0.5, "trial_count": 58, "ts": "motion", "response": "down", "onset": 261.54675773671534, "quest_estimate": 0.008571293778166698, "FB": 1, "displayFB": true, "punishment_amount": 0, "responseWindow": 1.5, "exp_stage": "adaptive_procedure", "stimResponseInterval": 0.6141405071693671, "trial_time": 2.989802122116089}
{"stimulusDuration": 1.5, "reward_amount": 1, "FBonset": 0, "stim": {"ori_start": 30, "motion_direction": "in", "speed_end": 0.10793778214569512, "oriDirection": 1, "oriBase": 30, "motionDirection": "in", "speedDirection": -1, "speedStrength": "medium", "speed_start": 0.12, "oriStrength": "medium", "ori_end": 40.931790586525025}, "ITI": 0.7915133978130813, "rt": 0.44976186752319336, "decision_var": 0.012062217854304877, "FBDuration": 0.5, "trial_count": 59, "ts": "motion", "response": "down", "onset": 266.09211706244344, "quest_estimate": 0.006607161812348675, "FB": 1, "displayFB": true, "punishment_amount": 0, "responseWindow": 1.5, "exp_stage": "adaptive_procedure", "stimResponseInterval": 0.12642095203970327, "trial_time": 2.61258602142334}
{"stimulusDuration": 1.5, "reward_amount": 1, "FBonset": 0, "stim": {"ori_start": 30, "motion_direction": "in", "speed_end": 0.1100574666882446, "oriDirection": -1, "oriBase": 30, "motionDirection": "in", "speedDirection": -1, "speedStrength": "medium", "speed_start": 0.12, "oriStrength": "medium", "ori_end": 19.06820941347497}, "ITI": 0.4726590181096906, "rt": 0.2890510559082031, "decision_var": 0.009942533311755389, "FBDuration": 0.5, "trial_count": 60, "ts": "motion", "response": "down", "onset": 270.5100514122962, "quest_estimate": 0.004723536220940912, "FB": 1, "displayFB": true, "punishment_amount": 0, "responseWindow": 1.5, "exp_stage": "adaptive_procedure", "stimResponseInterval": 0.9377452111919935, "trial_time": 3.2616689205169678}
{"stimulusDuration": 1.5, "reward_amount": 1, "FBonset": 0, "stim": {"ori_start": 30, "motion_direction": "in", "speed_end": 0.12790410116917894, "oriDirection": 1, "oriBase": 30, "motionDirection": "in", "speedDirection": 1, "speedStrength": "medium", "speed_start": 0.12, "oriStrength": "medium", "ori_end": 40.931790586525025}, "ITI": 0.05358484033381172, "rt": 0.27959203720092773, "decision_var": 0.007904101169178945, "FBDuration": 0.5, "trial_count": 61, "ts": "motion", "response": "up", "onset": 275.42045564159787, "quest_estimate": 0.0029172515131643054, "FB": 1, "displayFB": true, "punishment_amount": 0, "responseWindow": 1.5, "exp_stage": "adaptive_procedure", "stimResponseInterval": 0.4012264092076254, "trial_time": 2.7198538780212402}
{"stimulusDuration": 1.5, "reward_amount": 1, "FBonset": 0, "stim": {"ori_start": 30, "motion_direction": "in", "speed_end": 0.11405621114928555, "oriDirection": -1, "oriBase": 30, "motionDirection": "in", "speedDirection": -1, "speedStrength": "medium", "speed_start": 0.12, "oriStrength": "medium", "ori_end": 19.06820941347497}, "ITI": 0.962458627567321, "rt": 0.562553882598877, "decision_var": 0.005943788850714449, "FBDuration": 0.5, "trial_count": 62, "ts": "motion", "response": "up", "onset": 279.3752668911393, "quest_estimate": 0.009077980075854239, "FB": 0, "displayFB": true, "punishment_amount": 0, "responseWindow": 1.5, "exp_stage": "adaptive_procedure", "stimResponseInterval": 0.02973634508672751, "trial_time": 2.624419927597046}
{"stimulusDuration": 1.5, "reward_amount": 1, "FBonset": 0, "stim": {"ori_start": 30, "motion_direction": "in", "speed_end": 0.10729900036795731, "oriDirection": 1, "oriBase": 30, "motionDirection": "in", "speedDirection": -1, "speedStrength": "medium", "speed_start": 0.12, "oriStrength": "medium", "ori_end": 40.931790586525025}, "ITI": 0.5910865961010661, "rt": 0.4915468692779541, "decision_var": 0.01270099963204268, "FBDuration": 0.5, "trial_count": 63, "ts": "motion", "response": "down", "onset": 283.8674618637933, "quest_estimate": 0.007174935214167837, "FB": 1, "displayFB": true, "punishment_amount": 0, "responseWindow": 1.5, "exp_stage": "adaptive_procedure", "stimResponseInterval": 0.09548035408480315, "trial_time": 2.6256558895111084}
{"stimulusDuration": 1.5, "reward_amount": 1, "FBonset": 0, "stim": {"ori_start": 30, "motion_direction": "out", "speed_end": 0.1306575363024786, "oriDirection": -1, "oriBase": 30, "motionDirection": "out", "speedDirection": 1, "speedStrength": "medium", "speed_start": 0.12, "oriStrength": "medium", "ori_end": 19.06820941347497}, "ITI": 0.5019700274173398, "rt": 0.4436359405517578, "decision_var": 0.0106575363024786, "FBDuration": 0.5, "trial_count": 64, "ts": "motion", "response": "up", "onset": 288.0540288139792, "quest_estimate": 0.005345573100313902, "FB": 1, "displayFB": true, "punishment_amount": 0, "responseWindow": 1.5, "exp_stage": "adaptive_procedure", "stimResponseInterval": 0.9495227436685285, "trial_time": 3.428171157836914}
